folder,results_problem_12,results_problem_3,results_problem_13,results_problem_18,results_problem_7,results_problem_11,results_problem_5,results_problem_17,results_problem_9,results_problem_4,results_problem_1,results_problem_20,results_problem_6,results_problem_19,results_problem_21,results_problem_14,results_problem_16,results_problem_8,results_problem_22,results_problem_15,results_problem_23,results_problem_10,results_problem_2,categories.thisRepN,categories.thisTrialN,categories.thisN,categories.thisIndex,trials.thisRepN,trials.thisTrialN,trials.thisN,trials.thisIndex,consent_text.started,consent_kb.started,consent_kb.keys,consent_kb.rt,Gender.keys,Gender.rt,Age,instructions_text.started,instructions_text.stopped,instructions_kb.keys,instructions_kb.rt,instructions_kb.started,instructions_kb.stopped,trial_kb.keys,current_problem_num,category_resp,answer,seed,accuracy,feedback,trial_kb.rt,trial_kb.started,trial_kb.stopped,trial_image.started,trial_image.stopped,feedback_text.started,feedback_text.stopped,new_problem_kb.started,new_problem_text.started,new_problem_kb.keys,new_problem_kb.rt,Participant #,session,date,expName,psychopyVersion,frameRate,
,,,,,,,,,,,,,,,,,,,,,,,,,,,,,,,,11.869295599986799,11.869295599986799,y,8.25163889999385,,,,,,,,,,,,,,,,,,,,,,,,,,,,104,001,2023-10-06_15h28.20.245,uncolored_sorted,2021.2.3,59.941113847963656,
,,,,,,,,,,,,,,,,,,,,,,,,,,,,,,,,,,,,w,4.163908100017579,,,,,,,,,,,,,,,,,,,,,,,,,,104,001,2023-10-06_15h28.20.245,uncolored_sorted,2021.2.3,59.941113847963656,
,,,,,,,,,,,,,,,,,,,,,,,,,,,,,,,,,,,,,,19,29.61490469999262,None,space,30.177717400016263,29.61490469999262,None,,,,,,,,,,,,,,,,,,,104,001,2023-10-06_15h28.20.245,uncolored_sorted,2021.2.3,59.941113847963656,
C:\Users\subject\Desktop\SVRT Experiments\SVRT Experiment 3\svrt_images\generated_images\results_problem_12,C:\Users\subject\Desktop\SVRT Experiments\SVRT Experiment 3\svrt_images\generated_images\results_problem_12\sample_1_0015.png,,,,,,,,,,,,,,,,,,,,,,,0,0,0,0,0,0,0,0,,,,,,,,,,,,,,f,12,A,A,26,1,Correct!,4.771591600001557,59.82100209998316,None,59.82100209998316,None,64.62461130000884,None,,,,,104,001,2023-10-06_15h28.20.245,uncolored_sorted,2021.2.3,59.941113847963656,
C:\Users\subject\Desktop\SVRT Experiments\SVRT Experiment 3\svrt_images\generated_images\results_problem_12,C:\Users\subject\Desktop\SVRT Experiments\SVRT Experiment 3\svrt_images\generated_images\results_problem_12\sample_1_0003.png,,,,,,,,,,,,,,,,,,,,,,,0,0,0,0,0,1,1,1,,,,,,,,,,,,,,f,12,A,A,26,1,Correct!,3.4232488999841735,65.62538330000825,None,65.62538330000825,None,69.07798999999068,None,,,,,104,001,2023-10-06_15h28.20.245,uncolored_sorted,2021.2.3,59.941113847963656,
C:\Users\subject\Desktop\SVRT Experiments\SVRT Experiment 3\svrt_images\generated_images\results_problem_12,C:\Users\subject\Desktop\SVRT Experiments\SVRT Experiment 3\svrt_images\generated_images\results_problem_12\sample_1_0008.png,,,,,,,,,,,,,,,,,,,,,,,0,0,0,0,0,2,2,2,,,,,,,,,,,,,,f,12,A,A,26,1,Correct!,2.425107699993532,70.09542850000435,None,70.09542850000435,None,72.54724630000419,None,,,,,104,001,2023-10-06_15h28.20.245,uncolored_sorted,2021.2.3,59.941113847963656,
C:\Users\subject\Desktop\SVRT Experiments\SVRT Experiment 3\svrt_images\generated_images\results_problem_12,C:\Users\subject\Desktop\SVRT Experiments\SVRT Experiment 3\svrt_images\generated_images\results_problem_12\sample_1_0001.png,,,,,,,,,,,,,,,,,,,,,,,0,0,0,0,0,3,3,3,,,,,,,,,,,,,,f,12,A,A,26,1,Correct!,0.8999111999874003,73.5646745999984,None,73.5646745999984,None,74.4820624999993,None,,,,,104,001,2023-10-06_15h28.20.245,uncolored_sorted,2021.2.3,59.941113847963656,
C:\Users\subject\Desktop\SVRT Experiments\SVRT Experiment 3\svrt_images\generated_images\results_problem_12,C:\Users\subject\Desktop\SVRT Experiments\SVRT Experiment 3\svrt_images\generated_images\results_problem_12\sample_0_0002.png,,,,,,,,,,,,,,,,,,,,,,,0,0,0,0,0,4,4,4,,,,,,,,,,,,,,f,12,A,B,26,0,Incorrect!,2.2122771999856923,75.51618350000354,None,75.51618350000354,None,77.75119650000124,None,,,,,104,001,2023-10-06_15h28.20.245,uncolored_sorted,2021.2.3,59.941113847963656,
C:\Users\subject\Desktop\SVRT Experiments\SVRT Experiment 3\svrt_images\generated_images\results_problem_12,C:\Users\subject\Desktop\SVRT Experiments\SVRT Experiment 3\svrt_images\generated_images\results_problem_12\sample_1_0000.png,,,,,,,,,,,,,,,,,,,,,,,0,0,0,0,0,5,5,5,,,,,,,,,,,,,,f,12,A,A,26,1,Correct!,2.17525860000751,78.78527029999532,None,78.78527029999532,None,80.98696959999506,None,,,,,104,001,2023-10-06_15h28.20.245,uncolored_sorted,2021.2.3,59.941113847963656,
C:\Users\subject\Desktop\SVRT Experiments\SVRT Experiment 3\svrt_images\generated_images\results_problem_12,C:\Users\subject\Desktop\SVRT Experiments\SVRT Experiment 3\svrt_images\generated_images\results_problem_12\sample_1_0016.png,,,,,,,,,,,,,,,,,,,,,,,0,0,0,0,0,6,6,6,,,,,,,,,,,,,,f,12,A,A,26,1,Correct!,2.7786936000047717,82.0377693999908,None,82.0377693999908,None,84.83987689999049,None,,,,,104,001,2023-10-06_15h28.20.245,uncolored_sorted,2021.2.3,59.941113847963656,
C:\Users\subject\Desktop\SVRT Experiments\SVRT Experiment 3\svrt_images\generated_images\results_problem_12,C:\Users\subject\Desktop\SVRT Experiments\SVRT Experiment 3\svrt_images\generated_images\results_problem_12\sample_1_0004.png,,,,,,,,,,,,,,,,,,,,,,,0,0,0,0,0,7,7,7,,,,,,,,,,,,,,f,12,A,A,26,1,Correct!,2.2938206999970134,85.89062799999374,None,85.89062799999374,None,88.2090593999892,None,,,,,104,001,2023-10-06_15h28.20.245,uncolored_sorted,2021.2.3,59.941113847963656,
C:\Users\subject\Desktop\SVRT Experiments\SVRT Experiment 3\svrt_images\generated_images\results_problem_12,C:\Users\subject\Desktop\SVRT Experiments\SVRT Experiment 3\svrt_images\generated_images\results_problem_12\sample_1_0014.png,,,,,,,,,,,,,,,,,,,,,,,0,0,0,0,0,8,8,8,,,,,,,,,,,,,,f,12,A,A,26,1,Correct!,0.9799807000090368,89.27655879998929,None,89.27655879998929,None,90.27730469999369,None,,,,,104,001,2023-10-06_15h28.20.245,uncolored_sorted,2021.2.3,59.941113847963656,
C:\Users\subject\Desktop\SVRT Experiments\SVRT Experiment 3\svrt_images\generated_images\results_problem_12,C:\Users\subject\Desktop\SVRT Experiments\SVRT Experiment 3\svrt_images\generated_images\results_problem_12\sample_0_0016.png,,,,,,,,,,,,,,,,,,,,,,,0,0,0,0,0,9,9,9,,,,,,,,,,,,,,j,12,B,B,26,1,Correct!,1.9436173999856692,91.34478240000317,None,91.34478240000317,None,93.31292669998948,None,,,,,104,001,2023-10-06_15h28.20.245,uncolored_sorted,2021.2.3,59.941113847963656,
C:\Users\subject\Desktop\SVRT Experiments\SVRT Experiment 3\svrt_images\generated_images\results_problem_12,C:\Users\subject\Desktop\SVRT Experiments\SVRT Experiment 3\svrt_images\generated_images\results_problem_12\sample_0_0014.png,,,,,,,,,,,,,,,,,,,,,,,0,0,0,0,0,10,10,10,,,,,,,,,,,,,,f,12,A,B,26,0,Incorrect!,3.7313202999939676,94.39704770001117,None,94.39704770001117,None,98.14988549999543,None,,,,,104,001,2023-10-06_15h28.20.245,uncolored_sorted,2021.2.3,59.941113847963656,
C:\Users\subject\Desktop\SVRT Experiments\SVRT Experiment 3\svrt_images\generated_images\results_problem_12,C:\Users\subject\Desktop\SVRT Experiments\SVRT Experiment 3\svrt_images\generated_images\results_problem_12\sample_0_0011.png,,,,,,,,,,,,,,,,,,,,,,,0,0,0,0,0,11,11,11,,,,,,,,,,,,,,j,12,B,B,26,1,Correct!,1.4143618999805767,99.23401929999818,None,99.23401929999818,None,100.66847519998555,None,,,,,104,001,2023-10-06_15h28.20.245,uncolored_sorted,2021.2.3,59.941113847963656,
C:\Users\subject\Desktop\SVRT Experiments\SVRT Experiment 3\svrt_images\generated_images\results_problem_12,C:\Users\subject\Desktop\SVRT Experiments\SVRT Experiment 3\svrt_images\generated_images\results_problem_12\sample_0_0010.png,,,,,,,,,,,,,,,,,,,,,,,0,0,0,0,0,12,12,12,,,,,,,,,,,,,,j,12,B,B,26,1,Correct!,2.3351635000144597,101.76927230000729,None,101.76927230000729,None,104.1377145999868,None,,,,,104,001,2023-10-06_15h28.20.245,uncolored_sorted,2021.2.3,59.941113847963656,
C:\Users\subject\Desktop\SVRT Experiments\SVRT Experiment 3\svrt_images\generated_images\results_problem_12,C:\Users\subject\Desktop\SVRT Experiments\SVRT Experiment 3\svrt_images\generated_images\results_problem_12\sample_1_0013.png,,,,,,,,,,,,,,,,,,,,,,,0,0,0,0,0,13,13,13,,,,,,,,,,,,,,f,12,A,A,26,1,Correct!,1.265759900008561,105.2385493000038,None,105.2385493000038,None,106.52289709998877,None,,,,,104,001,2023-10-06_15h28.20.245,uncolored_sorted,2021.2.3,59.941113847963656,
C:\Users\subject\Desktop\SVRT Experiments\SVRT Experiment 3\svrt_images\generated_images\results_problem_12,C:\Users\subject\Desktop\SVRT Experiments\SVRT Experiment 3\svrt_images\generated_images\results_problem_12\sample_0_0003.png,,,,,,,,,,,,,,,,,,,,,,,0,0,0,0,0,14,14,14,,,,,,,,,,,,,,j,12,B,B,26,1,Correct!,8.255929300008575,107.640358500008,None,107.640358500008,None,115.91329810000025,None,,,,,104,001,2023-10-06_15h28.20.245,uncolored_sorted,2021.2.3,59.941113847963656,
C:\Users\subject\Desktop\SVRT Experiments\SVRT Experiment 3\svrt_images\generated_images\results_problem_12,C:\Users\subject\Desktop\SVRT Experiments\SVRT Experiment 3\svrt_images\generated_images\results_problem_12\sample_0_0005.png,,,,,,,,,,,,,,,,,,,,,,,0,0,0,0,0,15,15,15,,,,,,,,,,,,,,f,12,A,B,26,0,Incorrect!,1.0174769000150263,117.03081530000782,None,117.03081530000782,None,118.08160440000938,None,,,,,104,001,2023-10-06_15h28.20.245,uncolored_sorted,2021.2.3,59.941113847963656,
C:\Users\subject\Desktop\SVRT Experiments\SVRT Experiment 3\svrt_images\generated_images\results_problem_12,C:\Users\subject\Desktop\SVRT Experiments\SVRT Experiment 3\svrt_images\generated_images\results_problem_12\sample_0_0000.png,,,,,,,,,,,,,,,,,,,,,,,0,0,0,0,0,16,16,16,,,,,,,,,,,,,,j,12,B,B,26,1,Correct!,2.488430299999891,119.21575850000954,None,119.21575850000954,None,121.73435569999856,None,,,,,104,001,2023-10-06_15h28.20.245,uncolored_sorted,2021.2.3,59.941113847963656,
C:\Users\subject\Desktop\SVRT Experiments\SVRT Experiment 3\svrt_images\generated_images\results_problem_12,C:\Users\subject\Desktop\SVRT Experiments\SVRT Experiment 3\svrt_images\generated_images\results_problem_12\sample_1_0007.png,,,,,,,,,,,,,,,,,,,,,,,0,0,0,0,0,17,17,17,,,,,,,,,,,,,,f,12,A,A,26,1,Correct!,1.2269932000199333,122.88518599999952,None,122.88518599999952,None,124.13612819998525,None,,,,,104,001,2023-10-06_15h28.20.245,uncolored_sorted,2021.2.3,59.941113847963656,
C:\Users\subject\Desktop\SVRT Experiments\SVRT Experiment 3\svrt_images\generated_images\results_problem_12,C:\Users\subject\Desktop\SVRT Experiments\SVRT Experiment 3\svrt_images\generated_images\results_problem_12\sample_0_0012.png,,,,,,,,,,,,,,,,,,,,,,,0,0,0,0,0,18,18,18,,,,,,,,,,,,,,j,12,B,B,26,1,Correct!,1.7531674999918323,125.28700119999121,None,125.28700119999121,None,127.07169069998781,None,,,,,104,001,2023-10-06_15h28.20.245,uncolored_sorted,2021.2.3,59.941113847963656,
C:\Users\subject\Desktop\SVRT Experiments\SVRT Experiment 3\svrt_images\generated_images\results_problem_12,C:\Users\subject\Desktop\SVRT Experiments\SVRT Experiment 3\svrt_images\generated_images\results_problem_12\sample_0_0004.png,,,,,,,,,,,,,,,,,,,,,,,0,0,0,0,0,19,19,19,,,,,,,,,,,,,,j,12,B,B,26,1,Correct!,1.808869800006505,128.2392639000027,None,128.2392639000027,None,130.09065490000648,None,,,,,104,001,2023-10-06_15h28.20.245,uncolored_sorted,2021.2.3,59.941113847963656,
C:\Users\subject\Desktop\SVRT Experiments\SVRT Experiment 3\svrt_images\generated_images\results_problem_12,C:\Users\subject\Desktop\SVRT Experiments\SVRT Experiment 3\svrt_images\generated_images\results_problem_12\sample_0_0013.png,,,,,,,,,,,,,,,,,,,,,,,0,0,0,0,0,20,20,20,,,,,,,,,,,,,,j,12,B,B,26,1,Correct!,1.6372673000150826,131.2748900000006,None,131.2748900000006,None,132.95948869999847,None,,,,,104,001,2023-10-06_15h28.20.245,uncolored_sorted,2021.2.3,59.941113847963656,
C:\Users\subject\Desktop\SVRT Experiments\SVRT Experiment 3\svrt_images\generated_images\results_problem_12,C:\Users\subject\Desktop\SVRT Experiments\SVRT Experiment 3\svrt_images\generated_images\results_problem_12\sample_0_0001.png,,,,,,,,,,,,,,,,,,,,,,,0,0,0,0,0,21,21,21,,,,,,,,,,,,,,j,12,B,B,26,1,Correct!,1.1444045999960508,134.14371840000967,None,134.14371840000967,None,135.32792069998686,None,,,,,104,001,2023-10-06_15h28.20.245,uncolored_sorted,2021.2.3,59.941113847963656,
C:\Users\subject\Desktop\SVRT Experiments\SVRT Experiment 3\svrt_images\generated_images\results_problem_12,C:\Users\subject\Desktop\SVRT Experiments\SVRT Experiment 3\svrt_images\generated_images\results_problem_12\sample_0_0007.png,,,,,,,,,,,,,,,,,,,,,,,0,0,0,0,0,22,22,22,,,,,,,,,,,,,,f,12,A,B,26,0,Incorrect!,1.3919420999882277,136.51218140000128,None,136.51218140000128,None,137.9299032999843,None,,,,,104,001,2023-10-06_15h28.20.245,uncolored_sorted,2021.2.3,59.941113847963656,
C:\Users\subject\Desktop\SVRT Experiments\SVRT Experiment 3\svrt_images\generated_images\results_problem_12,C:\Users\subject\Desktop\SVRT Experiments\SVRT Experiment 3\svrt_images\generated_images\results_problem_12\sample_0_0008.png,,,,,,,,,,,,,,,,,,,,,,,0,0,0,0,0,23,23,23,,,,,,,,,,,,,,j,12,B,B,26,1,Correct!,0.8372929000179283,139.13081309999689,None,139.13081309999689,None,140.01480579999043,None,,,,,104,001,2023-10-06_15h28.20.245,uncolored_sorted,2021.2.3,59.941113847963656,
C:\Users\subject\Desktop\SVRT Experiments\SVRT Experiment 3\svrt_images\generated_images\results_problem_12,C:\Users\subject\Desktop\SVRT Experiments\SVRT Experiment 3\svrt_images\generated_images\results_problem_12\sample_1_0002.png,,,,,,,,,,,,,,,,,,,,,,,0,0,0,0,0,24,24,24,,,,,,,,,,,,,,j,12,B,A,26,0,Incorrect!,1.663693400012562,141.23239819999435,None,141.23239819999435,None,142.93364199998905,None,,,,,104,001,2023-10-06_15h28.20.245,uncolored_sorted,2021.2.3,59.941113847963656,
C:\Users\subject\Desktop\SVRT Experiments\SVRT Experiment 3\svrt_images\generated_images\results_problem_12,C:\Users\subject\Desktop\SVRT Experiments\SVRT Experiment 3\svrt_images\generated_images\results_problem_12\sample_0_0006.png,,,,,,,,,,,,,,,,,,,,,,,0,0,0,0,0,25,25,25,,,,,,,,,,,,,,j,12,B,B,26,1,Correct!,1.2407783000089694,144.15127070000744,None,144.15127070000744,None,145.45224079999025,None,,,,,104,001,2023-10-06_15h28.20.245,uncolored_sorted,2021.2.3,59.941113847963656,
C:\Users\subject\Desktop\SVRT Experiments\SVRT Experiment 3\svrt_images\generated_images\results_problem_12,C:\Users\subject\Desktop\SVRT Experiments\SVRT Experiment 3\svrt_images\generated_images\results_problem_12\sample_1_0010.png,,,,,,,,,,,,,,,,,,,,,,,0,0,0,0,0,26,26,26,,,,,,,,,,,,,,f,12,A,A,26,1,Correct!,2.7376210000074934,146.68649029999506,None,146.68649029999506,None,149.4552532999951,None,,,,,104,001,2023-10-06_15h28.20.245,uncolored_sorted,2021.2.3,59.941113847963656,
C:\Users\subject\Desktop\SVRT Experiments\SVRT Experiment 3\svrt_images\generated_images\results_problem_12,C:\Users\subject\Desktop\SVRT Experiments\SVRT Experiment 3\svrt_images\generated_images\results_problem_12\sample_1_0009.png,,,,,,,,,,,,,,,,,,,,,,,0,0,0,0,0,27,27,27,,,,,,,,,,,,,,f,12,A,A,26,1,Correct!,0.7979228000040166,150.70620869999402,None,150.70620869999402,None,151.52348370000254,None,,,,,104,001,2023-10-06_15h28.20.245,uncolored_sorted,2021.2.3,59.941113847963656,
C:\Users\subject\Desktop\SVRT Experiments\SVRT Experiment 3\svrt_images\generated_images\results_problem_12,C:\Users\subject\Desktop\SVRT Experiments\SVRT Experiment 3\svrt_images\generated_images\results_problem_12\sample_1_0005.png,,,,,,,,,,,,,,,,,,,,,,,0,0,0,0,0,28,28,28,,,,,,,,,,,,,,f,12,A,A,26,1,Correct!,0.6495996000012383,152.7744332999864,None,152.7744332999864,None,153.4415955999866,None,,,,,104,001,2023-10-06_15h28.20.245,uncolored_sorted,2021.2.3,59.941113847963656,
C:\Users\subject\Desktop\SVRT Experiments\SVRT Experiment 3\svrt_images\generated_images\results_problem_12,C:\Users\subject\Desktop\SVRT Experiments\SVRT Experiment 3\svrt_images\generated_images\results_problem_12\sample_0_0009.png,,,,,,,,,,,,,,,,,,,,,,,0,0,0,0,0,29,29,29,,,,,,,,,,,,,,j,12,B,B,26,1,Correct!,2.7867579000012483,154.7092291000008,None,154.7092291000008,None,157.5280086999992,None,,,,,104,001,2023-10-06_15h28.20.245,uncolored_sorted,2021.2.3,59.941113847963656,
C:\Users\subject\Desktop\SVRT Experiments\SVRT Experiment 3\svrt_images\generated_images\results_problem_12,C:\Users\subject\Desktop\SVRT Experiments\SVRT Experiment 3\svrt_images\generated_images\results_problem_12\sample_0_0015.png,,,,,,,,,,,,,,,,,,,,,,,0,0,0,0,0,30,30,30,,,,,,,,,,,,,,j,12,B,B,26,1,Correct!,0.8356187999888789,158.81232080000336,None,158.81232080000336,None,159.6962874000019,None,,,,,104,001,2023-10-06_15h28.20.245,uncolored_sorted,2021.2.3,59.941113847963656,
C:\Users\subject\Desktop\SVRT Experiments\SVRT Experiment 3\svrt_images\generated_images\results_problem_12,C:\Users\subject\Desktop\SVRT Experiments\SVRT Experiment 3\svrt_images\generated_images\results_problem_12\sample_1_0006.png,,,,,,,,,,,,,,,,,,,,,,,0,0,0,0,0,31,31,31,,,,,,,,,,,,,,f,12,A,A,26,1,Correct!,0.8266783999861218,160.99728760001017,None,160.99728760001017,None,161.84793299998273,None,,,,,104,001,2023-10-06_15h28.20.245,uncolored_sorted,2021.2.3,59.941113847963656,
C:\Users\subject\Desktop\SVRT Experiments\SVRT Experiment 3\svrt_images\generated_images\results_problem_12,C:\Users\subject\Desktop\SVRT Experiments\SVRT Experiment 3\svrt_images\generated_images\results_problem_12\sample_1_0012.png,,,,,,,,,,,,,,,,,,,,,,,0,0,0,0,0,32,32,32,,,,,,,,,,,,,,,,,,,,,,,,,,,,162.8486891000066,162.8486891000066,space,2.223248300026171,104,001,2023-10-06_15h28.20.245,uncolored_sorted,2021.2.3,59.941113847963656,
C:\Users\subject\Desktop\SVRT Experiments\SVRT Experiment 3\svrt_images\generated_images\results_problem_3,C:\Users\subject\Desktop\SVRT Experiments\SVRT Experiment 3\svrt_images\generated_images\results_problem_12\sample_1_0012.png,C:\Users\subject\Desktop\SVRT Experiments\SVRT Experiment 3\svrt_images\generated_images\results_problem_3\sample_1_0003.png,,,,,,,,,,,,,,,,,,,,,,0,1,1,1,0,0,0,0,,,,,,,,,,,,,,f,3,A,A,26,1,Correct!,3.059546100004809,165.10038650000934,None,165.10038650000934,None,168.18604790000245,None,,,,,104,001,2023-10-06_15h28.20.245,uncolored_sorted,2021.2.3,59.941113847963656,
C:\Users\subject\Desktop\SVRT Experiments\SVRT Experiment 3\svrt_images\generated_images\results_problem_3,C:\Users\subject\Desktop\SVRT Experiments\SVRT Experiment 3\svrt_images\generated_images\results_problem_12\sample_1_0012.png,C:\Users\subject\Desktop\SVRT Experiments\SVRT Experiment 3\svrt_images\generated_images\results_problem_3\sample_0_0014.png,,,,,,,,,,,,,,,,,,,,,,0,1,1,1,0,1,1,1,,,,,,,,,,,,,,j,3,B,B,26,1,Correct!,6.797047200001543,169.1868034999934,None,169.1868034999934,None,176.00860820000526,None,,,,,104,001,2023-10-06_15h28.20.245,uncolored_sorted,2021.2.3,59.941113847963656,
C:\Users\subject\Desktop\SVRT Experiments\SVRT Experiment 3\svrt_images\generated_images\results_problem_3,C:\Users\subject\Desktop\SVRT Experiments\SVRT Experiment 3\svrt_images\generated_images\results_problem_12\sample_1_0012.png,C:\Users\subject\Desktop\SVRT Experiments\SVRT Experiment 3\svrt_images\generated_images\results_problem_3\sample_1_0012.png,,,,,,,,,,,,,,,,,,,,,,0,1,1,1,0,2,2,2,,,,,,,,,,,,,,f,3,A,A,26,1,Correct!,2.4458057999727316,177.0260452000075,None,177.0260452000075,None,179.49457380000968,None,,,,,104,001,2023-10-06_15h28.20.245,uncolored_sorted,2021.2.3,59.941113847963656,
C:\Users\subject\Desktop\SVRT Experiments\SVRT Experiment 3\svrt_images\generated_images\results_problem_3,C:\Users\subject\Desktop\SVRT Experiments\SVRT Experiment 3\svrt_images\generated_images\results_problem_12\sample_1_0012.png,C:\Users\subject\Desktop\SVRT Experiments\SVRT Experiment 3\svrt_images\generated_images\results_problem_3\sample_1_0016.png,,,,,,,,,,,,,,,,,,,,,,0,1,1,1,0,3,3,3,,,,,,,,,,,,,,f,3,A,A,26,1,Correct!,0.7519186999998055,180.51201119998586,None,180.51201119998586,None,181.29592969999067,None,,,,,104,001,2023-10-06_15h28.20.245,uncolored_sorted,2021.2.3,59.941113847963656,
C:\Users\subject\Desktop\SVRT Experiments\SVRT Experiment 3\svrt_images\generated_images\results_problem_3,C:\Users\subject\Desktop\SVRT Experiments\SVRT Experiment 3\svrt_images\generated_images\results_problem_12\sample_1_0012.png,C:\Users\subject\Desktop\SVRT Experiments\SVRT Experiment 3\svrt_images\generated_images\results_problem_3\sample_0_0001.png,,,,,,,,,,,,,,,,,,,,,,0,1,1,1,0,4,4,4,,,,,,,,,,,,,,j,3,B,B,26,1,Correct!,0.8534451000159606,182.33038929998293,None,182.33038929998293,None,183.21403770000325,None,,,,,104,001,2023-10-06_15h28.20.245,uncolored_sorted,2021.2.3,59.941113847963656,
C:\Users\subject\Desktop\SVRT Experiments\SVRT Experiment 3\svrt_images\generated_images\results_problem_3,C:\Users\subject\Desktop\SVRT Experiments\SVRT Experiment 3\svrt_images\generated_images\results_problem_12\sample_1_0012.png,C:\Users\subject\Desktop\SVRT Experiments\SVRT Experiment 3\svrt_images\generated_images\results_problem_3\sample_0_0015.png,,,,,,,,,,,,,,,,,,,,,,0,1,1,1,0,5,5,5,,,,,,,,,,,,,,j,3,B,B,26,1,Correct!,0.6636525000212714,184.248158900009,None,184.248158900009,None,184.93200219998835,None,,,,,104,001,2023-10-06_15h28.20.245,uncolored_sorted,2021.2.3,59.941113847963656,
C:\Users\subject\Desktop\SVRT Experiments\SVRT Experiment 3\svrt_images\generated_images\results_problem_3,C:\Users\subject\Desktop\SVRT Experiments\SVRT Experiment 3\svrt_images\generated_images\results_problem_12\sample_1_0012.png,C:\Users\subject\Desktop\SVRT Experiments\SVRT Experiment 3\svrt_images\generated_images\results_problem_3\sample_1_0008.png,,,,,,,,,,,,,,,,,,,,,,0,1,1,1,0,6,6,6,,,,,,,,,,,,,,f,3,A,A,26,1,Correct!,0.7769627000088803,185.98279939999338,None,185.98279939999338,None,186.7833743999945,None,,,,,104,001,2023-10-06_15h28.20.245,uncolored_sorted,2021.2.3,59.941113847963656,
C:\Users\subject\Desktop\SVRT Experiments\SVRT Experiment 3\svrt_images\generated_images\results_problem_3,C:\Users\subject\Desktop\SVRT Experiments\SVRT Experiment 3\svrt_images\generated_images\results_problem_12\sample_1_0012.png,C:\Users\subject\Desktop\SVRT Experiments\SVRT Experiment 3\svrt_images\generated_images\results_problem_3\sample_0_0004.png,,,,,,,,,,,,,,,,,,,,,,0,1,1,1,0,7,7,7,,,,,,,,,,,,,,,,,,,,,,,,,,,,187.784167899983,187.784167899983,space,1.143530200002715,104,001,2023-10-06_15h28.20.245,uncolored_sorted,2021.2.3,59.941113847963656,
C:\Users\subject\Desktop\SVRT Experiments\SVRT Experiment 3\svrt_images\generated_images\results_problem_13,C:\Users\subject\Desktop\SVRT Experiments\SVRT Experiment 3\svrt_images\generated_images\results_problem_12\sample_1_0012.png,C:\Users\subject\Desktop\SVRT Experiments\SVRT Experiment 3\svrt_images\generated_images\results_problem_3\sample_0_0004.png,C:\Users\subject\Desktop\SVRT Experiments\SVRT Experiment 3\svrt_images\generated_images\results_problem_13\sample_1_0007.png,,,,,,,,,,,,,,,,,,,,,0,2,2,2,0,0,0,0,,,,,,,,,,,,,,f,13,A,A,26,1,Correct!,1.4480719999992289,188.95169950000127,None,188.95169950000127,None,190.41947249998339,None,,,,,104,001,2023-10-06_15h28.20.245,uncolored_sorted,2021.2.3,59.941113847963656,
C:\Users\subject\Desktop\SVRT Experiments\SVRT Experiment 3\svrt_images\generated_images\results_problem_13,C:\Users\subject\Desktop\SVRT Experiments\SVRT Experiment 3\svrt_images\generated_images\results_problem_12\sample_1_0012.png,C:\Users\subject\Desktop\SVRT Experiments\SVRT Experiment 3\svrt_images\generated_images\results_problem_3\sample_0_0004.png,C:\Users\subject\Desktop\SVRT Experiments\SVRT Experiment 3\svrt_images\generated_images\results_problem_13\sample_1_0008.png,,,,,,,,,,,,,,,,,,,,,0,2,2,2,0,1,1,1,,,,,,,,,,,,,,j,13,B,A,26,0,Incorrect!,2.0595207000151277,191.42022569998517,None,191.42022569998517,None,193.50513710000087,None,,,,,104,001,2023-10-06_15h28.20.245,uncolored_sorted,2021.2.3,59.941113847963656,
C:\Users\subject\Desktop\SVRT Experiments\SVRT Experiment 3\svrt_images\generated_images\results_problem_13,C:\Users\subject\Desktop\SVRT Experiments\SVRT Experiment 3\svrt_images\generated_images\results_problem_12\sample_1_0012.png,C:\Users\subject\Desktop\SVRT Experiments\SVRT Experiment 3\svrt_images\generated_images\results_problem_3\sample_0_0004.png,C:\Users\subject\Desktop\SVRT Experiments\SVRT Experiment 3\svrt_images\generated_images\results_problem_13\sample_0_0005.png,,,,,,,,,,,,,,,,,,,,,0,2,2,2,0,2,2,2,,,,,,,,,,,,,,j,13,B,B,26,1,Correct!,1.5651497000071686,194.52257110000937,None,194.52257110000937,None,196.10710009999457,None,,,,,104,001,2023-10-06_15h28.20.245,uncolored_sorted,2021.2.3,59.941113847963656,
C:\Users\subject\Desktop\SVRT Experiments\SVRT Experiment 3\svrt_images\generated_images\results_problem_13,C:\Users\subject\Desktop\SVRT Experiments\SVRT Experiment 3\svrt_images\generated_images\results_problem_12\sample_1_0012.png,C:\Users\subject\Desktop\SVRT Experiments\SVRT Experiment 3\svrt_images\generated_images\results_problem_3\sample_0_0004.png,C:\Users\subject\Desktop\SVRT Experiments\SVRT Experiment 3\svrt_images\generated_images\results_problem_13\sample_0_0002.png,,,,,,,,,,,,,,,,,,,,,0,2,2,2,0,3,3,3,,,,,,,,,,,,,,j,13,B,B,26,1,Correct!,0.7632662999967579,197.12453549998463,None,197.12453549998463,None,197.90845809999155,None,,,,,104,001,2023-10-06_15h28.20.245,uncolored_sorted,2021.2.3,59.941113847963656,
C:\Users\subject\Desktop\SVRT Experiments\SVRT Experiment 3\svrt_images\generated_images\results_problem_13,C:\Users\subject\Desktop\SVRT Experiments\SVRT Experiment 3\svrt_images\generated_images\results_problem_12\sample_1_0012.png,C:\Users\subject\Desktop\SVRT Experiments\SVRT Experiment 3\svrt_images\generated_images\results_problem_3\sample_0_0004.png,C:\Users\subject\Desktop\SVRT Experiments\SVRT Experiment 3\svrt_images\generated_images\results_problem_13\sample_1_0009.png,,,,,,,,,,,,,,,,,,,,,0,2,2,2,0,4,4,4,,,,,,,,,,,,,,f,13,A,A,26,1,Correct!,0.5131555999978445,198.94257019998622,None,198.94257019998622,None,199.47630059998482,None,,,,,104,001,2023-10-06_15h28.20.245,uncolored_sorted,2021.2.3,59.941113847963656,
C:\Users\subject\Desktop\SVRT Experiments\SVRT Experiment 3\svrt_images\generated_images\results_problem_13,C:\Users\subject\Desktop\SVRT Experiments\SVRT Experiment 3\svrt_images\generated_images\results_problem_12\sample_1_0012.png,C:\Users\subject\Desktop\SVRT Experiments\SVRT Experiment 3\svrt_images\generated_images\results_problem_3\sample_0_0004.png,C:\Users\subject\Desktop\SVRT Experiments\SVRT Experiment 3\svrt_images\generated_images\results_problem_13\sample_0_0015.png,,,,,,,,,,,,,,,,,,,,,0,2,2,2,0,5,5,5,,,,,,,,,,,,,,j,13,B,B,26,1,Correct!,0.44132169999647886,200.51037999999244,None,200.51037999999244,None,200.97743589998572,None,,,,,104,001,2023-10-06_15h28.20.245,uncolored_sorted,2021.2.3,59.941113847963656,
C:\Users\subject\Desktop\SVRT Experiments\SVRT Experiment 3\svrt_images\generated_images\results_problem_13,C:\Users\subject\Desktop\SVRT Experiments\SVRT Experiment 3\svrt_images\generated_images\results_problem_12\sample_1_0012.png,C:\Users\subject\Desktop\SVRT Experiments\SVRT Experiment 3\svrt_images\generated_images\results_problem_3\sample_0_0004.png,C:\Users\subject\Desktop\SVRT Experiments\SVRT Experiment 3\svrt_images\generated_images\results_problem_13\sample_0_0012.png,,,,,,,,,,,,,,,,,,,,,0,2,2,2,0,6,6,6,,,,,,,,,,,,,,f,13,A,B,26,0,Incorrect!,0.45938150002621114,202.0282317000092,None,202.0282317000092,None,202.51190779998433,None,,,,,104,001,2023-10-06_15h28.20.245,uncolored_sorted,2021.2.3,59.941113847963656,
C:\Users\subject\Desktop\SVRT Experiments\SVRT Experiment 3\svrt_images\generated_images\results_problem_13,C:\Users\subject\Desktop\SVRT Experiments\SVRT Experiment 3\svrt_images\generated_images\results_problem_12\sample_1_0012.png,C:\Users\subject\Desktop\SVRT Experiments\SVRT Experiment 3\svrt_images\generated_images\results_problem_3\sample_0_0004.png,C:\Users\subject\Desktop\SVRT Experiments\SVRT Experiment 3\svrt_images\generated_images\results_problem_13\sample_0_0011.png,,,,,,,,,,,,,,,,,,,,,0,2,2,2,0,7,7,7,,,,,,,,,,,,,,f,13,A,B,26,0,Incorrect!,1.4449543999799062,203.5627145000035,None,203.5627145000035,None,205.03048970000236,None,,,,,104,001,2023-10-06_15h28.20.245,uncolored_sorted,2021.2.3,59.941113847963656,
C:\Users\subject\Desktop\SVRT Experiments\SVRT Experiment 3\svrt_images\generated_images\results_problem_13,C:\Users\subject\Desktop\SVRT Experiments\SVRT Experiment 3\svrt_images\generated_images\results_problem_12\sample_1_0012.png,C:\Users\subject\Desktop\SVRT Experiments\SVRT Experiment 3\svrt_images\generated_images\results_problem_3\sample_0_0004.png,C:\Users\subject\Desktop\SVRT Experiments\SVRT Experiment 3\svrt_images\generated_images\results_problem_13\sample_1_0011.png,,,,,,,,,,,,,,,,,,,,,0,2,2,2,0,8,8,8,,,,,,,,,,,,,,f,13,A,A,26,1,Correct!,4.12566279998282,206.09796469999128,None,206.09796469999128,None,210.25109279999742,None,,,,,104,001,2023-10-06_15h28.20.245,uncolored_sorted,2021.2.3,59.941113847963656,
C:\Users\subject\Desktop\SVRT Experiments\SVRT Experiment 3\svrt_images\generated_images\results_problem_13,C:\Users\subject\Desktop\SVRT Experiments\SVRT Experiment 3\svrt_images\generated_images\results_problem_12\sample_1_0012.png,C:\Users\subject\Desktop\SVRT Experiments\SVRT Experiment 3\svrt_images\generated_images\results_problem_3\sample_0_0004.png,C:\Users\subject\Desktop\SVRT Experiments\SVRT Experiment 3\svrt_images\generated_images\results_problem_13\sample_0_0001.png,,,,,,,,,,,,,,,,,,,,,0,2,2,2,0,9,9,9,,,,,,,,,,,,,,j,13,B,B,26,1,Correct!,9.128995899984147,211.31857269999455,None,211.31857269999455,None,220.47546719998354,None,,,,,104,001,2023-10-06_15h28.20.245,uncolored_sorted,2021.2.3,59.941113847963656,
C:\Users\subject\Desktop\SVRT Experiments\SVRT Experiment 3\svrt_images\generated_images\results_problem_13,C:\Users\subject\Desktop\SVRT Experiments\SVRT Experiment 3\svrt_images\generated_images\results_problem_12\sample_1_0012.png,C:\Users\subject\Desktop\SVRT Experiments\SVRT Experiment 3\svrt_images\generated_images\results_problem_3\sample_0_0004.png,C:\Users\subject\Desktop\SVRT Experiments\SVRT Experiment 3\svrt_images\generated_images\results_problem_13\sample_1_0000.png,,,,,,,,,,,,,,,,,,,,,0,2,2,2,0,10,10,10,,,,,,,,,,,,,,f,13,A,A,26,1,Correct!,1.5199154999863822,221.55962280000676,None,221.55962280000676,None,223.11078849999467,None,,,,,104,001,2023-10-06_15h28.20.245,uncolored_sorted,2021.2.3,59.941113847963656,
C:\Users\subject\Desktop\SVRT Experiments\SVRT Experiment 3\svrt_images\generated_images\results_problem_13,C:\Users\subject\Desktop\SVRT Experiments\SVRT Experiment 3\svrt_images\generated_images\results_problem_12\sample_1_0012.png,C:\Users\subject\Desktop\SVRT Experiments\SVRT Experiment 3\svrt_images\generated_images\results_problem_3\sample_0_0004.png,C:\Users\subject\Desktop\SVRT Experiments\SVRT Experiment 3\svrt_images\generated_images\results_problem_13\sample_0_0007.png,,,,,,,,,,,,,,,,,,,,,0,2,2,2,0,11,11,11,,,,,,,,,,,,,,j,13,B,B,26,1,Correct!,2.188568399986252,224.19494220000342,None,224.19494220000342,None,226.41327660001116,None,,,,,104,001,2023-10-06_15h28.20.245,uncolored_sorted,2021.2.3,59.941113847963656,
C:\Users\subject\Desktop\SVRT Experiments\SVRT Experiment 3\svrt_images\generated_images\results_problem_13,C:\Users\subject\Desktop\SVRT Experiments\SVRT Experiment 3\svrt_images\generated_images\results_problem_12\sample_1_0012.png,C:\Users\subject\Desktop\SVRT Experiments\SVRT Experiment 3\svrt_images\generated_images\results_problem_3\sample_0_0004.png,C:\Users\subject\Desktop\SVRT Experiments\SVRT Experiment 3\svrt_images\generated_images\results_problem_13\sample_1_0013.png,,,,,,,,,,,,,,,,,,,,,0,2,2,2,0,12,12,12,,,,,,,,,,,,,,f,13,A,A,26,1,Correct!,2.261310700007016,227.51411270000972,None,227.51411270000972,None,229.799127700011,None,,,,,104,001,2023-10-06_15h28.20.245,uncolored_sorted,2021.2.3,59.941113847963656,
C:\Users\subject\Desktop\SVRT Experiments\SVRT Experiment 3\svrt_images\generated_images\results_problem_13,C:\Users\subject\Desktop\SVRT Experiments\SVRT Experiment 3\svrt_images\generated_images\results_problem_12\sample_1_0012.png,C:\Users\subject\Desktop\SVRT Experiments\SVRT Experiment 3\svrt_images\generated_images\results_problem_3\sample_0_0004.png,C:\Users\subject\Desktop\SVRT Experiments\SVRT Experiment 3\svrt_images\generated_images\results_problem_13\sample_0_0008.png,,,,,,,,,,,,,,,,,,,,,0,2,2,2,0,13,13,13,,,,,,,,,,,,,,f,13,A,B,26,0,Incorrect!,1.3555183999997098,230.89996429998428,None,230.89996429998428,None,232.28435559998616,None,,,,,104,001,2023-10-06_15h28.20.245,uncolored_sorted,2021.2.3,59.941113847963656,
C:\Users\subject\Desktop\SVRT Experiments\SVRT Experiment 3\svrt_images\generated_images\results_problem_13,C:\Users\subject\Desktop\SVRT Experiments\SVRT Experiment 3\svrt_images\generated_images\results_problem_12\sample_1_0012.png,C:\Users\subject\Desktop\SVRT Experiments\SVRT Experiment 3\svrt_images\generated_images\results_problem_3\sample_0_0004.png,C:\Users\subject\Desktop\SVRT Experiments\SVRT Experiment 3\svrt_images\generated_images\results_problem_13\sample_0_0009.png,,,,,,,,,,,,,,,,,,,,,0,2,2,2,0,14,14,14,,,,,,,,,,,,,,j,13,B,B,26,1,Correct!,1.2295302000129595,233.40189259999897,None,233.40189259999897,None,234.65280720000737,None,,,,,104,001,2023-10-06_15h28.20.245,uncolored_sorted,2021.2.3,59.941113847963656,
C:\Users\subject\Desktop\SVRT Experiments\SVRT Experiment 3\svrt_images\generated_images\results_problem_13,C:\Users\subject\Desktop\SVRT Experiments\SVRT Experiment 3\svrt_images\generated_images\results_problem_12\sample_1_0012.png,C:\Users\subject\Desktop\SVRT Experiments\SVRT Experiment 3\svrt_images\generated_images\results_problem_3\sample_0_0004.png,C:\Users\subject\Desktop\SVRT Experiments\SVRT Experiment 3\svrt_images\generated_images\results_problem_13\sample_1_0010.png,,,,,,,,,,,,,,,,,,,,,0,2,2,2,0,15,15,15,,,,,,,,,,,,,,f,13,A,A,26,1,Correct!,0.7563981000275817,235.7870213999995,None,235.7870213999995,None,236.57091290000244,None,,,,,104,001,2023-10-06_15h28.20.245,uncolored_sorted,2021.2.3,59.941113847963656,
C:\Users\subject\Desktop\SVRT Experiments\SVRT Experiment 3\svrt_images\generated_images\results_problem_13,C:\Users\subject\Desktop\SVRT Experiments\SVRT Experiment 3\svrt_images\generated_images\results_problem_12\sample_1_0012.png,C:\Users\subject\Desktop\SVRT Experiments\SVRT Experiment 3\svrt_images\generated_images\results_problem_3\sample_0_0004.png,C:\Users\subject\Desktop\SVRT Experiments\SVRT Experiment 3\svrt_images\generated_images\results_problem_13\sample_1_0014.png,,,,,,,,,,,,,,,,,,,,,0,2,2,2,0,16,16,16,,,,,,,,,,,,,,j,13,B,A,26,0,Incorrect!,1.0462811999896076,237.70512249998865,None,237.70512249998865,None,238.77257239999017,None,,,,,104,001,2023-10-06_15h28.20.245,uncolored_sorted,2021.2.3,59.941113847963656,
C:\Users\subject\Desktop\SVRT Experiments\SVRT Experiment 3\svrt_images\generated_images\results_problem_13,C:\Users\subject\Desktop\SVRT Experiments\SVRT Experiment 3\svrt_images\generated_images\results_problem_12\sample_1_0012.png,C:\Users\subject\Desktop\SVRT Experiments\SVRT Experiment 3\svrt_images\generated_images\results_problem_3\sample_0_0004.png,C:\Users\subject\Desktop\SVRT Experiments\SVRT Experiment 3\svrt_images\generated_images\results_problem_13\sample_0_0006.png,,,,,,,,,,,,,,,,,,,,,0,2,2,2,0,17,17,17,,,,,,,,,,,,,,j,13,B,B,26,1,Correct!,8.635841599985724,239.92347099998733,None,239.92347099998733,None,248.57999470000505,None,,,,,104,001,2023-10-06_15h28.20.245,uncolored_sorted,2021.2.3,59.941113847963656,
C:\Users\subject\Desktop\SVRT Experiments\SVRT Experiment 3\svrt_images\generated_images\results_problem_13,C:\Users\subject\Desktop\SVRT Experiments\SVRT Experiment 3\svrt_images\generated_images\results_problem_12\sample_1_0012.png,C:\Users\subject\Desktop\SVRT Experiments\SVRT Experiment 3\svrt_images\generated_images\results_problem_3\sample_0_0004.png,C:\Users\subject\Desktop\SVRT Experiments\SVRT Experiment 3\svrt_images\generated_images\results_problem_13\sample_0_0014.png,,,,,,,,,,,,,,,,,,,,,0,2,2,2,0,18,18,18,,,,,,,,,,,,,,j,13,B,B,26,1,Correct!,1.0364898999978323,249.73085950000677,None,249.73085950000677,None,250.81500770000275,None,,,,,104,001,2023-10-06_15h28.20.245,uncolored_sorted,2021.2.3,59.941113847963656,
C:\Users\subject\Desktop\SVRT Experiments\SVRT Experiment 3\svrt_images\generated_images\results_problem_13,C:\Users\subject\Desktop\SVRT Experiments\SVRT Experiment 3\svrt_images\generated_images\results_problem_12\sample_1_0012.png,C:\Users\subject\Desktop\SVRT Experiments\SVRT Experiment 3\svrt_images\generated_images\results_problem_3\sample_0_0004.png,C:\Users\subject\Desktop\SVRT Experiments\SVRT Experiment 3\svrt_images\generated_images\results_problem_13\sample_0_0016.png,,,,,,,,,,,,,,,,,,,,,0,2,2,2,0,19,19,19,,,,,,,,,,,,,,j,13,B,B,26,1,Correct!,0.8647471999865957,251.98255799998879,None,251.98255799998879,None,252.86653440000373,None,,,,,104,001,2023-10-06_15h28.20.245,uncolored_sorted,2021.2.3,59.941113847963656,
C:\Users\subject\Desktop\SVRT Experiments\SVRT Experiment 3\svrt_images\generated_images\results_problem_13,C:\Users\subject\Desktop\SVRT Experiments\SVRT Experiment 3\svrt_images\generated_images\results_problem_12\sample_1_0012.png,C:\Users\subject\Desktop\SVRT Experiments\SVRT Experiment 3\svrt_images\generated_images\results_problem_3\sample_0_0004.png,C:\Users\subject\Desktop\SVRT Experiments\SVRT Experiment 3\svrt_images\generated_images\results_problem_13\sample_0_0000.png,,,,,,,,,,,,,,,,,,,,,0,2,2,2,0,20,20,20,,,,,,,,,,,,,,j,13,B,B,26,1,Correct!,0.7884945000114385,254.05078879999928,None,254.05078879999928,None,254.86803370001144,None,,,,,104,001,2023-10-06_15h28.20.245,uncolored_sorted,2021.2.3,59.941113847963656,
C:\Users\subject\Desktop\SVRT Experiments\SVRT Experiment 3\svrt_images\generated_images\results_problem_13,C:\Users\subject\Desktop\SVRT Experiments\SVRT Experiment 3\svrt_images\generated_images\results_problem_12\sample_1_0012.png,C:\Users\subject\Desktop\SVRT Experiments\SVRT Experiment 3\svrt_images\generated_images\results_problem_3\sample_0_0004.png,C:\Users\subject\Desktop\SVRT Experiments\SVRT Experiment 3\svrt_images\generated_images\results_problem_13\sample_1_0001.png,,,,,,,,,,,,,,,,,,,,,0,2,2,2,0,21,21,21,,,,,,,,,,,,,,f,13,A,A,26,1,Correct!,1.203102100000251,256.0522963999829,None,256.0522963999829,None,257.3032329999842,None,,,,,104,001,2023-10-06_15h28.20.245,uncolored_sorted,2021.2.3,59.941113847963656,
C:\Users\subject\Desktop\SVRT Experiments\SVRT Experiment 3\svrt_images\generated_images\results_problem_13,C:\Users\subject\Desktop\SVRT Experiments\SVRT Experiment 3\svrt_images\generated_images\results_problem_12\sample_1_0012.png,C:\Users\subject\Desktop\SVRT Experiments\SVRT Experiment 3\svrt_images\generated_images\results_problem_3\sample_0_0004.png,C:\Users\subject\Desktop\SVRT Experiments\SVRT Experiment 3\svrt_images\generated_images\results_problem_13\sample_1_0006.png,,,,,,,,,,,,,,,,,,,,,0,2,2,2,0,22,22,22,,,,,,,,,,,,,,f,13,A,A,26,1,Correct!,1.9191372000204865,258.5041468999989,None,258.5041468999989,None,260.45561949998955,None,,,,,104,001,2023-10-06_15h28.20.245,uncolored_sorted,2021.2.3,59.941113847963656,
C:\Users\subject\Desktop\SVRT Experiments\SVRT Experiment 3\svrt_images\generated_images\results_problem_13,C:\Users\subject\Desktop\SVRT Experiments\SVRT Experiment 3\svrt_images\generated_images\results_problem_12\sample_1_0012.png,C:\Users\subject\Desktop\SVRT Experiments\SVRT Experiment 3\svrt_images\generated_images\results_problem_3\sample_0_0004.png,C:\Users\subject\Desktop\SVRT Experiments\SVRT Experiment 3\svrt_images\generated_images\results_problem_13\sample_0_0013.png,,,,,,,,,,,,,,,,,,,,,0,2,2,2,0,23,23,23,,,,,,,,,,,,,,j,13,B,B,26,1,Correct!,2.41466519999085,261.6565171999973,None,261.6565171999973,None,264.10834440001054,None,,,,,104,001,2023-10-06_15h28.20.245,uncolored_sorted,2021.2.3,59.941113847963656,
C:\Users\subject\Desktop\SVRT Experiments\SVRT Experiment 3\svrt_images\generated_images\results_problem_13,C:\Users\subject\Desktop\SVRT Experiments\SVRT Experiment 3\svrt_images\generated_images\results_problem_12\sample_1_0012.png,C:\Users\subject\Desktop\SVRT Experiments\SVRT Experiment 3\svrt_images\generated_images\results_problem_3\sample_0_0004.png,C:\Users\subject\Desktop\SVRT Experiments\SVRT Experiment 3\svrt_images\generated_images\results_problem_13\sample_0_0003.png,,,,,,,,,,,,,,,,,,,,,0,2,2,2,0,24,24,24,,,,,,,,,,,,,,,,,,,,,,,,,,,,265.10909700000775,265.10909700000775,space,1.090091999998549,104,001,2023-10-06_15h28.20.245,uncolored_sorted,2021.2.3,59.941113847963656,
C:\Users\subject\Desktop\SVRT Experiments\SVRT Experiment 3\svrt_images\generated_images\results_problem_18,C:\Users\subject\Desktop\SVRT Experiments\SVRT Experiment 3\svrt_images\generated_images\results_problem_12\sample_1_0012.png,C:\Users\subject\Desktop\SVRT Experiments\SVRT Experiment 3\svrt_images\generated_images\results_problem_3\sample_0_0004.png,C:\Users\subject\Desktop\SVRT Experiments\SVRT Experiment 3\svrt_images\generated_images\results_problem_13\sample_0_0003.png,C:\Users\subject\Desktop\SVRT Experiments\SVRT Experiment 3\svrt_images\generated_images\results_problem_18\sample_1_0008.png,,,,,,,,,,,,,,,,,,,,0,3,3,3,0,0,0,0,,,,,,,,,,,,,,f,18,A,A,26,1,Correct!,1.1726002999930643,266.226625100011,None,266.226625100011,None,267.4275246000034,None,,,,,104,001,2023-10-06_15h28.20.245,uncolored_sorted,2021.2.3,59.941113847963656,
C:\Users\subject\Desktop\SVRT Experiments\SVRT Experiment 3\svrt_images\generated_images\results_problem_18,C:\Users\subject\Desktop\SVRT Experiments\SVRT Experiment 3\svrt_images\generated_images\results_problem_12\sample_1_0012.png,C:\Users\subject\Desktop\SVRT Experiments\SVRT Experiment 3\svrt_images\generated_images\results_problem_3\sample_0_0004.png,C:\Users\subject\Desktop\SVRT Experiments\SVRT Experiment 3\svrt_images\generated_images\results_problem_13\sample_0_0003.png,C:\Users\subject\Desktop\SVRT Experiments\SVRT Experiment 3\svrt_images\generated_images\results_problem_18\sample_0_0007.png,,,,,,,,,,,,,,,,,,,,0,3,3,3,0,1,1,1,,,,,,,,,,,,,,j,18,B,B,26,1,Correct!,2.5149088999896776,268.42828739999095,None,268.42828739999095,None,270.96352980000665,None,,,,,104,001,2023-10-06_15h28.20.245,uncolored_sorted,2021.2.3,59.941113847963656,
C:\Users\subject\Desktop\SVRT Experiments\SVRT Experiment 3\svrt_images\generated_images\results_problem_18,C:\Users\subject\Desktop\SVRT Experiments\SVRT Experiment 3\svrt_images\generated_images\results_problem_12\sample_1_0012.png,C:\Users\subject\Desktop\SVRT Experiments\SVRT Experiment 3\svrt_images\generated_images\results_problem_3\sample_0_0004.png,C:\Users\subject\Desktop\SVRT Experiments\SVRT Experiment 3\svrt_images\generated_images\results_problem_13\sample_0_0003.png,C:\Users\subject\Desktop\SVRT Experiments\SVRT Experiment 3\svrt_images\generated_images\results_problem_18\sample_1_0013.png,,,,,,,,,,,,,,,,,,,,0,3,3,3,0,2,2,2,,,,,,,,,,,,,,f,18,A,A,26,1,Correct!,2.5062511999858543,271.98092989998986,None,271.98092989998986,None,274.516209399997,None,,,,,104,001,2023-10-06_15h28.20.245,uncolored_sorted,2021.2.3,59.941113847963656,
C:\Users\subject\Desktop\SVRT Experiments\SVRT Experiment 3\svrt_images\generated_images\results_problem_18,C:\Users\subject\Desktop\SVRT Experiments\SVRT Experiment 3\svrt_images\generated_images\results_problem_12\sample_1_0012.png,C:\Users\subject\Desktop\SVRT Experiments\SVRT Experiment 3\svrt_images\generated_images\results_problem_3\sample_0_0004.png,C:\Users\subject\Desktop\SVRT Experiments\SVRT Experiment 3\svrt_images\generated_images\results_problem_13\sample_0_0003.png,C:\Users\subject\Desktop\SVRT Experiments\SVRT Experiment 3\svrt_images\generated_images\results_problem_18\sample_1_0010.png,,,,,,,,,,,,,,,,,,,,0,3,3,3,0,3,3,3,,,,,,,,,,,,,,f,18,A,A,26,1,Correct!,4.528194699989399,275.53491240000585,None,275.53491240000585,None,280.087076900003,None,,,,,104,001,2023-10-06_15h28.20.245,uncolored_sorted,2021.2.3,59.941113847963656,
C:\Users\subject\Desktop\SVRT Experiments\SVRT Experiment 3\svrt_images\generated_images\results_problem_18,C:\Users\subject\Desktop\SVRT Experiments\SVRT Experiment 3\svrt_images\generated_images\results_problem_12\sample_1_0012.png,C:\Users\subject\Desktop\SVRT Experiments\SVRT Experiment 3\svrt_images\generated_images\results_problem_3\sample_0_0004.png,C:\Users\subject\Desktop\SVRT Experiments\SVRT Experiment 3\svrt_images\generated_images\results_problem_13\sample_0_0003.png,C:\Users\subject\Desktop\SVRT Experiments\SVRT Experiment 3\svrt_images\generated_images\results_problem_18\sample_0_0010.png,,,,,,,,,,,,,,,,,,,,0,3,3,3,0,4,4,4,,,,,,,,,,,,,,j,18,B,B,26,1,Correct!,1.1019367999979295,281.12115419999463,None,281.12115419999463,None,282.2553750000079,None,,,,,104,001,2023-10-06_15h28.20.245,uncolored_sorted,2021.2.3,59.941113847963656,
C:\Users\subject\Desktop\SVRT Experiments\SVRT Experiment 3\svrt_images\generated_images\results_problem_18,C:\Users\subject\Desktop\SVRT Experiments\SVRT Experiment 3\svrt_images\generated_images\results_problem_12\sample_1_0012.png,C:\Users\subject\Desktop\SVRT Experiments\SVRT Experiment 3\svrt_images\generated_images\results_problem_3\sample_0_0004.png,C:\Users\subject\Desktop\SVRT Experiments\SVRT Experiment 3\svrt_images\generated_images\results_problem_13\sample_0_0003.png,C:\Users\subject\Desktop\SVRT Experiments\SVRT Experiment 3\svrt_images\generated_images\results_problem_18\sample_1_0014.png,,,,,,,,,,,,,,,,,,,,0,3,3,3,0,5,5,5,,,,,,,,,,,,,,f,18,A,A,26,1,Correct!,3.469594900001539,283.28945509999176,None,283.28945509999176,None,286.79211119998945,None,,,,,104,001,2023-10-06_15h28.20.245,uncolored_sorted,2021.2.3,59.941113847963656,
C:\Users\subject\Desktop\SVRT Experiments\SVRT Experiment 3\svrt_images\generated_images\results_problem_18,C:\Users\subject\Desktop\SVRT Experiments\SVRT Experiment 3\svrt_images\generated_images\results_problem_12\sample_1_0012.png,C:\Users\subject\Desktop\SVRT Experiments\SVRT Experiment 3\svrt_images\generated_images\results_problem_3\sample_0_0004.png,C:\Users\subject\Desktop\SVRT Experiments\SVRT Experiment 3\svrt_images\generated_images\results_problem_13\sample_0_0003.png,C:\Users\subject\Desktop\SVRT Experiments\SVRT Experiment 3\svrt_images\generated_images\results_problem_18\sample_0_0001.png,,,,,,,,,,,,,,,,,,,,0,3,3,3,0,6,6,6,,,,,,,,,,,,,,j,18,B,B,26,1,Correct!,1.204160299996147,287.8428928999929,None,287.8428928999929,None,289.0771819000074,None,,,,,104,001,2023-10-06_15h28.20.245,uncolored_sorted,2021.2.3,59.941113847963656,
C:\Users\subject\Desktop\SVRT Experiments\SVRT Experiment 3\svrt_images\generated_images\results_problem_18,C:\Users\subject\Desktop\SVRT Experiments\SVRT Experiment 3\svrt_images\generated_images\results_problem_12\sample_1_0012.png,C:\Users\subject\Desktop\SVRT Experiments\SVRT Experiment 3\svrt_images\generated_images\results_problem_3\sample_0_0004.png,C:\Users\subject\Desktop\SVRT Experiments\SVRT Experiment 3\svrt_images\generated_images\results_problem_13\sample_0_0003.png,C:\Users\subject\Desktop\SVRT Experiments\SVRT Experiment 3\svrt_images\generated_images\results_problem_18\sample_0_0014.png,,,,,,,,,,,,,,,,,,,,0,3,3,3,0,7,7,7,,,,,,,,,,,,,,,,,,,,,,,,,,,,290.07792330000666,290.07792330000666,space,0.8090993000078015,104,001,2023-10-06_15h28.20.245,uncolored_sorted,2021.2.3,59.941113847963656,
C:\Users\subject\Desktop\SVRT Experiments\SVRT Experiment 3\svrt_images\generated_images\results_problem_7,C:\Users\subject\Desktop\SVRT Experiments\SVRT Experiment 3\svrt_images\generated_images\results_problem_12\sample_1_0012.png,C:\Users\subject\Desktop\SVRT Experiments\SVRT Experiment 3\svrt_images\generated_images\results_problem_3\sample_0_0004.png,C:\Users\subject\Desktop\SVRT Experiments\SVRT Experiment 3\svrt_images\generated_images\results_problem_13\sample_0_0003.png,C:\Users\subject\Desktop\SVRT Experiments\SVRT Experiment 3\svrt_images\generated_images\results_problem_18\sample_0_0014.png,C:\Users\subject\Desktop\SVRT Experiments\SVRT Experiment 3\svrt_images\generated_images\results_problem_7\sample_0_0008.png,,,,,,,,,,,,,,,,,,,0,4,4,4,0,0,0,0,,,,,,,,,,,,,,f,7,A,B,26,0,Incorrect!,1.159148600010667,290.9119068,None,290.9119068,None,292.09613220000756,None,,,,,104,001,2023-10-06_15h28.20.245,uncolored_sorted,2021.2.3,59.941113847963656,
C:\Users\subject\Desktop\SVRT Experiments\SVRT Experiment 3\svrt_images\generated_images\results_problem_7,C:\Users\subject\Desktop\SVRT Experiments\SVRT Experiment 3\svrt_images\generated_images\results_problem_12\sample_1_0012.png,C:\Users\subject\Desktop\SVRT Experiments\SVRT Experiment 3\svrt_images\generated_images\results_problem_3\sample_0_0004.png,C:\Users\subject\Desktop\SVRT Experiments\SVRT Experiment 3\svrt_images\generated_images\results_problem_13\sample_0_0003.png,C:\Users\subject\Desktop\SVRT Experiments\SVRT Experiment 3\svrt_images\generated_images\results_problem_18\sample_0_0014.png,C:\Users\subject\Desktop\SVRT Experiments\SVRT Experiment 3\svrt_images\generated_images\results_problem_7\sample_1_0007.png,,,,,,,,,,,,,,,,,,,0,4,4,4,0,1,1,1,,,,,,,,,,,,,,f,7,A,A,26,1,Correct!,3.086182300001383,293.09684549999656,None,293.09684549999656,None,296.2159069000045,None,,,,,104,001,2023-10-06_15h28.20.245,uncolored_sorted,2021.2.3,59.941113847963656,
C:\Users\subject\Desktop\SVRT Experiments\SVRT Experiment 3\svrt_images\generated_images\results_problem_7,C:\Users\subject\Desktop\SVRT Experiments\SVRT Experiment 3\svrt_images\generated_images\results_problem_12\sample_1_0012.png,C:\Users\subject\Desktop\SVRT Experiments\SVRT Experiment 3\svrt_images\generated_images\results_problem_3\sample_0_0004.png,C:\Users\subject\Desktop\SVRT Experiments\SVRT Experiment 3\svrt_images\generated_images\results_problem_13\sample_0_0003.png,C:\Users\subject\Desktop\SVRT Experiments\SVRT Experiment 3\svrt_images\generated_images\results_problem_18\sample_0_0014.png,C:\Users\subject\Desktop\SVRT Experiments\SVRT Experiment 3\svrt_images\generated_images\results_problem_7\sample_1_0016.png,,,,,,,,,,,,,,,,,,,0,4,4,4,0,2,2,2,,,,,,,,,,,,,,j,7,B,A,26,0,Incorrect!,3.597633900004439,297.2333287000074,None,297.2333287000074,None,300.85271159998956,None,,,,,104,001,2023-10-06_15h28.20.245,uncolored_sorted,2021.2.3,59.941113847963656,
C:\Users\subject\Desktop\SVRT Experiments\SVRT Experiment 3\svrt_images\generated_images\results_problem_7,C:\Users\subject\Desktop\SVRT Experiments\SVRT Experiment 3\svrt_images\generated_images\results_problem_12\sample_1_0012.png,C:\Users\subject\Desktop\SVRT Experiments\SVRT Experiment 3\svrt_images\generated_images\results_problem_3\sample_0_0004.png,C:\Users\subject\Desktop\SVRT Experiments\SVRT Experiment 3\svrt_images\generated_images\results_problem_13\sample_0_0003.png,C:\Users\subject\Desktop\SVRT Experiments\SVRT Experiment 3\svrt_images\generated_images\results_problem_18\sample_0_0014.png,C:\Users\subject\Desktop\SVRT Experiments\SVRT Experiment 3\svrt_images\generated_images\results_problem_7\sample_0_0016.png,,,,,,,,,,,,,,,,,,,0,4,4,4,0,3,3,3,,,,,,,,,,,,,,f,7,A,B,26,0,Incorrect!,2.1128127000120003,301.8701286999858,None,301.8701286999858,None,304.0050879000046,None,,,,,104,001,2023-10-06_15h28.20.245,uncolored_sorted,2021.2.3,59.941113847963656,
C:\Users\subject\Desktop\SVRT Experiments\SVRT Experiment 3\svrt_images\generated_images\results_problem_7,C:\Users\subject\Desktop\SVRT Experiments\SVRT Experiment 3\svrt_images\generated_images\results_problem_12\sample_1_0012.png,C:\Users\subject\Desktop\SVRT Experiments\SVRT Experiment 3\svrt_images\generated_images\results_problem_3\sample_0_0004.png,C:\Users\subject\Desktop\SVRT Experiments\SVRT Experiment 3\svrt_images\generated_images\results_problem_13\sample_0_0003.png,C:\Users\subject\Desktop\SVRT Experiments\SVRT Experiment 3\svrt_images\generated_images\results_problem_18\sample_0_0014.png,C:\Users\subject\Desktop\SVRT Experiments\SVRT Experiment 3\svrt_images\generated_images\results_problem_7\sample_0_0000.png,,,,,,,,,,,,,,,,,,,0,4,4,4,0,4,4,4,,,,,,,,,,,,,,j,7,B,B,26,1,Correct!,0.94384279998485,305.03918399999384,None,305.03918399999384,None,306.006598100008,None,,,,,104,001,2023-10-06_15h28.20.245,uncolored_sorted,2021.2.3,59.941113847963656,
C:\Users\subject\Desktop\SVRT Experiments\SVRT Experiment 3\svrt_images\generated_images\results_problem_7,C:\Users\subject\Desktop\SVRT Experiments\SVRT Experiment 3\svrt_images\generated_images\results_problem_12\sample_1_0012.png,C:\Users\subject\Desktop\SVRT Experiments\SVRT Experiment 3\svrt_images\generated_images\results_problem_3\sample_0_0004.png,C:\Users\subject\Desktop\SVRT Experiments\SVRT Experiment 3\svrt_images\generated_images\results_problem_13\sample_0_0003.png,C:\Users\subject\Desktop\SVRT Experiments\SVRT Experiment 3\svrt_images\generated_images\results_problem_18\sample_0_0014.png,C:\Users\subject\Desktop\SVRT Experiments\SVRT Experiment 3\svrt_images\generated_images\results_problem_7\sample_0_0015.png,,,,,,,,,,,,,,,,,,,0,4,4,4,0,5,5,5,,,,,,,,,,,,,,j,7,B,B,26,1,Correct!,2.022177200007718,307.04073479998624,None,307.04073479998624,None,309.0922566000081,None,,,,,104,001,2023-10-06_15h28.20.245,uncolored_sorted,2021.2.3,59.941113847963656,
C:\Users\subject\Desktop\SVRT Experiments\SVRT Experiment 3\svrt_images\generated_images\results_problem_7,C:\Users\subject\Desktop\SVRT Experiments\SVRT Experiment 3\svrt_images\generated_images\results_problem_12\sample_1_0012.png,C:\Users\subject\Desktop\SVRT Experiments\SVRT Experiment 3\svrt_images\generated_images\results_problem_3\sample_0_0004.png,C:\Users\subject\Desktop\SVRT Experiments\SVRT Experiment 3\svrt_images\generated_images\results_problem_13\sample_0_0003.png,C:\Users\subject\Desktop\SVRT Experiments\SVRT Experiment 3\svrt_images\generated_images\results_problem_18\sample_0_0014.png,C:\Users\subject\Desktop\SVRT Experiments\SVRT Experiment 3\svrt_images\generated_images\results_problem_7\sample_1_0008.png,,,,,,,,,,,,,,,,,,,0,4,4,4,0,6,6,6,,,,,,,,,,,,,,f,7,A,A,26,1,Correct!,5.495829499996034,310.1430363999971,None,310.1430363999971,None,315.6638896999939,None,,,,,104,001,2023-10-06_15h28.20.245,uncolored_sorted,2021.2.3,59.941113847963656,
C:\Users\subject\Desktop\SVRT Experiments\SVRT Experiment 3\svrt_images\generated_images\results_problem_7,C:\Users\subject\Desktop\SVRT Experiments\SVRT Experiment 3\svrt_images\generated_images\results_problem_12\sample_1_0012.png,C:\Users\subject\Desktop\SVRT Experiments\SVRT Experiment 3\svrt_images\generated_images\results_problem_3\sample_0_0004.png,C:\Users\subject\Desktop\SVRT Experiments\SVRT Experiment 3\svrt_images\generated_images\results_problem_13\sample_0_0003.png,C:\Users\subject\Desktop\SVRT Experiments\SVRT Experiment 3\svrt_images\generated_images\results_problem_18\sample_0_0014.png,C:\Users\subject\Desktop\SVRT Experiments\SVRT Experiment 3\svrt_images\generated_images\results_problem_7\sample_1_0005.png,,,,,,,,,,,,,,,,,,,0,4,4,4,0,7,7,7,,,,,,,,,,,,,,f,7,A,A,26,1,Correct!,1.9482311999890953,316.71465919999173,None,316.71465919999173,None,318.6828394999902,None,,,,,104,001,2023-10-06_15h28.20.245,uncolored_sorted,2021.2.3,59.941113847963656,
C:\Users\subject\Desktop\SVRT Experiments\SVRT Experiment 3\svrt_images\generated_images\results_problem_7,C:\Users\subject\Desktop\SVRT Experiments\SVRT Experiment 3\svrt_images\generated_images\results_problem_12\sample_1_0012.png,C:\Users\subject\Desktop\SVRT Experiments\SVRT Experiment 3\svrt_images\generated_images\results_problem_3\sample_0_0004.png,C:\Users\subject\Desktop\SVRT Experiments\SVRT Experiment 3\svrt_images\generated_images\results_problem_13\sample_0_0003.png,C:\Users\subject\Desktop\SVRT Experiments\SVRT Experiment 3\svrt_images\generated_images\results_problem_18\sample_0_0014.png,C:\Users\subject\Desktop\SVRT Experiments\SVRT Experiment 3\svrt_images\generated_images\results_problem_7\sample_0_0011.png,,,,,,,,,,,,,,,,,,,0,4,4,4,0,8,8,8,,,,,,,,,,,,,,f,7,A,B,26,0,Incorrect!,1.0085641000187024,319.75027210000553,None,319.75027210000553,None,320.784428199986,None,,,,,104,001,2023-10-06_15h28.20.245,uncolored_sorted,2021.2.3,59.941113847963656,
C:\Users\subject\Desktop\SVRT Experiments\SVRT Experiment 3\svrt_images\generated_images\results_problem_7,C:\Users\subject\Desktop\SVRT Experiments\SVRT Experiment 3\svrt_images\generated_images\results_problem_12\sample_1_0012.png,C:\Users\subject\Desktop\SVRT Experiments\SVRT Experiment 3\svrt_images\generated_images\results_problem_3\sample_0_0004.png,C:\Users\subject\Desktop\SVRT Experiments\SVRT Experiment 3\svrt_images\generated_images\results_problem_13\sample_0_0003.png,C:\Users\subject\Desktop\SVRT Experiments\SVRT Experiment 3\svrt_images\generated_images\results_problem_18\sample_0_0014.png,C:\Users\subject\Desktop\SVRT Experiments\SVRT Experiment 3\svrt_images\generated_images\results_problem_7\sample_0_0001.png,,,,,,,,,,,,,,,,,,,0,4,4,4,0,9,9,9,,,,,,,,,,,,,,f,7,A,B,26,0,Incorrect!,4.826969100016868,321.8519077000092,None,321.8519077000092,None,326.7055565000046,None,,,,,104,001,2023-10-06_15h28.20.245,uncolored_sorted,2021.2.3,59.941113847963656,
C:\Users\subject\Desktop\SVRT Experiments\SVRT Experiment 3\svrt_images\generated_images\results_problem_7,C:\Users\subject\Desktop\SVRT Experiments\SVRT Experiment 3\svrt_images\generated_images\results_problem_12\sample_1_0012.png,C:\Users\subject\Desktop\SVRT Experiments\SVRT Experiment 3\svrt_images\generated_images\results_problem_3\sample_0_0004.png,C:\Users\subject\Desktop\SVRT Experiments\SVRT Experiment 3\svrt_images\generated_images\results_problem_13\sample_0_0003.png,C:\Users\subject\Desktop\SVRT Experiments\SVRT Experiment 3\svrt_images\generated_images\results_problem_18\sample_0_0014.png,C:\Users\subject\Desktop\SVRT Experiments\SVRT Experiment 3\svrt_images\generated_images\results_problem_7\sample_1_0002.png,,,,,,,,,,,,,,,,,,,0,4,4,4,0,10,10,10,,,,,,,,,,,,,,j,7,B,A,26,0,Incorrect!,1.5451287000032607,327.789672599989,None,327.789672599989,None,329.35756020000554,None,,,,,104,001,2023-10-06_15h28.20.245,uncolored_sorted,2021.2.3,59.941113847963656,
C:\Users\subject\Desktop\SVRT Experiments\SVRT Experiment 3\svrt_images\generated_images\results_problem_7,C:\Users\subject\Desktop\SVRT Experiments\SVRT Experiment 3\svrt_images\generated_images\results_problem_12\sample_1_0012.png,C:\Users\subject\Desktop\SVRT Experiments\SVRT Experiment 3\svrt_images\generated_images\results_problem_3\sample_0_0004.png,C:\Users\subject\Desktop\SVRT Experiments\SVRT Experiment 3\svrt_images\generated_images\results_problem_13\sample_0_0003.png,C:\Users\subject\Desktop\SVRT Experiments\SVRT Experiment 3\svrt_images\generated_images\results_problem_18\sample_0_0014.png,C:\Users\subject\Desktop\SVRT Experiments\SVRT Experiment 3\svrt_images\generated_images\results_problem_7\sample_1_0009.png,,,,,,,,,,,,,,,,,,,0,4,4,4,0,11,11,11,,,,,,,,,,,,,,f,7,A,A,26,1,Correct!,3.333050800021738,330.44167110000853,None,330.44167110000853,None,333.79421570000704,None,,,,,104,001,2023-10-06_15h28.20.245,uncolored_sorted,2021.2.3,59.941113847963656,
C:\Users\subject\Desktop\SVRT Experiments\SVRT Experiment 3\svrt_images\generated_images\results_problem_7,C:\Users\subject\Desktop\SVRT Experiments\SVRT Experiment 3\svrt_images\generated_images\results_problem_12\sample_1_0012.png,C:\Users\subject\Desktop\SVRT Experiments\SVRT Experiment 3\svrt_images\generated_images\results_problem_3\sample_0_0004.png,C:\Users\subject\Desktop\SVRT Experiments\SVRT Experiment 3\svrt_images\generated_images\results_problem_13\sample_0_0003.png,C:\Users\subject\Desktop\SVRT Experiments\SVRT Experiment 3\svrt_images\generated_images\results_problem_18\sample_0_0014.png,C:\Users\subject\Desktop\SVRT Experiments\SVRT Experiment 3\svrt_images\generated_images\results_problem_7\sample_1_0003.png,,,,,,,,,,,,,,,,,,,0,4,4,4,0,12,12,12,,,,,,,,,,,,,,f,7,A,A,26,1,Correct!,1.9919787000108045,334.8950334999827,None,334.8950334999827,None,336.9132496000093,None,,,,,104,001,2023-10-06_15h28.20.245,uncolored_sorted,2021.2.3,59.941113847963656,
C:\Users\subject\Desktop\SVRT Experiments\SVRT Experiment 3\svrt_images\generated_images\results_problem_7,C:\Users\subject\Desktop\SVRT Experiments\SVRT Experiment 3\svrt_images\generated_images\results_problem_12\sample_1_0012.png,C:\Users\subject\Desktop\SVRT Experiments\SVRT Experiment 3\svrt_images\generated_images\results_problem_3\sample_0_0004.png,C:\Users\subject\Desktop\SVRT Experiments\SVRT Experiment 3\svrt_images\generated_images\results_problem_13\sample_0_0003.png,C:\Users\subject\Desktop\SVRT Experiments\SVRT Experiment 3\svrt_images\generated_images\results_problem_18\sample_0_0014.png,C:\Users\subject\Desktop\SVRT Experiments\SVRT Experiment 3\svrt_images\generated_images\results_problem_7\sample_1_0010.png,,,,,,,,,,,,,,,,,,,0,4,4,4,0,13,13,13,,,,,,,,,,,,,,j,7,B,A,26,0,Incorrect!,7.73664839999401,338.0140521999856,None,338.0140521999856,None,345.7699303999834,None,,,,,104,001,2023-10-06_15h28.20.245,uncolored_sorted,2021.2.3,59.941113847963656,
C:\Users\subject\Desktop\SVRT Experiments\SVRT Experiment 3\svrt_images\generated_images\results_problem_7,C:\Users\subject\Desktop\SVRT Experiments\SVRT Experiment 3\svrt_images\generated_images\results_problem_12\sample_1_0012.png,C:\Users\subject\Desktop\SVRT Experiments\SVRT Experiment 3\svrt_images\generated_images\results_problem_3\sample_0_0004.png,C:\Users\subject\Desktop\SVRT Experiments\SVRT Experiment 3\svrt_images\generated_images\results_problem_13\sample_0_0003.png,C:\Users\subject\Desktop\SVRT Experiments\SVRT Experiment 3\svrt_images\generated_images\results_problem_18\sample_0_0014.png,C:\Users\subject\Desktop\SVRT Experiments\SVRT Experiment 3\svrt_images\generated_images\results_problem_7\sample_0_0009.png,,,,,,,,,,,,,,,,,,,0,4,4,4,0,14,14,14,,,,,,,,,,,,,,j,7,B,B,26,1,Correct!,3.287160599982599,346.88744799999404,None,346.88744799999404,None,350.2065712999902,None,,,,,104,001,2023-10-06_15h28.20.245,uncolored_sorted,2021.2.3,59.941113847963656,
C:\Users\subject\Desktop\SVRT Experiments\SVRT Experiment 3\svrt_images\generated_images\results_problem_7,C:\Users\subject\Desktop\SVRT Experiments\SVRT Experiment 3\svrt_images\generated_images\results_problem_12\sample_1_0012.png,C:\Users\subject\Desktop\SVRT Experiments\SVRT Experiment 3\svrt_images\generated_images\results_problem_3\sample_0_0004.png,C:\Users\subject\Desktop\SVRT Experiments\SVRT Experiment 3\svrt_images\generated_images\results_problem_13\sample_0_0003.png,C:\Users\subject\Desktop\SVRT Experiments\SVRT Experiment 3\svrt_images\generated_images\results_problem_18\sample_0_0014.png,C:\Users\subject\Desktop\SVRT Experiments\SVRT Experiment 3\svrt_images\generated_images\results_problem_7\sample_0_0004.png,,,,,,,,,,,,,,,,,,,0,4,4,4,0,15,15,15,,,,,,,,,,,,,,j,7,B,B,26,1,Correct!,3.9537902000010945,351.34080299999914,None,351.34080299999914,None,355.3271335999889,None,,,,,104,001,2023-10-06_15h28.20.245,uncolored_sorted,2021.2.3,59.941113847963656,
C:\Users\subject\Desktop\SVRT Experiments\SVRT Experiment 3\svrt_images\generated_images\results_problem_7,C:\Users\subject\Desktop\SVRT Experiments\SVRT Experiment 3\svrt_images\generated_images\results_problem_12\sample_1_0012.png,C:\Users\subject\Desktop\SVRT Experiments\SVRT Experiment 3\svrt_images\generated_images\results_problem_3\sample_0_0004.png,C:\Users\subject\Desktop\SVRT Experiments\SVRT Experiment 3\svrt_images\generated_images\results_problem_13\sample_0_0003.png,C:\Users\subject\Desktop\SVRT Experiments\SVRT Experiment 3\svrt_images\generated_images\results_problem_18\sample_0_0014.png,C:\Users\subject\Desktop\SVRT Experiments\SVRT Experiment 3\svrt_images\generated_images\results_problem_7\sample_0_0013.png,,,,,,,,,,,,,,,,,,,0,4,4,4,0,16,16,16,,,,,,,,,,,,,,f,7,A,B,26,0,Incorrect!,1.8892303999746218,356.46133140000165,None,356.46133140000165,None,358.37947889999487,None,,,,,104,001,2023-10-06_15h28.20.245,uncolored_sorted,2021.2.3,59.941113847963656,
C:\Users\subject\Desktop\SVRT Experiments\SVRT Experiment 3\svrt_images\generated_images\results_problem_7,C:\Users\subject\Desktop\SVRT Experiments\SVRT Experiment 3\svrt_images\generated_images\results_problem_12\sample_1_0012.png,C:\Users\subject\Desktop\SVRT Experiments\SVRT Experiment 3\svrt_images\generated_images\results_problem_3\sample_0_0004.png,C:\Users\subject\Desktop\SVRT Experiments\SVRT Experiment 3\svrt_images\generated_images\results_problem_13\sample_0_0003.png,C:\Users\subject\Desktop\SVRT Experiments\SVRT Experiment 3\svrt_images\generated_images\results_problem_18\sample_0_0014.png,C:\Users\subject\Desktop\SVRT Experiments\SVRT Experiment 3\svrt_images\generated_images\results_problem_7\sample_0_0012.png,,,,,,,,,,,,,,,,,,,0,4,4,4,0,17,17,17,,,,,,,,,,,,,,j,7,B,B,26,1,Correct!,3.70025659998646,359.53027419999125,None,359.53027419999125,None,363.2497510999965,None,,,,,104,001,2023-10-06_15h28.20.245,uncolored_sorted,2021.2.3,59.941113847963656,
C:\Users\subject\Desktop\SVRT Experiments\SVRT Experiment 3\svrt_images\generated_images\results_problem_7,C:\Users\subject\Desktop\SVRT Experiments\SVRT Experiment 3\svrt_images\generated_images\results_problem_12\sample_1_0012.png,C:\Users\subject\Desktop\SVRT Experiments\SVRT Experiment 3\svrt_images\generated_images\results_problem_3\sample_0_0004.png,C:\Users\subject\Desktop\SVRT Experiments\SVRT Experiment 3\svrt_images\generated_images\results_problem_13\sample_0_0003.png,C:\Users\subject\Desktop\SVRT Experiments\SVRT Experiment 3\svrt_images\generated_images\results_problem_18\sample_0_0014.png,C:\Users\subject\Desktop\SVRT Experiments\SVRT Experiment 3\svrt_images\generated_images\results_problem_7\sample_0_0005.png,,,,,,,,,,,,,,,,,,,0,4,4,4,0,18,18,18,,,,,,,,,,,,,,f,7,A,B,26,0,Incorrect!,2.1019472000189126,364.40061270000297,None,364.40061270000297,None,366.5522651000065,None,,,,,104,001,2023-10-06_15h28.20.245,uncolored_sorted,2021.2.3,59.941113847963656,
C:\Users\subject\Desktop\SVRT Experiments\SVRT Experiment 3\svrt_images\generated_images\results_problem_7,C:\Users\subject\Desktop\SVRT Experiments\SVRT Experiment 3\svrt_images\generated_images\results_problem_12\sample_1_0012.png,C:\Users\subject\Desktop\SVRT Experiments\SVRT Experiment 3\svrt_images\generated_images\results_problem_3\sample_0_0004.png,C:\Users\subject\Desktop\SVRT Experiments\SVRT Experiment 3\svrt_images\generated_images\results_problem_13\sample_0_0003.png,C:\Users\subject\Desktop\SVRT Experiments\SVRT Experiment 3\svrt_images\generated_images\results_problem_18\sample_0_0014.png,C:\Users\subject\Desktop\SVRT Experiments\SVRT Experiment 3\svrt_images\generated_images\results_problem_7\sample_0_0007.png,,,,,,,,,,,,,,,,,,,0,4,4,4,0,19,19,19,,,,,,,,,,,,,,j,7,B,B,26,1,Correct!,0.7026659999974072,367.7198153999925,None,367.7198153999925,None,368.4703799999843,None,,,,,104,001,2023-10-06_15h28.20.245,uncolored_sorted,2021.2.3,59.941113847963656,
C:\Users\subject\Desktop\SVRT Experiments\SVRT Experiment 3\svrt_images\generated_images\results_problem_7,C:\Users\subject\Desktop\SVRT Experiments\SVRT Experiment 3\svrt_images\generated_images\results_problem_12\sample_1_0012.png,C:\Users\subject\Desktop\SVRT Experiments\SVRT Experiment 3\svrt_images\generated_images\results_problem_3\sample_0_0004.png,C:\Users\subject\Desktop\SVRT Experiments\SVRT Experiment 3\svrt_images\generated_images\results_problem_13\sample_0_0003.png,C:\Users\subject\Desktop\SVRT Experiments\SVRT Experiment 3\svrt_images\generated_images\results_problem_18\sample_0_0014.png,C:\Users\subject\Desktop\SVRT Experiments\SVRT Experiment 3\svrt_images\generated_images\results_problem_7\sample_1_0014.png,,,,,,,,,,,,,,,,,,,0,4,4,4,0,20,20,20,,,,,,,,,,,,,,j,7,B,A,26,0,Incorrect!,0.5839064000174403,369.6546088999894,None,369.6546088999894,None,370.27174039999954,None,,,,,104,001,2023-10-06_15h28.20.245,uncolored_sorted,2021.2.3,59.941113847963656,
C:\Users\subject\Desktop\SVRT Experiments\SVRT Experiment 3\svrt_images\generated_images\results_problem_7,C:\Users\subject\Desktop\SVRT Experiments\SVRT Experiment 3\svrt_images\generated_images\results_problem_12\sample_1_0012.png,C:\Users\subject\Desktop\SVRT Experiments\SVRT Experiment 3\svrt_images\generated_images\results_problem_3\sample_0_0004.png,C:\Users\subject\Desktop\SVRT Experiments\SVRT Experiment 3\svrt_images\generated_images\results_problem_13\sample_0_0003.png,C:\Users\subject\Desktop\SVRT Experiments\SVRT Experiment 3\svrt_images\generated_images\results_problem_18\sample_0_0014.png,C:\Users\subject\Desktop\SVRT Experiments\SVRT Experiment 3\svrt_images\generated_images\results_problem_7\sample_0_0014.png,,,,,,,,,,,,,,,,,,,0,4,4,4,0,21,21,21,,,,,,,,,,,,,,j,7,B,B,26,1,Correct!,25.342367900011595,371.4559307000018,None,371.4559307000018,None,396.82508869998856,None,,,,,104,001,2023-10-06_15h28.20.245,uncolored_sorted,2021.2.3,59.941113847963656,
C:\Users\subject\Desktop\SVRT Experiments\SVRT Experiment 3\svrt_images\generated_images\results_problem_7,C:\Users\subject\Desktop\SVRT Experiments\SVRT Experiment 3\svrt_images\generated_images\results_problem_12\sample_1_0012.png,C:\Users\subject\Desktop\SVRT Experiments\SVRT Experiment 3\svrt_images\generated_images\results_problem_3\sample_0_0004.png,C:\Users\subject\Desktop\SVRT Experiments\SVRT Experiment 3\svrt_images\generated_images\results_problem_13\sample_0_0003.png,C:\Users\subject\Desktop\SVRT Experiments\SVRT Experiment 3\svrt_images\generated_images\results_problem_18\sample_0_0014.png,C:\Users\subject\Desktop\SVRT Experiments\SVRT Experiment 3\svrt_images\generated_images\results_problem_7\sample_1_0013.png,,,,,,,,,,,,,,,,,,,0,4,4,4,0,22,22,22,,,,,,,,,,,,,,j,7,B,A,26,0,Incorrect!,1.0603183999774046,398.02600129999337,None,398.02600129999337,None,399.11014330000035,None,,,,,104,001,2023-10-06_15h28.20.245,uncolored_sorted,2021.2.3,59.941113847963656,
C:\Users\subject\Desktop\SVRT Experiments\SVRT Experiment 3\svrt_images\generated_images\results_problem_7,C:\Users\subject\Desktop\SVRT Experiments\SVRT Experiment 3\svrt_images\generated_images\results_problem_12\sample_1_0012.png,C:\Users\subject\Desktop\SVRT Experiments\SVRT Experiment 3\svrt_images\generated_images\results_problem_3\sample_0_0004.png,C:\Users\subject\Desktop\SVRT Experiments\SVRT Experiment 3\svrt_images\generated_images\results_problem_13\sample_0_0003.png,C:\Users\subject\Desktop\SVRT Experiments\SVRT Experiment 3\svrt_images\generated_images\results_problem_18\sample_0_0014.png,C:\Users\subject\Desktop\SVRT Experiments\SVRT Experiment 3\svrt_images\generated_images\results_problem_7\sample_1_0001.png,,,,,,,,,,,,,,,,,,,0,4,4,4,0,23,23,23,,,,,,,,,,,,,,f,7,A,A,26,1,Correct!,2.7665138999873307,400.3277323000075,None,400.3277323000075,None,403.1131660999963,None,,,,,104,001,2023-10-06_15h28.20.245,uncolored_sorted,2021.2.3,59.941113847963656,
C:\Users\subject\Desktop\SVRT Experiments\SVRT Experiment 3\svrt_images\generated_images\results_problem_7,C:\Users\subject\Desktop\SVRT Experiments\SVRT Experiment 3\svrt_images\generated_images\results_problem_12\sample_1_0012.png,C:\Users\subject\Desktop\SVRT Experiments\SVRT Experiment 3\svrt_images\generated_images\results_problem_3\sample_0_0004.png,C:\Users\subject\Desktop\SVRT Experiments\SVRT Experiment 3\svrt_images\generated_images\results_problem_13\sample_0_0003.png,C:\Users\subject\Desktop\SVRT Experiments\SVRT Experiment 3\svrt_images\generated_images\results_problem_18\sample_0_0014.png,C:\Users\subject\Desktop\SVRT Experiments\SVRT Experiment 3\svrt_images\generated_images\results_problem_7\sample_0_0003.png,,,,,,,,,,,,,,,,,,,0,4,4,4,0,24,24,24,,,,,,,,,,,,,,j,7,B,B,26,1,Correct!,2.96346430000267,404.33075019999524,None,404.33075019999524,None,407.316331399983,None,,,,,104,001,2023-10-06_15h28.20.245,uncolored_sorted,2021.2.3,59.941113847963656,
C:\Users\subject\Desktop\SVRT Experiments\SVRT Experiment 3\svrt_images\generated_images\results_problem_7,C:\Users\subject\Desktop\SVRT Experiments\SVRT Experiment 3\svrt_images\generated_images\results_problem_12\sample_1_0012.png,C:\Users\subject\Desktop\SVRT Experiments\SVRT Experiment 3\svrt_images\generated_images\results_problem_3\sample_0_0004.png,C:\Users\subject\Desktop\SVRT Experiments\SVRT Experiment 3\svrt_images\generated_images\results_problem_13\sample_0_0003.png,C:\Users\subject\Desktop\SVRT Experiments\SVRT Experiment 3\svrt_images\generated_images\results_problem_18\sample_0_0014.png,C:\Users\subject\Desktop\SVRT Experiments\SVRT Experiment 3\svrt_images\generated_images\results_problem_7\sample_1_0015.png,,,,,,,,,,,,,,,,,,,0,4,4,4,0,25,25,25,,,,,,,,,,,,,,j,7,B,A,26,0,Incorrect!,4.103581000003032,408.5506064000074,None,408.5506064000074,None,412.7203695999924,None,,,,,104,001,2023-10-06_15h28.20.245,uncolored_sorted,2021.2.3,59.941113847963656,
C:\Users\subject\Desktop\SVRT Experiments\SVRT Experiment 3\svrt_images\generated_images\results_problem_7,C:\Users\subject\Desktop\SVRT Experiments\SVRT Experiment 3\svrt_images\generated_images\results_problem_12\sample_1_0012.png,C:\Users\subject\Desktop\SVRT Experiments\SVRT Experiment 3\svrt_images\generated_images\results_problem_3\sample_0_0004.png,C:\Users\subject\Desktop\SVRT Experiments\SVRT Experiment 3\svrt_images\generated_images\results_problem_13\sample_0_0003.png,C:\Users\subject\Desktop\SVRT Experiments\SVRT Experiment 3\svrt_images\generated_images\results_problem_18\sample_0_0014.png,C:\Users\subject\Desktop\SVRT Experiments\SVRT Experiment 3\svrt_images\generated_images\results_problem_7\sample_1_0004.png,,,,,,,,,,,,,,,,,,,0,4,4,4,0,26,26,26,,,,,,,,,,,,,,f,7,A,A,26,1,Correct!,4.586797900003148,413.97135760000674,None,413.97135760000674,None,418.5914863999933,None,,,,,104,001,2023-10-06_15h28.20.245,uncolored_sorted,2021.2.3,59.941113847963656,
C:\Users\subject\Desktop\SVRT Experiments\SVRT Experiment 3\svrt_images\generated_images\results_problem_7,C:\Users\subject\Desktop\SVRT Experiments\SVRT Experiment 3\svrt_images\generated_images\results_problem_12\sample_1_0012.png,C:\Users\subject\Desktop\SVRT Experiments\SVRT Experiment 3\svrt_images\generated_images\results_problem_3\sample_0_0004.png,C:\Users\subject\Desktop\SVRT Experiments\SVRT Experiment 3\svrt_images\generated_images\results_problem_13\sample_0_0003.png,C:\Users\subject\Desktop\SVRT Experiments\SVRT Experiment 3\svrt_images\generated_images\results_problem_18\sample_0_0014.png,C:\Users\subject\Desktop\SVRT Experiments\SVRT Experiment 3\svrt_images\generated_images\results_problem_7\sample_0_0006.png,,,,,,,,,,,,,,,,,,,0,4,4,4,0,27,27,27,,,,,,,,,,,,,,j,7,B,B,26,1,Correct!,1.1396782999800052,419.8424526999879,None,419.8424526999879,None,421.009988899983,None,,,,,104,001,2023-10-06_15h28.20.245,uncolored_sorted,2021.2.3,59.941113847963656,
C:\Users\subject\Desktop\SVRT Experiments\SVRT Experiment 3\svrt_images\generated_images\results_problem_7,C:\Users\subject\Desktop\SVRT Experiments\SVRT Experiment 3\svrt_images\generated_images\results_problem_12\sample_1_0012.png,C:\Users\subject\Desktop\SVRT Experiments\SVRT Experiment 3\svrt_images\generated_images\results_problem_3\sample_0_0004.png,C:\Users\subject\Desktop\SVRT Experiments\SVRT Experiment 3\svrt_images\generated_images\results_problem_13\sample_0_0003.png,C:\Users\subject\Desktop\SVRT Experiments\SVRT Experiment 3\svrt_images\generated_images\results_problem_18\sample_0_0014.png,C:\Users\subject\Desktop\SVRT Experiments\SVRT Experiment 3\svrt_images\generated_images\results_problem_7\sample_1_0006.png,,,,,,,,,,,,,,,,,,,0,4,4,4,0,28,28,28,,,,,,,,,,,,,,j,7,B,A,26,0,Incorrect!,1.0004783000040334,422.27763029999915,None,422.27763029999915,None,423.2950509999937,None,,,,,104,001,2023-10-06_15h28.20.245,uncolored_sorted,2021.2.3,59.941113847963656,
C:\Users\subject\Desktop\SVRT Experiments\SVRT Experiment 3\svrt_images\generated_images\results_problem_7,C:\Users\subject\Desktop\SVRT Experiments\SVRT Experiment 3\svrt_images\generated_images\results_problem_12\sample_1_0012.png,C:\Users\subject\Desktop\SVRT Experiments\SVRT Experiment 3\svrt_images\generated_images\results_problem_3\sample_0_0004.png,C:\Users\subject\Desktop\SVRT Experiments\SVRT Experiment 3\svrt_images\generated_images\results_problem_13\sample_0_0003.png,C:\Users\subject\Desktop\SVRT Experiments\SVRT Experiment 3\svrt_images\generated_images\results_problem_18\sample_0_0014.png,C:\Users\subject\Desktop\SVRT Experiments\SVRT Experiment 3\svrt_images\generated_images\results_problem_7\sample_0_0002.png,,,,,,,,,,,,,,,,,,,0,4,4,4,0,29,29,29,,,,,,,,,,,,,,f,7,A,B,26,0,Incorrect!,4.962715400004527,424.57935919999727,None,424.57935919999727,None,429.58315859999857,None,,,,,104,001,2023-10-06_15h28.20.245,uncolored_sorted,2021.2.3,59.941113847963656,
C:\Users\subject\Desktop\SVRT Experiments\SVRT Experiment 3\svrt_images\generated_images\results_problem_7,C:\Users\subject\Desktop\SVRT Experiments\SVRT Experiment 3\svrt_images\generated_images\results_problem_12\sample_1_0012.png,C:\Users\subject\Desktop\SVRT Experiments\SVRT Experiment 3\svrt_images\generated_images\results_problem_3\sample_0_0004.png,C:\Users\subject\Desktop\SVRT Experiments\SVRT Experiment 3\svrt_images\generated_images\results_problem_13\sample_0_0003.png,C:\Users\subject\Desktop\SVRT Experiments\SVRT Experiment 3\svrt_images\generated_images\results_problem_18\sample_0_0014.png,C:\Users\subject\Desktop\SVRT Experiments\SVRT Experiment 3\svrt_images\generated_images\results_problem_7\sample_1_0011.png,,,,,,,,,,,,,,,,,,,0,4,4,4,0,30,30,30,,,,,,,,,,,,,,f,7,A,A,26,1,Correct!,22.13047760000336,430.8674667000014,None,430.8674667000014,None,453.0341400000034,None,,,,,104,001,2023-10-06_15h28.20.245,uncolored_sorted,2021.2.3,59.941113847963656,
C:\Users\subject\Desktop\SVRT Experiments\SVRT Experiment 3\svrt_images\generated_images\results_problem_7,C:\Users\subject\Desktop\SVRT Experiments\SVRT Experiment 3\svrt_images\generated_images\results_problem_12\sample_1_0012.png,C:\Users\subject\Desktop\SVRT Experiments\SVRT Experiment 3\svrt_images\generated_images\results_problem_3\sample_0_0004.png,C:\Users\subject\Desktop\SVRT Experiments\SVRT Experiment 3\svrt_images\generated_images\results_problem_13\sample_0_0003.png,C:\Users\subject\Desktop\SVRT Experiments\SVRT Experiment 3\svrt_images\generated_images\results_problem_18\sample_0_0014.png,C:\Users\subject\Desktop\SVRT Experiments\SVRT Experiment 3\svrt_images\generated_images\results_problem_7\sample_1_0000.png,,,,,,,,,,,,,,,,,,,0,4,4,4,0,31,31,31,,,,,,,,,,,,,,f,7,A,A,26,1,Correct!,2.142795499996282,454.3351241000055,None,454.3351241000055,None,456.5367769000004,None,,,,,104,001,2023-10-06_15h28.20.245,uncolored_sorted,2021.2.3,59.941113847963656,
C:\Users\subject\Desktop\SVRT Experiments\SVRT Experiment 3\svrt_images\generated_images\results_problem_7,C:\Users\subject\Desktop\SVRT Experiments\SVRT Experiment 3\svrt_images\generated_images\results_problem_12\sample_1_0012.png,C:\Users\subject\Desktop\SVRT Experiments\SVRT Experiment 3\svrt_images\generated_images\results_problem_3\sample_0_0004.png,C:\Users\subject\Desktop\SVRT Experiments\SVRT Experiment 3\svrt_images\generated_images\results_problem_13\sample_0_0003.png,C:\Users\subject\Desktop\SVRT Experiments\SVRT Experiment 3\svrt_images\generated_images\results_problem_18\sample_0_0014.png,C:\Users\subject\Desktop\SVRT Experiments\SVRT Experiment 3\svrt_images\generated_images\results_problem_7\sample_1_0012.png,,,,,,,,,,,,,,,,,,,0,4,4,4,0,32,32,32,,,,,,,,,,,,,,f,7,A,A,26,1,Correct!,1.4074659000034444,457.85444510000525,None,457.85444510000525,None,459.3388938999851,None,,,,,104,001,2023-10-06_15h28.20.245,uncolored_sorted,2021.2.3,59.941113847963656,
C:\Users\subject\Desktop\SVRT Experiments\SVRT Experiment 3\svrt_images\generated_images\results_problem_7,C:\Users\subject\Desktop\SVRT Experiments\SVRT Experiment 3\svrt_images\generated_images\results_problem_12\sample_1_0012.png,C:\Users\subject\Desktop\SVRT Experiments\SVRT Experiment 3\svrt_images\generated_images\results_problem_3\sample_0_0004.png,C:\Users\subject\Desktop\SVRT Experiments\SVRT Experiment 3\svrt_images\generated_images\results_problem_13\sample_0_0003.png,C:\Users\subject\Desktop\SVRT Experiments\SVRT Experiment 3\svrt_images\generated_images\results_problem_18\sample_0_0014.png,C:\Users\subject\Desktop\SVRT Experiments\SVRT Experiment 3\svrt_images\generated_images\results_problem_7\sample_0_0010.png,,,,,,,,,,,,,,,,,,,0,4,4,4,0,33,33,33,,,,,,,,,,,,,,j,7,B,B,26,1,Correct!,2.3760924999951385,460.74978569999803,None,460.74978569999803,None,463.15843429998495,None,,,,,104,001,2023-10-06_15h28.20.245,uncolored_sorted,2021.2.3,59.941113847963656,
C:\Users\subject\Desktop\SVRT Experiments\SVRT Experiment 3\svrt_images\generated_images\results_problem_7,C:\Users\subject\Desktop\SVRT Experiments\SVRT Experiment 3\svrt_images\generated_images\results_problem_12\sample_1_0012.png,C:\Users\subject\Desktop\SVRT Experiments\SVRT Experiment 3\svrt_images\generated_images\results_problem_3\sample_0_0004.png,C:\Users\subject\Desktop\SVRT Experiments\SVRT Experiment 3\svrt_images\generated_images\results_problem_13\sample_0_0003.png,C:\Users\subject\Desktop\SVRT Experiments\SVRT Experiment 3\svrt_images\generated_images\results_problem_18\sample_0_0014.png,,,,,,,,,,,,,,,,,,,,0,4,4,4,0,7,7,7,,,,,,,,,,,,,,,,,,,,,,,,,,,,464.1591921999934,464.1591921999934,space,1.0866482999990694,104,001,2023-10-06_15h28.20.245,uncolored_sorted,2021.2.3,59.941113847963656,
C:\Users\subject\Desktop\SVRT Experiments\SVRT Experiment 3\svrt_images\generated_images\results_problem_11,C:\Users\subject\Desktop\SVRT Experiments\SVRT Experiment 3\svrt_images\generated_images\results_problem_12\sample_1_0012.png,C:\Users\subject\Desktop\SVRT Experiments\SVRT Experiment 3\svrt_images\generated_images\results_problem_3\sample_0_0004.png,C:\Users\subject\Desktop\SVRT Experiments\SVRT Experiment 3\svrt_images\generated_images\results_problem_13\sample_0_0003.png,C:\Users\subject\Desktop\SVRT Experiments\SVRT Experiment 3\svrt_images\generated_images\results_problem_18\sample_0_0014.png,,C:\Users\subject\Desktop\SVRT Experiments\SVRT Experiment 3\svrt_images\generated_images\results_problem_11\sample_1_0004.png,,,,,,,,,,,,,,,,,,0,5,5,5,0,0,0,0,,,,,,,,,,,,,,f,11,A,A,26,1,Correct!,1.0891620999900624,465.27670300001046,None,465.27670300001046,None,466.3942076000094,None,,,,,104,001,2023-10-06_15h28.20.245,uncolored_sorted,2021.2.3,59.941113847963656,
C:\Users\subject\Desktop\SVRT Experiments\SVRT Experiment 3\svrt_images\generated_images\results_problem_11,C:\Users\subject\Desktop\SVRT Experiments\SVRT Experiment 3\svrt_images\generated_images\results_problem_12\sample_1_0012.png,C:\Users\subject\Desktop\SVRT Experiments\SVRT Experiment 3\svrt_images\generated_images\results_problem_3\sample_0_0004.png,C:\Users\subject\Desktop\SVRT Experiments\SVRT Experiment 3\svrt_images\generated_images\results_problem_13\sample_0_0003.png,C:\Users\subject\Desktop\SVRT Experiments\SVRT Experiment 3\svrt_images\generated_images\results_problem_18\sample_0_0014.png,,C:\Users\subject\Desktop\SVRT Experiments\SVRT Experiment 3\svrt_images\generated_images\results_problem_11\sample_1_0000.png,,,,,,,,,,,,,,,,,,0,5,5,5,0,1,1,1,,,,,,,,,,,,,,f,11,A,A,26,1,Correct!,1.2748820999986492,467.39496760000475,None,467.39496760000475,None,468.69594700000016,None,,,,,104,001,2023-10-06_15h28.20.245,uncolored_sorted,2021.2.3,59.941113847963656,
C:\Users\subject\Desktop\SVRT Experiments\SVRT Experiment 3\svrt_images\generated_images\results_problem_11,C:\Users\subject\Desktop\SVRT Experiments\SVRT Experiment 3\svrt_images\generated_images\results_problem_12\sample_1_0012.png,C:\Users\subject\Desktop\SVRT Experiments\SVRT Experiment 3\svrt_images\generated_images\results_problem_3\sample_0_0004.png,C:\Users\subject\Desktop\SVRT Experiments\SVRT Experiment 3\svrt_images\generated_images\results_problem_13\sample_0_0003.png,C:\Users\subject\Desktop\SVRT Experiments\SVRT Experiment 3\svrt_images\generated_images\results_problem_18\sample_0_0014.png,,C:\Users\subject\Desktop\SVRT Experiments\SVRT Experiment 3\svrt_images\generated_images\results_problem_11\sample_1_0010.png,,,,,,,,,,,,,,,,,,0,5,5,5,0,2,2,2,,,,,,,,,,,,,,f,11,A,A,26,1,Correct!,0.6204178000043612,469.7133809000079,None,469.7133809000079,None,470.3638495999912,None,,,,,104,001,2023-10-06_15h28.20.245,uncolored_sorted,2021.2.3,59.941113847963656,
C:\Users\subject\Desktop\SVRT Experiments\SVRT Experiment 3\svrt_images\generated_images\results_problem_11,C:\Users\subject\Desktop\SVRT Experiments\SVRT Experiment 3\svrt_images\generated_images\results_problem_12\sample_1_0012.png,C:\Users\subject\Desktop\SVRT Experiments\SVRT Experiment 3\svrt_images\generated_images\results_problem_3\sample_0_0004.png,C:\Users\subject\Desktop\SVRT Experiments\SVRT Experiment 3\svrt_images\generated_images\results_problem_13\sample_0_0003.png,C:\Users\subject\Desktop\SVRT Experiments\SVRT Experiment 3\svrt_images\generated_images\results_problem_18\sample_0_0014.png,,C:\Users\subject\Desktop\SVRT Experiments\SVRT Experiment 3\svrt_images\generated_images\results_problem_11\sample_0_0011.png,,,,,,,,,,,,,,,,,,0,5,5,5,0,3,3,3,,,,,,,,,,,,,,j,11,B,B,26,1,Correct!,0.7286413999972865,471.3812675999943,None,471.3812675999943,None,472.1318690000044,None,,,,,104,001,2023-10-06_15h28.20.245,uncolored_sorted,2021.2.3,59.941113847963656,
C:\Users\subject\Desktop\SVRT Experiments\SVRT Experiment 3\svrt_images\generated_images\results_problem_11,C:\Users\subject\Desktop\SVRT Experiments\SVRT Experiment 3\svrt_images\generated_images\results_problem_12\sample_1_0012.png,C:\Users\subject\Desktop\SVRT Experiments\SVRT Experiment 3\svrt_images\generated_images\results_problem_3\sample_0_0004.png,C:\Users\subject\Desktop\SVRT Experiments\SVRT Experiment 3\svrt_images\generated_images\results_problem_13\sample_0_0003.png,C:\Users\subject\Desktop\SVRT Experiments\SVRT Experiment 3\svrt_images\generated_images\results_problem_18\sample_0_0014.png,,C:\Users\subject\Desktop\SVRT Experiments\SVRT Experiment 3\svrt_images\generated_images\results_problem_11\sample_0_0012.png,,,,,,,,,,,,,,,,,,0,5,5,5,0,4,4,4,,,,,,,,,,,,,,j,11,B,B,26,1,Correct!,0.7518067999917548,473.1659907999856,None,473.1659907999856,None,473.9499099999957,None,,,,,104,001,2023-10-06_15h28.20.245,uncolored_sorted,2021.2.3,59.941113847963656,
C:\Users\subject\Desktop\SVRT Experiments\SVRT Experiment 3\svrt_images\generated_images\results_problem_11,C:\Users\subject\Desktop\SVRT Experiments\SVRT Experiment 3\svrt_images\generated_images\results_problem_12\sample_1_0012.png,C:\Users\subject\Desktop\SVRT Experiments\SVRT Experiment 3\svrt_images\generated_images\results_problem_3\sample_0_0004.png,C:\Users\subject\Desktop\SVRT Experiments\SVRT Experiment 3\svrt_images\generated_images\results_problem_13\sample_0_0003.png,C:\Users\subject\Desktop\SVRT Experiments\SVRT Experiment 3\svrt_images\generated_images\results_problem_18\sample_0_0014.png,,C:\Users\subject\Desktop\SVRT Experiments\SVRT Experiment 3\svrt_images\generated_images\results_problem_11\sample_0_0006.png,,,,,,,,,,,,,,,,,,0,5,5,5,0,5,5,5,,,,,,,,,,,,,,j,11,B,B,26,1,Correct!,0.7497730999893975,474.984023099998,None,474.984023099998,None,475.7512635999883,None,,,,,104,001,2023-10-06_15h28.20.245,uncolored_sorted,2021.2.3,59.941113847963656,
C:\Users\subject\Desktop\SVRT Experiments\SVRT Experiment 3\svrt_images\generated_images\results_problem_11,C:\Users\subject\Desktop\SVRT Experiments\SVRT Experiment 3\svrt_images\generated_images\results_problem_12\sample_1_0012.png,C:\Users\subject\Desktop\SVRT Experiments\SVRT Experiment 3\svrt_images\generated_images\results_problem_3\sample_0_0004.png,C:\Users\subject\Desktop\SVRT Experiments\SVRT Experiment 3\svrt_images\generated_images\results_problem_13\sample_0_0003.png,C:\Users\subject\Desktop\SVRT Experiments\SVRT Experiment 3\svrt_images\generated_images\results_problem_18\sample_0_0014.png,,C:\Users\subject\Desktop\SVRT Experiments\SVRT Experiment 3\svrt_images\generated_images\results_problem_11\sample_0_0000.png,,,,,,,,,,,,,,,,,,0,5,5,5,0,6,6,6,,,,,,,,,,,,,,j,11,B,B,26,1,Correct!,0.6597579999943264,476.80203749999055,None,476.80203749999055,None,477.4859048000071,None,,,,,104,001,2023-10-06_15h28.20.245,uncolored_sorted,2021.2.3,59.941113847963656,
C:\Users\subject\Desktop\SVRT Experiments\SVRT Experiment 3\svrt_images\generated_images\results_problem_11,C:\Users\subject\Desktop\SVRT Experiments\SVRT Experiment 3\svrt_images\generated_images\results_problem_12\sample_1_0012.png,C:\Users\subject\Desktop\SVRT Experiments\SVRT Experiment 3\svrt_images\generated_images\results_problem_3\sample_0_0004.png,C:\Users\subject\Desktop\SVRT Experiments\SVRT Experiment 3\svrt_images\generated_images\results_problem_13\sample_0_0003.png,C:\Users\subject\Desktop\SVRT Experiments\SVRT Experiment 3\svrt_images\generated_images\results_problem_18\sample_0_0014.png,,C:\Users\subject\Desktop\SVRT Experiments\SVRT Experiment 3\svrt_images\generated_images\results_problem_11\sample_1_0005.png,,,,,,,,,,,,,,,,,,0,5,5,5,0,7,7,7,,,,,,,,,,,,,,,,,,,,,,,,,,,,478.4866639999964,478.4866639999964,space,0.8790599000058137,104,001,2023-10-06_15h28.20.245,uncolored_sorted,2021.2.3,59.941113847963656,
C:\Users\subject\Desktop\SVRT Experiments\SVRT Experiment 3\svrt_images\generated_images\results_problem_5,C:\Users\subject\Desktop\SVRT Experiments\SVRT Experiment 3\svrt_images\generated_images\results_problem_12\sample_1_0012.png,C:\Users\subject\Desktop\SVRT Experiments\SVRT Experiment 3\svrt_images\generated_images\results_problem_3\sample_0_0004.png,C:\Users\subject\Desktop\SVRT Experiments\SVRT Experiment 3\svrt_images\generated_images\results_problem_13\sample_0_0003.png,C:\Users\subject\Desktop\SVRT Experiments\SVRT Experiment 3\svrt_images\generated_images\results_problem_18\sample_0_0014.png,,C:\Users\subject\Desktop\SVRT Experiments\SVRT Experiment 3\svrt_images\generated_images\results_problem_11\sample_1_0005.png,C:\Users\subject\Desktop\SVRT Experiments\SVRT Experiment 3\svrt_images\generated_images\results_problem_5\sample_0_0005.png,,,,,,,,,,,,,,,,,0,6,6,6,0,0,0,0,,,,,,,,,,,,,,f,5,A,B,26,0,Incorrect!,1.2584257000125945,479.3873197000066,None,479.3873197000066,None,480.6716033999983,None,,,,,104,001,2023-10-06_15h28.20.245,uncolored_sorted,2021.2.3,59.941113847963656,
C:\Users\subject\Desktop\SVRT Experiments\SVRT Experiment 3\svrt_images\generated_images\results_problem_5,C:\Users\subject\Desktop\SVRT Experiments\SVRT Experiment 3\svrt_images\generated_images\results_problem_12\sample_1_0012.png,C:\Users\subject\Desktop\SVRT Experiments\SVRT Experiment 3\svrt_images\generated_images\results_problem_3\sample_0_0004.png,C:\Users\subject\Desktop\SVRT Experiments\SVRT Experiment 3\svrt_images\generated_images\results_problem_13\sample_0_0003.png,C:\Users\subject\Desktop\SVRT Experiments\SVRT Experiment 3\svrt_images\generated_images\results_problem_18\sample_0_0014.png,,C:\Users\subject\Desktop\SVRT Experiments\SVRT Experiment 3\svrt_images\generated_images\results_problem_11\sample_1_0005.png,C:\Users\subject\Desktop\SVRT Experiments\SVRT Experiment 3\svrt_images\generated_images\results_problem_5\sample_1_0009.png,,,,,,,,,,,,,,,,,0,6,6,6,0,1,1,1,,,,,,,,,,,,,,j,5,B,A,26,0,Incorrect!,0.5973831000155769,481.67239749999135,None,481.67239749999135,None,482.28952729998855,None,,,,,104,001,2023-10-06_15h28.20.245,uncolored_sorted,2021.2.3,59.941113847963656,
C:\Users\subject\Desktop\SVRT Experiments\SVRT Experiment 3\svrt_images\generated_images\results_problem_5,C:\Users\subject\Desktop\SVRT Experiments\SVRT Experiment 3\svrt_images\generated_images\results_problem_12\sample_1_0012.png,C:\Users\subject\Desktop\SVRT Experiments\SVRT Experiment 3\svrt_images\generated_images\results_problem_3\sample_0_0004.png,C:\Users\subject\Desktop\SVRT Experiments\SVRT Experiment 3\svrt_images\generated_images\results_problem_13\sample_0_0003.png,C:\Users\subject\Desktop\SVRT Experiments\SVRT Experiment 3\svrt_images\generated_images\results_problem_18\sample_0_0014.png,,C:\Users\subject\Desktop\SVRT Experiments\SVRT Experiment 3\svrt_images\generated_images\results_problem_11\sample_1_0005.png,C:\Users\subject\Desktop\SVRT Experiments\SVRT Experiment 3\svrt_images\generated_images\results_problem_5\sample_0_0008.png,,,,,,,,,,,,,,,,,0,6,6,6,0,2,2,2,,,,,,,,,,,,,,f,5,A,B,26,0,Incorrect!,8.402708400011761,483.30696729998454,None,483.30696729998454,None,491.7299808000098,None,,,,,104,001,2023-10-06_15h28.20.245,uncolored_sorted,2021.2.3,59.941113847963656,
C:\Users\subject\Desktop\SVRT Experiments\SVRT Experiment 3\svrt_images\generated_images\results_problem_5,C:\Users\subject\Desktop\SVRT Experiments\SVRT Experiment 3\svrt_images\generated_images\results_problem_12\sample_1_0012.png,C:\Users\subject\Desktop\SVRT Experiments\SVRT Experiment 3\svrt_images\generated_images\results_problem_3\sample_0_0004.png,C:\Users\subject\Desktop\SVRT Experiments\SVRT Experiment 3\svrt_images\generated_images\results_problem_13\sample_0_0003.png,C:\Users\subject\Desktop\SVRT Experiments\SVRT Experiment 3\svrt_images\generated_images\results_problem_18\sample_0_0014.png,,C:\Users\subject\Desktop\SVRT Experiments\SVRT Experiment 3\svrt_images\generated_images\results_problem_11\sample_1_0005.png,C:\Users\subject\Desktop\SVRT Experiments\SVRT Experiment 3\svrt_images\generated_images\results_problem_5\sample_1_0000.png,,,,,,,,,,,,,,,,,0,6,6,6,0,3,3,3,,,,,,,,,,,,,,f,5,A,A,26,1,Correct!,3.7622594000131357,492.7473797999846,None,492.7473797999846,None,496.533603399992,None,,,,,104,001,2023-10-06_15h28.20.245,uncolored_sorted,2021.2.3,59.941113847963656,
C:\Users\subject\Desktop\SVRT Experiments\SVRT Experiment 3\svrt_images\generated_images\results_problem_5,C:\Users\subject\Desktop\SVRT Experiments\SVRT Experiment 3\svrt_images\generated_images\results_problem_12\sample_1_0012.png,C:\Users\subject\Desktop\SVRT Experiments\SVRT Experiment 3\svrt_images\generated_images\results_problem_3\sample_0_0004.png,C:\Users\subject\Desktop\SVRT Experiments\SVRT Experiment 3\svrt_images\generated_images\results_problem_13\sample_0_0003.png,C:\Users\subject\Desktop\SVRT Experiments\SVRT Experiment 3\svrt_images\generated_images\results_problem_18\sample_0_0014.png,,C:\Users\subject\Desktop\SVRT Experiments\SVRT Experiment 3\svrt_images\generated_images\results_problem_11\sample_1_0005.png,C:\Users\subject\Desktop\SVRT Experiments\SVRT Experiment 3\svrt_images\generated_images\results_problem_5\sample_1_0014.png,,,,,,,,,,,,,,,,,0,6,6,6,0,4,4,4,,,,,,,,,,,,,,j,5,B,A,26,0,Incorrect!,2.9818621999875177,497.56772049999563,None,497.56772049999563,None,500.5699872999976,None,,,,,104,001,2023-10-06_15h28.20.245,uncolored_sorted,2021.2.3,59.941113847963656,
C:\Users\subject\Desktop\SVRT Experiments\SVRT Experiment 3\svrt_images\generated_images\results_problem_5,C:\Users\subject\Desktop\SVRT Experiments\SVRT Experiment 3\svrt_images\generated_images\results_problem_12\sample_1_0012.png,C:\Users\subject\Desktop\SVRT Experiments\SVRT Experiment 3\svrt_images\generated_images\results_problem_3\sample_0_0004.png,C:\Users\subject\Desktop\SVRT Experiments\SVRT Experiment 3\svrt_images\generated_images\results_problem_13\sample_0_0003.png,C:\Users\subject\Desktop\SVRT Experiments\SVRT Experiment 3\svrt_images\generated_images\results_problem_18\sample_0_0014.png,,C:\Users\subject\Desktop\SVRT Experiments\SVRT Experiment 3\svrt_images\generated_images\results_problem_11\sample_1_0005.png,C:\Users\subject\Desktop\SVRT Experiments\SVRT Experiment 3\svrt_images\generated_images\results_problem_5\sample_1_0013.png,,,,,,,,,,,,,,,,,0,6,6,6,0,5,5,5,,,,,,,,,,,,,,j,5,B,A,26,0,Incorrect!,2.409488400007831,501.60409239999717,None,501.60409239999717,None,504.0392593999859,None,,,,,104,001,2023-10-06_15h28.20.245,uncolored_sorted,2021.2.3,59.941113847963656,
C:\Users\subject\Desktop\SVRT Experiments\SVRT Experiment 3\svrt_images\generated_images\results_problem_5,C:\Users\subject\Desktop\SVRT Experiments\SVRT Experiment 3\svrt_images\generated_images\results_problem_12\sample_1_0012.png,C:\Users\subject\Desktop\SVRT Experiments\SVRT Experiment 3\svrt_images\generated_images\results_problem_3\sample_0_0004.png,C:\Users\subject\Desktop\SVRT Experiments\SVRT Experiment 3\svrt_images\generated_images\results_problem_13\sample_0_0003.png,C:\Users\subject\Desktop\SVRT Experiments\SVRT Experiment 3\svrt_images\generated_images\results_problem_18\sample_0_0014.png,,C:\Users\subject\Desktop\SVRT Experiments\SVRT Experiment 3\svrt_images\generated_images\results_problem_11\sample_1_0005.png,C:\Users\subject\Desktop\SVRT Experiments\SVRT Experiment 3\svrt_images\generated_images\results_problem_5\sample_0_0001.png,,,,,,,,,,,,,,,,,0,6,6,6,0,6,6,6,,,,,,,,,,,,,,f,5,A,B,26,0,Incorrect!,3.09146409999812,505.09005709999474,None,505.09005709999474,None,508.20906910000485,None,,,,,104,001,2023-10-06_15h28.20.245,uncolored_sorted,2021.2.3,59.941113847963656,
C:\Users\subject\Desktop\SVRT Experiments\SVRT Experiment 3\svrt_images\generated_images\results_problem_5,C:\Users\subject\Desktop\SVRT Experiments\SVRT Experiment 3\svrt_images\generated_images\results_problem_12\sample_1_0012.png,C:\Users\subject\Desktop\SVRT Experiments\SVRT Experiment 3\svrt_images\generated_images\results_problem_3\sample_0_0004.png,C:\Users\subject\Desktop\SVRT Experiments\SVRT Experiment 3\svrt_images\generated_images\results_problem_13\sample_0_0003.png,C:\Users\subject\Desktop\SVRT Experiments\SVRT Experiment 3\svrt_images\generated_images\results_problem_18\sample_0_0014.png,,C:\Users\subject\Desktop\SVRT Experiments\SVRT Experiment 3\svrt_images\generated_images\results_problem_11\sample_1_0005.png,C:\Users\subject\Desktop\SVRT Experiments\SVRT Experiment 3\svrt_images\generated_images\results_problem_5\sample_0_0016.png,,,,,,,,,,,,,,,,,0,6,6,6,0,7,7,7,,,,,,,,,,,,,,j,5,B,B,26,1,Correct!,1.2497749000031035,509.25986540000304,None,509.25986540000304,None,510.52748379998957,None,,,,,104,001,2023-10-06_15h28.20.245,uncolored_sorted,2021.2.3,59.941113847963656,
C:\Users\subject\Desktop\SVRT Experiments\SVRT Experiment 3\svrt_images\generated_images\results_problem_5,C:\Users\subject\Desktop\SVRT Experiments\SVRT Experiment 3\svrt_images\generated_images\results_problem_12\sample_1_0012.png,C:\Users\subject\Desktop\SVRT Experiments\SVRT Experiment 3\svrt_images\generated_images\results_problem_3\sample_0_0004.png,C:\Users\subject\Desktop\SVRT Experiments\SVRT Experiment 3\svrt_images\generated_images\results_problem_13\sample_0_0003.png,C:\Users\subject\Desktop\SVRT Experiments\SVRT Experiment 3\svrt_images\generated_images\results_problem_18\sample_0_0014.png,,C:\Users\subject\Desktop\SVRT Experiments\SVRT Experiment 3\svrt_images\generated_images\results_problem_11\sample_1_0005.png,C:\Users\subject\Desktop\SVRT Experiments\SVRT Experiment 3\svrt_images\generated_images\results_problem_5\sample_1_0012.png,,,,,,,,,,,,,,,,,0,6,6,6,0,8,8,8,,,,,,,,,,,,,,f,5,A,A,26,1,Correct!,1.8425726999994367,511.59496069999295,None,511.59496069999295,None,513.4630314999959,None,,,,,104,001,2023-10-06_15h28.20.245,uncolored_sorted,2021.2.3,59.941113847963656,
