folder,results_problem_13,results_problem_6,results_problem_17,results_problem_10,results_problem_14,results_problem_16,results_problem_5,results_problem_3,results_problem_19,results_problem_7,results_problem_2,results_problem_23,results_problem_12,results_problem_20,results_problem_11,results_problem_22,results_problem_21,results_problem_1,results_problem_9,results_problem_18,results_problem_15,results_problem_4,results_problem_8,categories.thisRepN,categories.thisTrialN,categories.thisN,categories.thisIndex,trials.thisRepN,trials.thisTrialN,trials.thisN,trials.thisIndex,consent_text.started,consent_kb.started,consent_kb.keys,consent_kb.rt,Gender.keys,Gender.rt,Age,instructions_text.started,instructions_text.stopped,instructions_kb.keys,instructions_kb.rt,instructions_kb.started,instructions_kb.stopped,trial_kb.keys,current_problem_num,category_resp,answer,seed,accuracy,feedback,trial_kb.rt,trial_kb.started,trial_kb.stopped,trial_image.started,trial_image.stopped,feedback_text.started,feedback_text.stopped,new_problem_kb.started,new_problem_text.started,new_problem_kb.keys,new_problem_kb.rt,Participant #,session,date,expName,psychopyVersion,frameRate,
,,,,,,,,,,,,,,,,,,,,,,,,,,,,,,,,10.20000190101564,10.20000190101564,y,16.24829740077257,,,,,,,,,,,,,,,,,,,,,,,,,,,,105,001,2023-10-06_15h38.11.969,colored_shuffled,2021.2.3,59.99250036353358,
,,,,,,,,,,,,,,,,,,,,,,,,,,,,,,,,,,,,n,4.445499399676919,,,,,,,,,,,,,,,,,,,,,,,,,,105,001,2023-10-06_15h38.11.969,colored_shuffled,2021.2.3,59.99250036353358,
,,,,,,,,,,,,,,,,,,,,,,,,,,,,,,,,,,,,,,20,39.53322740085423,None,space,28.17113360017538,39.53322740085423,None,,,,,,,,,,,,,,,,,,,105,001,2023-10-06_15h38.11.969,colored_shuffled,2021.2.3,59.99250036353358,
C:\Users\subject\Desktop\SVRT Experiments\SVRT Experiment 3\svrt_images\generated_images\results_problem_13,C:\Users\subject\Desktop\SVRT Experiments\SVRT Experiment 3\svrt_images\generated_images\results_problem_13\sample_0_0008.png,,,,,,,,,,,,,,,,,,,,,,,0,0,0,0,0,0,0,0,,,,,,,,,,,,,,f,13,A,B,27,0,Incorrect!,14.35550120100379,67.73274799995124,None,67.73274799995124,None,82.13253840059042,None,,,,,105,001,2023-10-06_15h38.11.969,colored_shuffled,2021.2.3,59.99250036353358,
C:\Users\subject\Desktop\SVRT Experiments\SVRT Experiment 3\svrt_images\generated_images\results_problem_13,C:\Users\subject\Desktop\SVRT Experiments\SVRT Experiment 3\svrt_images\generated_images\results_problem_13\sample_0_0001.png,,,,,,,,,,,,,,,,,,,,,,,0,0,0,0,0,1,1,1,,,,,,,,,,,,,,j,13,B,B,27,1,Correct!,6.418991701677442,83.14916570112109,None,83.14916570112109,None,89.59906920045614,None,,,,,105,001,2023-10-06_15h38.11.969,colored_shuffled,2021.2.3,59.99250036353358,
C:\Users\subject\Desktop\SVRT Experiments\SVRT Experiment 3\svrt_images\generated_images\results_problem_13,C:\Users\subject\Desktop\SVRT Experiments\SVRT Experiment 3\svrt_images\generated_images\results_problem_13\sample_1_0015.png,,,,,,,,,,,,,,,,,,,,,,,0,0,0,0,0,2,2,2,,,,,,,,,,,,,,j,13,B,A,27,0,Incorrect!,1.9605269990861416,90.61575509980321,None,90.61575509980321,None,92.59903830103576,None,,,,,105,001,2023-10-06_15h38.11.969,colored_shuffled,2021.2.3,59.99250036353358,
C:\Users\subject\Desktop\SVRT Experiments\SVRT Experiment 3\svrt_images\generated_images\results_problem_13,C:\Users\subject\Desktop\SVRT Experiments\SVRT Experiment 3\svrt_images\generated_images\results_problem_13\sample_1_0004.png,,,,,,,,,,,,,,,,,,,,,,,0,0,0,0,0,3,3,3,,,,,,,,,,,,,,j,13,B,A,27,0,Incorrect!,13.031914100050926,93.63234350085258,None,93.63234350085258,None,106.6821424011141,None,,,,,105,001,2023-10-06_15h38.11.969,colored_shuffled,2021.2.3,59.99250036353358,
C:\Users\subject\Desktop\SVRT Experiments\SVRT Experiment 3\svrt_images\generated_images\results_problem_13,C:\Users\subject\Desktop\SVRT Experiments\SVRT Experiment 3\svrt_images\generated_images\results_problem_13\sample_0_0016.png,,,,,,,,,,,,,,,,,,,,,,,0,0,0,0,0,4,4,4,,,,,,,,,,,,,,j,13,B,B,27,1,Correct!,5.836138099431992,107.73213230073452,None,107.73213230073452,None,113.59868529997766,None,,,,,105,001,2023-10-06_15h38.11.969,colored_shuffled,2021.2.3,59.99250036353358,
C:\Users\subject\Desktop\SVRT Experiments\SVRT Experiment 3\svrt_images\generated_images\results_problem_13,C:\Users\subject\Desktop\SVRT Experiments\SVRT Experiment 3\svrt_images\generated_images\results_problem_13\sample_0_0011.png,,,,,,,,,,,,,,,,,,,,,,,0,0,0,0,0,5,5,5,,,,,,,,,,,,,,f,13,A,B,27,0,Incorrect!,32.73487740010023,114.66537849977612,None,114.66537849977612,None,147.43150530010462,None,,,,,105,001,2023-10-06_15h38.11.969,colored_shuffled,2021.2.3,59.99250036353358,
C:\Users\subject\Desktop\SVRT Experiments\SVRT Experiment 3\svrt_images\generated_images\results_problem_13,C:\Users\subject\Desktop\SVRT Experiments\SVRT Experiment 3\svrt_images\generated_images\results_problem_13\sample_0_0000.png,,,,,,,,,,,,,,,,,,,,,,,0,0,0,0,0,6,6,6,,,,,,,,,,,,,,f,13,A,B,27,0,Incorrect!,29.998018199577928,148.49815690144897,None,148.49815690144897,None,178.51435079984367,None,,,,,105,001,2023-10-06_15h38.11.969,colored_shuffled,2021.2.3,59.99250036353358,
C:\Users\subject\Desktop\SVRT Experiments\SVRT Experiment 3\svrt_images\generated_images\results_problem_13,C:\Users\subject\Desktop\SVRT Experiments\SVRT Experiment 3\svrt_images\generated_images\results_problem_13\sample_0_0009.png,,,,,,,,,,,,,,,,,,,,,,,0,0,0,0,0,7,7,7,,,,,,,,,,,,,,f,13,A,B,27,0,Incorrect!,37.41050379909575,179.5976913999766,None,179.5976913999766,None,217.030416700989,None,,,,,105,001,2023-10-06_15h38.11.969,colored_shuffled,2021.2.3,59.99250036353358,
C:\Users\subject\Desktop\SVRT Experiments\SVRT Experiment 3\svrt_images\generated_images\results_problem_13,C:\Users\subject\Desktop\SVRT Experiments\SVRT Experiment 3\svrt_images\generated_images\results_problem_13\sample_0_0006.png,,,,,,,,,,,,,,,,,,,,,,,0,0,0,0,0,8,8,8,,,,,,,,,,,,,,j,13,B,B,27,1,Correct!,3.5736880004405975,218.13040870055556,None,218.13040870055556,None,221.73038430139422,None,,,,,105,001,2023-10-06_15h38.11.969,colored_shuffled,2021.2.3,59.99250036353358,
C:\Users\subject\Desktop\SVRT Experiments\SVRT Experiment 3\svrt_images\generated_images\results_problem_13,C:\Users\subject\Desktop\SVRT Experiments\SVRT Experiment 3\svrt_images\generated_images\results_problem_13\sample_0_0013.png,,,,,,,,,,,,,,,,,,,,,,,0,0,0,0,0,9,9,9,,,,,,,,,,,,,,j,13,B,B,27,1,Correct!,1.4737566001713276,222.83032060042024,None,222.83032060042024,None,224.33030069991946,None,,,,,105,001,2023-10-06_15h38.11.969,colored_shuffled,2021.2.3,59.99250036353358,
C:\Users\subject\Desktop\SVRT Experiments\SVRT Experiment 3\svrt_images\generated_images\results_problem_13,C:\Users\subject\Desktop\SVRT Experiments\SVRT Experiment 3\svrt_images\generated_images\results_problem_13\sample_0_0002.png,,,,,,,,,,,,,,,,,,,,,,,0,0,0,0,0,10,10,10,,,,,,,,,,,,,,j,13,B,B,27,1,Correct!,0.7451376002281904,225.44696160033345,None,225.44696160033345,None,226.213611099869,None,,,,,105,001,2023-10-06_15h38.11.969,colored_shuffled,2021.2.3,59.99250036353358,
C:\Users\subject\Desktop\SVRT Experiments\SVRT Experiment 3\svrt_images\generated_images\results_problem_13,C:\Users\subject\Desktop\SVRT Experiments\SVRT Experiment 3\svrt_images\generated_images\results_problem_13\sample_1_0008.png,,,,,,,,,,,,,,,,,,,,,,,0,0,0,0,0,11,11,11,,,,,,,,,,,,,,j,13,B,A,27,0,Incorrect!,0.509170999750495,227.3469032999128,None,227.3469032999128,None,227.89687569998205,None,,,,,105,001,2023-10-06_15h38.11.969,colored_shuffled,2021.2.3,59.99250036353358,
C:\Users\subject\Desktop\SVRT Experiments\SVRT Experiment 3\svrt_images\generated_images\results_problem_13,C:\Users\subject\Desktop\SVRT Experiments\SVRT Experiment 3\svrt_images\generated_images\results_problem_13\sample_1_0005.png,,,,,,,,,,,,,,,,,,,,,,,0,0,0,0,0,12,12,12,,,,,,,,,,,,,,f,13,A,A,27,1,Correct!,6.281986000016332,229.03022970072925,None,229.03022970072925,None,235.34680350124836,None,,,,,105,001,2023-10-06_15h38.11.969,colored_shuffled,2021.2.3,59.99250036353358,
C:\Users\subject\Desktop\SVRT Experiments\SVRT Experiment 3\svrt_images\generated_images\results_problem_13,C:\Users\subject\Desktop\SVRT Experiments\SVRT Experiment 3\svrt_images\generated_images\results_problem_13\sample_1_0003.png,,,,,,,,,,,,,,,,,,,,,,,0,0,0,0,0,13,13,13,,,,,,,,,,,,,,f,13,A,A,27,1,Correct!,1.4633868001401424,236.49678399972618,None,236.49678399972618,None,237.98008900135756,None,,,,,105,001,2023-10-06_15h38.11.969,colored_shuffled,2021.2.3,59.99250036353358,
C:\Users\subject\Desktop\SVRT Experiments\SVRT Experiment 3\svrt_images\generated_images\results_problem_13,C:\Users\subject\Desktop\SVRT Experiments\SVRT Experiment 3\svrt_images\generated_images\results_problem_13\sample_1_0001.png,,,,,,,,,,,,,,,,,,,,,,,0,0,0,0,0,14,14,14,,,,,,,,,,,,,,f,13,A,A,27,1,Correct!,0.5974140986800194,239.146767700091,None,239.146767700091,None,239.76341340132058,None,,,,,105,001,2023-10-06_15h38.11.969,colored_shuffled,2021.2.3,59.99250036353358,
C:\Users\subject\Desktop\SVRT Experiments\SVRT Experiment 3\svrt_images\generated_images\results_problem_13,C:\Users\subject\Desktop\SVRT Experiments\SVRT Experiment 3\svrt_images\generated_images\results_problem_13\sample_1_0009.png,,,,,,,,,,,,,,,,,,,,,,,0,0,0,0,0,15,15,15,,,,,,,,,,,,,,j,13,B,A,27,0,Incorrect!,0.3254953008145094,240.94673790037632,None,240.94673790037632,None,241.2967244014144,None,,,,,105,001,2023-10-06_15h38.11.969,colored_shuffled,2021.2.3,59.99250036353358,
C:\Users\subject\Desktop\SVRT Experiments\SVRT Experiment 3\svrt_images\generated_images\results_problem_13,C:\Users\subject\Desktop\SVRT Experiments\SVRT Experiment 3\svrt_images\generated_images\results_problem_13\sample_1_0016.png,,,,,,,,,,,,,,,,,,,,,,,0,0,0,0,0,16,16,16,,,,,,,,,,,,,,j,13,B,A,27,0,Incorrect!,0.20746110007166862,242.49671240150928,None,242.49671240150928,None,242.74669340066612,None,,,,,105,001,2023-10-06_15h38.11.969,colored_shuffled,2021.2.3,59.99250036353358,
C:\Users\subject\Desktop\SVRT Experiments\SVRT Experiment 3\svrt_images\generated_images\results_problem_13,C:\Users\subject\Desktop\SVRT Experiments\SVRT Experiment 3\svrt_images\generated_images\results_problem_13\sample_1_0007.png,,,,,,,,,,,,,,,,,,,,,,,0,0,0,0,0,17,17,17,,,,,,,,,,,,,,f,13,A,A,27,1,Correct!,0.2128187995404005,243.9633761998266,None,243.9633761998266,None,244.19666210003197,None,,,,,105,001,2023-10-06_15h38.11.969,colored_shuffled,2021.2.3,59.99250036353358,
C:\Users\subject\Desktop\SVRT Experiments\SVRT Experiment 3\svrt_images\generated_images\results_problem_13,C:\Users\subject\Desktop\SVRT Experiments\SVRT Experiment 3\svrt_images\generated_images\results_problem_13\sample_1_0013.png,,,,,,,,,,,,,,,,,,,,,,,0,0,0,0,0,18,18,18,,,,,,,,,,,,,,f,13,A,A,27,1,Correct!,0.3069243002682924,245.41332780010998,None,245.41332780010998,None,245.779988899827,None,,,,,105,001,2023-10-06_15h38.11.969,colored_shuffled,2021.2.3,59.99250036353358,
C:\Users\subject\Desktop\SVRT Experiments\SVRT Experiment 3\svrt_images\generated_images\results_problem_13,C:\Users\subject\Desktop\SVRT Experiments\SVRT Experiment 3\svrt_images\generated_images\results_problem_13\sample_1_0000.png,,,,,,,,,,,,,,,,,,,,,,,0,0,0,0,0,19,19,19,,,,,,,,,,,,,,f,13,A,A,27,1,Correct!,0.3941434994339943,247.02993809990585,None,247.02993809990585,None,247.44661900028586,None,,,,,105,001,2023-10-06_15h38.11.969,colored_shuffled,2021.2.3,59.99250036353358,
C:\Users\subject\Desktop\SVRT Experiments\SVRT Experiment 3\svrt_images\generated_images\results_problem_13,C:\Users\subject\Desktop\SVRT Experiments\SVRT Experiment 3\svrt_images\generated_images\results_problem_13\sample_1_0006.png,,,,,,,,,,,,,,,,,,,,,,,0,0,0,0,0,20,20,20,,,,,,,,,,,,,,f,13,A,A,27,1,Correct!,0.503634100779891,248.69662149995565,None,248.69662149995565,None,249.26327140070498,None,,,,,105,001,2023-10-06_15h38.11.969,colored_shuffled,2021.2.3,59.99250036353358,
C:\Users\subject\Desktop\SVRT Experiments\SVRT Experiment 3\svrt_images\generated_images\results_problem_13,C:\Users\subject\Desktop\SVRT Experiments\SVRT Experiment 3\svrt_images\generated_images\results_problem_13\sample_0_0005.png,,,,,,,,,,,,,,,,,,,,,,,0,0,0,0,0,21,21,21,,,,,,,,,,,,,,f,13,A,B,27,0,Incorrect!,0.3423723988234997,250.52988830022514,None,250.52988830022514,None,250.89656070061028,None,,,,,105,001,2023-10-06_15h38.11.969,colored_shuffled,2021.2.3,59.99250036353358,
C:\Users\subject\Desktop\SVRT Experiments\SVRT Experiment 3\svrt_images\generated_images\results_problem_13,C:\Users\subject\Desktop\SVRT Experiments\SVRT Experiment 3\svrt_images\generated_images\results_problem_13\sample_0_0004.png,,,,,,,,,,,,,,,,,,,,,,,0,0,0,0,0,22,22,22,,,,,,,,,,,,,,j,13,B,B,27,1,Correct!,0.3402884006500244,252.17989199981093,None,252.17989199981093,None,252.57986590079963,None,,,,,105,001,2023-10-06_15h38.11.969,colored_shuffled,2021.2.3,59.99250036353358,
C:\Users\subject\Desktop\SVRT Experiments\SVRT Experiment 3\svrt_images\generated_images\results_problem_13,C:\Users\subject\Desktop\SVRT Experiments\SVRT Experiment 3\svrt_images\generated_images\results_problem_13\sample_0_0007.png,,,,,,,,,,,,,,,,,,,,,,,0,0,0,0,0,23,23,23,,,,,,,,,,,,,,j,13,B,B,27,1,Correct!,0.26439889892935753,253.87987910024822,None,253.87987910024822,None,254.16319120116532,None,,,,,105,001,2023-10-06_15h38.11.969,colored_shuffled,2021.2.3,59.99250036353358,
C:\Users\subject\Desktop\SVRT Experiments\SVRT Experiment 3\svrt_images\generated_images\results_problem_13,C:\Users\subject\Desktop\SVRT Experiments\SVRT Experiment 3\svrt_images\generated_images\results_problem_13\sample_0_0014.png,,,,,,,,,,,,,,,,,,,,,,,0,0,0,0,0,24,24,24,,,,,,,,,,,,,,j,13,B,B,27,1,Correct!,0.2723354995250702,255.4798607006669,None,255.4798607006669,None,255.82983550056815,None,,,,,105,001,2023-10-06_15h38.11.969,colored_shuffled,2021.2.3,59.99250036353358,
C:\Users\subject\Desktop\SVRT Experiments\SVRT Experiment 3\svrt_images\generated_images\results_problem_13,C:\Users\subject\Desktop\SVRT Experiments\SVRT Experiment 3\svrt_images\generated_images\results_problem_13\sample_0_0010.png,,,,,,,,,,,,,,,,,,,,,,,0,0,0,0,0,25,25,25,,,,,,,,,,,,,,j,13,B,B,27,1,Correct!,0.341049799695611,257.1631674002856,None,257.1631674002856,None,257.57979870028794,None,,,,,105,001,2023-10-06_15h38.11.969,colored_shuffled,2021.2.3,59.99250036353358,
C:\Users\subject\Desktop\SVRT Experiments\SVRT Experiment 3\svrt_images\generated_images\results_problem_13,C:\Users\subject\Desktop\SVRT Experiments\SVRT Experiment 3\svrt_images\generated_images\results_problem_13\sample_1_0011.png,,,,,,,,,,,,,,,,,,,,,,,0,0,0,0,0,26,26,26,,,,,,,,,,,,,,j,13,B,A,27,0,Incorrect!,0.28648229874670506,258.9298069998622,None,258.9298069998622,None,259.2464498002082,None,,,,,105,001,2023-10-06_15h38.11.969,colored_shuffled,2021.2.3,59.99250036353358,
C:\Users\subject\Desktop\SVRT Experiments\SVRT Experiment 3\svrt_images\generated_images\results_problem_13,C:\Users\subject\Desktop\SVRT Experiments\SVRT Experiment 3\svrt_images\generated_images\results_problem_13\sample_1_0010.png,,,,,,,,,,,,,,,,,,,,,,,0,0,0,0,0,27,27,27,,,,,,,,,,,,,,f,13,A,A,27,1,Correct!,0.21907959878444672,260.6131078004837,None,260.6131078004837,None,260.8797474000603,None,,,,,105,001,2023-10-06_15h38.11.969,colored_shuffled,2021.2.3,59.99250036353358,
C:\Users\subject\Desktop\SVRT Experiments\SVRT Experiment 3\svrt_images\generated_images\results_problem_13,C:\Users\subject\Desktop\SVRT Experiments\SVRT Experiment 3\svrt_images\generated_images\results_problem_13\sample_0_0015.png,,,,,,,,,,,,,,,,,,,,,,,0,0,0,0,0,28,28,28,,,,,,,,,,,,,,f,13,A,B,27,0,Incorrect!,0.24910850077867508,262.2630596999079,None,262.2630596999079,None,262.59639350138605,None,,,,,105,001,2023-10-06_15h38.11.969,colored_shuffled,2021.2.3,59.99250036353358,
C:\Users\subject\Desktop\SVRT Experiments\SVRT Experiment 3\svrt_images\generated_images\results_problem_13,C:\Users\subject\Desktop\SVRT Experiments\SVRT Experiment 3\svrt_images\generated_images\results_problem_13\sample_1_0002.png,,,,,,,,,,,,,,,,,,,,,,,0,0,0,0,0,29,29,29,,,,,,,,,,,,,,f,13,A,A,27,1,Correct!,0.17986759915947914,263.9963877014816,None,263.9963877014816,None,264.2130306009203,None,,,,,105,001,2023-10-06_15h38.11.969,colored_shuffled,2021.2.3,59.99250036353358,
C:\Users\subject\Desktop\SVRT Experiments\SVRT Experiment 3\svrt_images\generated_images\results_problem_13,C:\Users\subject\Desktop\SVRT Experiments\SVRT Experiment 3\svrt_images\generated_images\results_problem_13\sample_1_0012.png,,,,,,,,,,,,,,,,,,,,,,,0,0,0,0,0,30,30,30,,,,,,,,,,,,,,f,13,A,A,27,1,Correct!,0.32183160074055195,265.6463668011129,None,265.6463668011129,None,266.06300370022655,None,,,,,105,001,2023-10-06_15h38.11.969,colored_shuffled,2021.2.3,59.99250036353358,
C:\Users\subject\Desktop\SVRT Experiments\SVRT Experiment 3\svrt_images\generated_images\results_problem_13,C:\Users\subject\Desktop\SVRT Experiments\SVRT Experiment 3\svrt_images\generated_images\results_problem_13\sample_0_0012.png,,,,,,,,,,,,,,,,,,,,,,,0,0,0,0,0,31,31,31,,,,,,,,,,,,,,f,13,A,B,27,0,Incorrect!,0.29589630104601383,267.4963439013809,None,267.4963439013809,None,267.8129908014089,None,,,,,105,001,2023-10-06_15h38.11.969,colored_shuffled,2021.2.3,59.99250036353358,
C:\Users\subject\Desktop\SVRT Experiments\SVRT Experiment 3\svrt_images\generated_images\results_problem_13,C:\Users\subject\Desktop\SVRT Experiments\SVRT Experiment 3\svrt_images\generated_images\results_problem_13\sample_1_0014.png,,,,,,,,,,,,,,,,,,,,,,,0,0,0,0,0,32,32,32,,,,,,,,,,,,,,j,13,B,A,27,0,Incorrect!,0.2652497012168169,269.26294280029833,None,269.26294280029833,None,269.6296158004552,None,,,,,105,001,2023-10-06_15h38.11.969,colored_shuffled,2021.2.3,59.99250036353358,
C:\Users\subject\Desktop\SVRT Experiments\SVRT Experiment 3\svrt_images\generated_images\results_problem_13,C:\Users\subject\Desktop\SVRT Experiments\SVRT Experiment 3\svrt_images\generated_images\results_problem_13\sample_0_0003.png,,,,,,,,,,,,,,,,,,,,,,,0,0,0,0,0,33,33,33,,,,,,,,,,,,,,j,13,B,B,27,1,Correct!,0.19202009961009026,271.09621180035174,None,271.09621180035174,None,271.34630629979074,None,,,,,105,001,2023-10-06_15h38.11.969,colored_shuffled,2021.2.3,59.99250036353358,
C:\Users\subject\Desktop\SVRT Experiments\SVRT Experiment 3\svrt_images\generated_images\results_problem_13,,,,,,,,,,,,,,,,,,,,,,,,0,0,0,0,,,,,,,,,,,,,,,,,,,,,,,,,,,,,,,,272.346258001402,272.346258001402,space,1.901953199878335,105,001,2023-10-06_15h38.11.969,colored_shuffled,2021.2.3,59.99250036353358,
C:\Users\subject\Desktop\SVRT Experiments\SVRT Experiment 3\svrt_images\generated_images\results_problem_6,,C:\Users\subject\Desktop\SVRT Experiments\SVRT Experiment 3\svrt_images\generated_images\results_problem_6\sample_0_0008.png,,,,,,,,,,,,,,,,,,,,,,0,1,1,1,0,0,0,0,,,,,,,,,,,,,,f,6,A,B,27,0,Incorrect!,3.600613199174404,274.27954140119255,None,274.27954140119255,None,277.91282270103693,None,,,,,105,001,2023-10-06_15h38.11.969,colored_shuffled,2021.2.3,59.99250036353358,
C:\Users\subject\Desktop\SVRT Experiments\SVRT Experiment 3\svrt_images\generated_images\results_problem_6,,C:\Users\subject\Desktop\SVRT Experiments\SVRT Experiment 3\svrt_images\generated_images\results_problem_6\sample_1_0011.png,,,,,,,,,,,,,,,,,,,,,,0,1,1,1,0,1,1,1,,,,,,,,,,,,,,f,6,A,A,27,1,Correct!,0.5987596996128559,278.9294934999198,None,278.9294934999198,None,279.5461721997708,None,,,,,105,001,2023-10-06_15h38.11.969,colored_shuffled,2021.2.3,59.99250036353358,
C:\Users\subject\Desktop\SVRT Experiments\SVRT Experiment 3\svrt_images\generated_images\results_problem_6,,C:\Users\subject\Desktop\SVRT Experiments\SVRT Experiment 3\svrt_images\generated_images\results_problem_6\sample_1_0001.png,,,,,,,,,,,,,,,,,,,,,,0,1,1,1,0,2,2,2,,,,,,,,,,,,,,f,6,A,A,27,1,Correct!,0.17328380048274994,280.5627858005464,None,280.5627858005464,None,280.76280659995973,None,,,,,105,001,2023-10-06_15h38.11.969,colored_shuffled,2021.2.3,59.99250036353358,
C:\Users\subject\Desktop\SVRT Experiments\SVRT Experiment 3\svrt_images\generated_images\results_problem_6,,C:\Users\subject\Desktop\SVRT Experiments\SVRT Experiment 3\svrt_images\generated_images\results_problem_6\sample_0_0002.png,,,,,,,,,,,,,,,,,,,,,,0,1,1,1,0,3,3,3,,,,,,,,,,,,,,f,6,A,B,27,0,Incorrect!,0.2040846012532711,281.7961181998253,None,281.7961181998253,None,282.0294490996748,None,,,,,105,001,2023-10-06_15h38.11.969,colored_shuffled,2021.2.3,59.99250036353358,
C:\Users\subject\Desktop\SVRT Experiments\SVRT Experiment 3\svrt_images\generated_images\results_problem_6,,C:\Users\subject\Desktop\SVRT Experiments\SVRT Experiment 3\svrt_images\generated_images\results_problem_6\sample_1_0009.png,,,,,,,,,,,,,,,,,,,,,,0,1,1,1,0,4,4,4,,,,,,,,,,,,,,j,6,B,A,27,0,Incorrect!,0.2086975984275341,283.0794357005507,None,283.0794357005507,None,283.312774900347,None,,,,,105,001,2023-10-06_15h38.11.969,colored_shuffled,2021.2.3,59.99250036353358,
C:\Users\subject\Desktop\SVRT Experiments\SVRT Experiment 3\svrt_images\generated_images\results_problem_6,,C:\Users\subject\Desktop\SVRT Experiments\SVRT Experiment 3\svrt_images\generated_images\results_problem_6\sample_1_0012.png,,,,,,,,,,,,,,,,,,,,,,0,1,1,1,0,5,5,5,,,,,,,,,,,,,,j,6,B,A,27,0,Incorrect!,0.0693414993584156,284.3627719003707,None,284.3627719003707,None,284.4627418015152,None,,,,,105,001,2023-10-06_15h38.11.969,colored_shuffled,2021.2.3,59.99250036353358,
C:\Users\subject\Desktop\SVRT Experiments\SVRT Experiment 3\svrt_images\generated_images\results_problem_6,,C:\Users\subject\Desktop\SVRT Experiments\SVRT Experiment 3\svrt_images\generated_images\results_problem_6\sample_1_0015.png,,,,,,,,,,,,,,,,,,,,,,0,1,1,1,0,6,6,6,,,,,,,,,,,,,,j,6,B,A,27,0,Incorrect!,0.23080159910023212,285.5293979011476,None,285.5293979011476,None,285.7793838009238,None,,,,,105,001,2023-10-06_15h38.11.969,colored_shuffled,2021.2.3,59.99250036353358,
C:\Users\subject\Desktop\SVRT Experiments\SVRT Experiment 3\svrt_images\generated_images\results_problem_6,,C:\Users\subject\Desktop\SVRT Experiments\SVRT Experiment 3\svrt_images\generated_images\results_problem_6\sample_1_0007.png,,,,,,,,,,,,,,,,,,,,,,0,1,1,1,0,7,7,7,,,,,,,,,,,,,,f,6,A,A,27,1,Correct!,0.42534040100872517,286.8627091012895,None,286.8627091012895,None,287.31267780065536,None,,,,,105,001,2023-10-06_15h38.11.969,colored_shuffled,2021.2.3,59.99250036353358,
C:\Users\subject\Desktop\SVRT Experiments\SVRT Experiment 3\svrt_images\generated_images\results_problem_6,,C:\Users\subject\Desktop\SVRT Experiments\SVRT Experiment 3\svrt_images\generated_images\results_problem_6\sample_1_0005.png,,,,,,,,,,,,,,,,,,,,,,0,1,1,1,0,8,8,8,,,,,,,,,,,,,,f,6,A,A,27,1,Correct!,0.29219939932227135,288.39599910005927,None,288.39599910005927,None,288.712699200958,None,,,,,105,001,2023-10-06_15h38.11.969,colored_shuffled,2021.2.3,59.99250036353358,
C:\Users\subject\Desktop\SVRT Experiments\SVRT Experiment 3\svrt_images\generated_images\results_problem_6,,C:\Users\subject\Desktop\SVRT Experiments\SVRT Experiment 3\svrt_images\generated_images\results_problem_6\sample_0_0009.png,,,,,,,,,,,,,,,,,,,,,,0,1,1,1,0,9,9,9,,,,,,,,,,,,,,f,6,A,B,27,0,Incorrect!,0.30739940144121647,289.8126853015274,None,289.8126853015274,None,290.14598460122943,None,,,,,105,001,2023-10-06_15h38.11.969,colored_shuffled,2021.2.3,59.99250036353358,
C:\Users\subject\Desktop\SVRT Experiments\SVRT Experiment 3\svrt_images\generated_images\results_problem_6,,C:\Users\subject\Desktop\SVRT Experiments\SVRT Experiment 3\svrt_images\generated_images\results_problem_6\sample_0_0006.png,,,,,,,,,,,,,,,,,,,,,,0,1,1,1,0,10,10,10,,,,,,,,,,,,,,j,6,B,B,27,1,Correct!,0.30552629940211773,291.2626887001097,None,291.2626887001097,None,291.5959200002253,None,,,,,105,001,2023-10-06_15h38.11.969,colored_shuffled,2021.2.3,59.99250036353358,
C:\Users\subject\Desktop\SVRT Experiments\SVRT Experiment 3\svrt_images\generated_images\results_problem_6,,C:\Users\subject\Desktop\SVRT Experiments\SVRT Experiment 3\svrt_images\generated_images\results_problem_6\sample_0_0010.png,,,,,,,,,,,,,,,,,,,,,,0,1,1,1,0,11,11,11,,,,,,,,,,,,,,j,6,B,B,27,1,Correct!,0.4228882994502783,292.7293258998543,None,292.7293258998543,None,293.17930740118027,None,,,,,105,001,2023-10-06_15h38.11.969,colored_shuffled,2021.2.3,59.99250036353358,
C:\Users\subject\Desktop\SVRT Experiments\SVRT Experiment 3\svrt_images\generated_images\results_problem_6,,C:\Users\subject\Desktop\SVRT Experiments\SVRT Experiment 3\svrt_images\generated_images\results_problem_6\sample_1_0000.png,,,,,,,,,,,,,,,,,,,,,,0,1,1,1,0,12,12,12,,,,,,,,,,,,,,j,6,B,A,27,0,Incorrect!,0.6075273994356394,294.31261880137026,None,294.31261880137026,None,294.9625618997961,None,,,,,105,001,2023-10-06_15h38.11.969,colored_shuffled,2021.2.3,59.99250036353358,
C:\Users\subject\Desktop\SVRT Experiments\SVRT Experiment 3\svrt_images\generated_images\results_problem_6,,C:\Users\subject\Desktop\SVRT Experiments\SVRT Experiment 3\svrt_images\generated_images\results_problem_6\sample_1_0003.png,,,,,,,,,,,,,,,,,,,,,,0,1,1,1,0,13,13,13,,,,,,,,,,,,,,f,6,A,A,27,1,Correct!,0.183644600212574,296.11256100051105,None,296.11256100051105,None,296.32924920134246,None,,,,,105,001,2023-10-06_15h38.11.969,colored_shuffled,2021.2.3,59.99250036353358,
C:\Users\subject\Desktop\SVRT Experiments\SVRT Experiment 3\svrt_images\generated_images\results_problem_6,,C:\Users\subject\Desktop\SVRT Experiments\SVRT Experiment 3\svrt_images\generated_images\results_problem_6\sample_1_0006.png,,,,,,,,,,,,,,,,,,,,,,0,1,1,1,0,14,14,14,,,,,,,,,,,,,,f,6,A,A,27,1,Correct!,0.2082595992833376,297.49589030072093,None,297.49589030072093,None,297.74585659988225,None,,,,,105,001,2023-10-06_15h38.11.969,colored_shuffled,2021.2.3,59.99250036353358,
C:\Users\subject\Desktop\SVRT Experiments\SVRT Experiment 3\svrt_images\generated_images\results_problem_6,,C:\Users\subject\Desktop\SVRT Experiments\SVRT Experiment 3\svrt_images\generated_images\results_problem_6\sample_1_0014.png,,,,,,,,,,,,,,,,,,,,,,0,1,1,1,0,15,15,15,,,,,,,,,,,,,,f,6,A,A,27,1,Correct!,0.21499340049922466,298.9292026013136,None,298.9292026013136,None,299.17918400093913,None,,,,,105,001,2023-10-06_15h38.11.969,colored_shuffled,2021.2.3,59.99250036353358,
C:\Users\subject\Desktop\SVRT Experiments\SVRT Experiment 3\svrt_images\generated_images\results_problem_6,,C:\Users\subject\Desktop\SVRT Experiments\SVRT Experiment 3\svrt_images\generated_images\results_problem_6\sample_0_0007.png,,,,,,,,,,,,,,,,,,,,,,0,1,1,1,0,16,16,16,,,,,,,,,,,,,,f,6,A,B,27,0,Incorrect!,0.3169571999460459,300.37917380034924,None,300.37917380034924,None,300.7291644010693,None,,,,,105,001,2023-10-06_15h38.11.969,colored_shuffled,2021.2.3,59.99250036353358,
C:\Users\subject\Desktop\SVRT Experiments\SVRT Experiment 3\svrt_images\generated_images\results_problem_6,,C:\Users\subject\Desktop\SVRT Experiments\SVRT Experiment 3\svrt_images\generated_images\results_problem_6\sample_0_0004.png,,,,,,,,,,,,,,,,,,,,,,0,1,1,1,0,17,17,17,,,,,,,,,,,,,,j,6,B,B,27,1,Correct!,0.3022750001400709,301.9458181001246,None,301.9458181001246,None,302.2791297007352,None,,,,,105,001,2023-10-06_15h38.11.969,colored_shuffled,2021.2.3,59.99250036353358,
C:\Users\subject\Desktop\SVRT Experiments\SVRT Experiment 3\svrt_images\generated_images\results_problem_6,,C:\Users\subject\Desktop\SVRT Experiments\SVRT Experiment 3\svrt_images\generated_images\results_problem_6\sample_1_0013.png,,,,,,,,,,,,,,,,,,,,,,0,1,1,1,0,18,18,18,,,,,,,,,,,,,,j,6,B,A,27,0,Incorrect!,0.23176000081002712,303.5124746002257,None,303.5124746002257,None,303.77913360111415,None,,,,,105,001,2023-10-06_15h38.11.969,colored_shuffled,2021.2.3,59.99250036353358,
C:\Users\subject\Desktop\SVRT Experiments\SVRT Experiment 3\svrt_images\generated_images\results_problem_6,,C:\Users\subject\Desktop\SVRT Experiments\SVRT Experiment 3\svrt_images\generated_images\results_problem_6\sample_0_0000.png,,,,,,,,,,,,,,,,,,,,,,0,1,1,1,0,19,19,19,,,,,,,,,,,,,,f,6,A,B,27,0,Incorrect!,0.22774670086801052,305.012436600402,None,305.012436600402,None,305.2791017014533,None,,,,,105,001,2023-10-06_15h38.11.969,colored_shuffled,2021.2.3,59.99250036353358,
C:\Users\subject\Desktop\SVRT Experiments\SVRT Experiment 3\svrt_images\generated_images\results_problem_6,,C:\Users\subject\Desktop\SVRT Experiments\SVRT Experiment 3\svrt_images\generated_images\results_problem_6\sample_1_0016.png,,,,,,,,,,,,,,,,,,,,,,0,1,1,1,0,20,20,20,,,,,,,,,,,,,,j,6,B,A,27,0,Incorrect!,0.19906510040163994,306.5291013997048,None,306.5291013997048,None,306.745717599988,None,,,,,105,001,2023-10-06_15h38.11.969,colored_shuffled,2021.2.3,59.99250036353358,
C:\Users\subject\Desktop\SVRT Experiments\SVRT Experiment 3\svrt_images\generated_images\results_problem_6,,C:\Users\subject\Desktop\SVRT Experiments\SVRT Experiment 3\svrt_images\generated_images\results_problem_6\sample_0_0016.png,,,,,,,,,,,,,,,,,,,,,,0,1,1,1,0,21,21,21,,,,,,,,,,,,,,j,6,B,B,27,1,Correct!,0.34792849980294704,308.01239130087197,None,308.01239130087197,None,308.37904130108654,None,,,,,105,001,2023-10-06_15h38.11.969,colored_shuffled,2021.2.3,59.99250036353358,
C:\Users\subject\Desktop\SVRT Experiments\SVRT Experiment 3\svrt_images\generated_images\results_problem_6,,C:\Users\subject\Desktop\SVRT Experiments\SVRT Experiment 3\svrt_images\generated_images\results_problem_6\sample_0_0014.png,,,,,,,,,,,,,,,,,,,,,,0,1,1,1,0,22,22,22,,,,,,,,,,,,,,j,6,B,B,27,1,Correct!,0.2577855996787548,309.66237400099635,None,309.66237400099635,None,309.94568150117993,None,,,,,105,001,2023-10-06_15h38.11.969,colored_shuffled,2021.2.3,59.99250036353358,
C:\Users\subject\Desktop\SVRT Experiments\SVRT Experiment 3\svrt_images\generated_images\results_problem_6,,C:\Users\subject\Desktop\SVRT Experiments\SVRT Experiment 3\svrt_images\generated_images\results_problem_6\sample_0_0001.png,,,,,,,,,,,,,,,,,,,,,,0,1,1,1,0,23,23,23,,,,,,,,,,,,,,j,6,B,B,27,1,Correct!,0.16249649971723557,311.245695900172,None,311.245695900172,None,311.46231480129063,None,,,,,105,001,2023-10-06_15h38.11.969,colored_shuffled,2021.2.3,59.99250036353358,
C:\Users\subject\Desktop\SVRT Experiments\SVRT Experiment 3\svrt_images\generated_images\results_problem_6,,C:\Users\subject\Desktop\SVRT Experiments\SVRT Experiment 3\svrt_images\generated_images\results_problem_6\sample_0_0003.png,,,,,,,,,,,,,,,,,,,,,,0,1,1,1,0,24,24,24,,,,,,,,,,,,,,j,6,B,B,27,1,Correct!,0.2852537985891104,312.77897930145264,None,312.77897930145264,None,313.12894329987466,None,,,,,105,001,2023-10-06_15h38.11.969,colored_shuffled,2021.2.3,59.99250036353358,
C:\Users\subject\Desktop\SVRT Experiments\SVRT Experiment 3\svrt_images\generated_images\results_problem_6,,C:\Users\subject\Desktop\SVRT Experiments\SVRT Experiment 3\svrt_images\generated_images\results_problem_6\sample_0_0012.png,,,,,,,,,,,,,,,,,,,,,,0,1,1,1,0,25,25,25,,,,,,,,,,,,,,j,6,B,B,27,1,Correct!,0.3298813998699188,314.4622979015112,None,314.4622979015112,None,314.8122847005725,None,,,,,105,001,2023-10-06_15h38.11.969,colored_shuffled,2021.2.3,59.99250036353358,
C:\Users\subject\Desktop\SVRT Experiments\SVRT Experiment 3\svrt_images\generated_images\results_problem_6,,C:\Users\subject\Desktop\SVRT Experiments\SVRT Experiment 3\svrt_images\generated_images\results_problem_6\sample_0_0005.png,,,,,,,,,,,,,,,,,,,,,,0,1,1,1,0,26,26,26,,,,,,,,,,,,,,j,6,B,B,27,1,Correct!,0.3178301006555557,316.1622819006443,None,316.1622819006443,None,316.5122376997024,None,,,,,105,001,2023-10-06_15h38.11.969,colored_shuffled,2021.2.3,59.99250036353358,
C:\Users\subject\Desktop\SVRT Experiments\SVRT Experiment 3\svrt_images\generated_images\results_problem_6,,C:\Users\subject\Desktop\SVRT Experiments\SVRT Experiment 3\svrt_images\generated_images\results_problem_6\sample_0_0013.png,,,,,,,,,,,,,,,,,,,,,,0,1,1,1,0,27,27,27,,,,,,,,,,,,,,j,6,B,B,27,1,Correct!,0.42534390091896057,317.87891600094736,None,317.87891600094736,None,318.3955595009029,None,,,,,105,001,2023-10-06_15h38.11.969,colored_shuffled,2021.2.3,59.99250036353358,
C:\Users\subject\Desktop\SVRT Experiments\SVRT Experiment 3\svrt_images\generated_images\results_problem_6,,C:\Users\subject\Desktop\SVRT Experiments\SVRT Experiment 3\svrt_images\generated_images\results_problem_6\sample_1_0008.png,,,,,,,,,,,,,,,,,,,,,,0,1,1,1,0,28,28,28,,,,,,,,,,,,,,,,,,,,,,,,,,,,319.3955579008907,319.3955579008907,space,1.22062679938972,105,001,2023-10-06_15h38.11.969,colored_shuffled,2021.2.3,59.99250036353358,
C:\Users\subject\Desktop\SVRT Experiments\SVRT Experiment 3\svrt_images\generated_images\results_problem_17,,C:\Users\subject\Desktop\SVRT Experiments\SVRT Experiment 3\svrt_images\generated_images\results_problem_6\sample_1_0008.png,C:\Users\subject\Desktop\SVRT Experiments\SVRT Experiment 3\svrt_images\generated_images\results_problem_17\sample_0_0013.png,,,,,,,,,,,,,,,,,,,,,0,2,2,2,0,0,0,0,,,,,,,,,,,,,,f,17,A,B,27,0,Incorrect!,1.066525999456644,320.6454793009907,None,320.6454793009907,None,321.72884589992464,None,,,,,105,001,2023-10-06_15h38.11.969,colored_shuffled,2021.2.3,59.99250036353358,
C:\Users\subject\Desktop\SVRT Experiments\SVRT Experiment 3\svrt_images\generated_images\results_problem_17,,C:\Users\subject\Desktop\SVRT Experiments\SVRT Experiment 3\svrt_images\generated_images\results_problem_6\sample_1_0008.png,C:\Users\subject\Desktop\SVRT Experiments\SVRT Experiment 3\svrt_images\generated_images\results_problem_17\sample_1_0008.png,,,,,,,,,,,,,,,,,,,,,0,2,2,2,0,1,1,1,,,,,,,,,,,,,,j,17,B,A,27,0,Incorrect!,0.5587865989655256,322.7455154005438,None,322.7455154005438,None,323.32883720099926,None,,,,,105,001,2023-10-06_15h38.11.969,colored_shuffled,2021.2.3,59.99250036353358,
C:\Users\subject\Desktop\SVRT Experiments\SVRT Experiment 3\svrt_images\generated_images\results_problem_17,,C:\Users\subject\Desktop\SVRT Experiments\SVRT Experiment 3\svrt_images\generated_images\results_problem_6\sample_1_0008.png,C:\Users\subject\Desktop\SVRT Experiments\SVRT Experiment 3\svrt_images\generated_images\results_problem_17\sample_1_0004.png,,,,,,,,,,,,,,,,,,,,,0,2,2,2,0,2,2,2,,,,,,,,,,,,,,f,17,A,A,27,1,Correct!,0.2226502988487482,324.34547170065343,None,324.34547170065343,None,324.5954472012818,None,,,,,105,001,2023-10-06_15h38.11.969,colored_shuffled,2021.2.3,59.99250036353358,
C:\Users\subject\Desktop\SVRT Experiments\SVRT Experiment 3\svrt_images\generated_images\results_problem_17,,C:\Users\subject\Desktop\SVRT Experiments\SVRT Experiment 3\svrt_images\generated_images\results_problem_6\sample_1_0008.png,C:\Users\subject\Desktop\SVRT Experiments\SVRT Experiment 3\svrt_images\generated_images\results_problem_17\sample_1_0001.png,,,,,,,,,,,,,,,,,,,,,0,2,2,2,0,3,3,3,,,,,,,,,,,,,,f,17,A,A,27,1,Correct!,0.22714520059525967,325.62881870009005,None,325.62881870009005,None,325.8787801004946,None,,,,,105,001,2023-10-06_15h38.11.969,colored_shuffled,2021.2.3,59.99250036353358,
C:\Users\subject\Desktop\SVRT Experiments\SVRT Experiment 3\svrt_images\generated_images\results_problem_17,,C:\Users\subject\Desktop\SVRT Experiments\SVRT Experiment 3\svrt_images\generated_images\results_problem_6\sample_1_0008.png,C:\Users\subject\Desktop\SVRT Experiments\SVRT Experiment 3\svrt_images\generated_images\results_problem_17\sample_1_0005.png,,,,,,,,,,,,,,,,,,,,,0,2,2,2,0,4,4,4,,,,,,,,,,,,,,f,17,A,A,27,1,Correct!,0.20727960020303726,326.92878550104797,None,326.92878550104797,None,327.1620188001543,None,,,,,105,001,2023-10-06_15h38.11.969,colored_shuffled,2021.2.3,59.99250036353358,
C:\Users\subject\Desktop\SVRT Experiments\SVRT Experiment 3\svrt_images\generated_images\results_problem_17,,C:\Users\subject\Desktop\SVRT Experiments\SVRT Experiment 3\svrt_images\generated_images\results_problem_6\sample_1_0008.png,C:\Users\subject\Desktop\SVRT Experiments\SVRT Experiment 3\svrt_images\generated_images\results_problem_17\sample_1_0014.png,,,,,,,,,,,,,,,,,,,,,0,2,2,2,0,5,5,5,,,,,,,,,,,,,,f,17,A,A,27,1,Correct!,0.20409470051527023,328.2120840009302,None,328.2120840009302,None,328.4453957006335,None,,,,,105,001,2023-10-06_15h38.11.969,colored_shuffled,2021.2.3,59.99250036353358,
C:\Users\subject\Desktop\SVRT Experiments\SVRT Experiment 3\svrt_images\generated_images\results_problem_17,,C:\Users\subject\Desktop\SVRT Experiments\SVRT Experiment 3\svrt_images\generated_images\results_problem_6\sample_1_0008.png,C:\Users\subject\Desktop\SVRT Experiments\SVRT Experiment 3\svrt_images\generated_images\results_problem_17\sample_1_0000.png,,,,,,,,,,,,,,,,,,,,,0,2,2,2,0,6,6,6,,,,,,,,,,,,,,f,17,A,A,27,1,Correct!,0.30399779975414276,329.51206750050187,None,329.51206750050187,None,329.84538390114903,None,,,,,105,001,2023-10-06_15h38.11.969,colored_shuffled,2021.2.3,59.99250036353358,
C:\Users\subject\Desktop\SVRT Experiments\SVRT Experiment 3\svrt_images\generated_images\results_problem_17,,C:\Users\subject\Desktop\SVRT Experiments\SVRT Experiment 3\svrt_images\generated_images\results_problem_6\sample_1_0008.png,C:\Users\subject\Desktop\SVRT Experiments\SVRT Experiment 3\svrt_images\generated_images\results_problem_17\sample_1_0003.png,,,,,,,,,,,,,,,,,,,,,0,2,2,2,0,7,7,7,,,,,,,,,,,,,,f,17,A,A,27,1,Correct!,0.287466699257493,330.92868850007653,None,330.92868850007653,None,331.24534939974546,None,,,,,105,001,2023-10-06_15h38.11.969,colored_shuffled,2021.2.3,59.99250036353358,
C:\Users\subject\Desktop\SVRT Experiments\SVRT Experiment 3\svrt_images\generated_images\results_problem_17,,C:\Users\subject\Desktop\SVRT Experiments\SVRT Experiment 3\svrt_images\generated_images\results_problem_6\sample_1_0008.png,C:\Users\subject\Desktop\SVRT Experiments\SVRT Experiment 3\svrt_images\generated_images\results_problem_17\sample_0_0002.png,,,,,,,,,,,,,,,,,,,,,0,2,2,2,0,8,8,8,,,,,,,,,,,,,,f,17,A,B,27,0,Incorrect!,0.24752900004386902,332.3286870010197,None,332.3286870010197,None,332.59532920084894,None,,,,,105,001,2023-10-06_15h38.11.969,colored_shuffled,2021.2.3,59.99250036353358,
C:\Users\subject\Desktop\SVRT Experiments\SVRT Experiment 3\svrt_images\generated_images\results_problem_17,,C:\Users\subject\Desktop\SVRT Experiments\SVRT Experiment 3\svrt_images\generated_images\results_problem_6\sample_1_0008.png,C:\Users\subject\Desktop\SVRT Experiments\SVRT Experiment 3\svrt_images\generated_images\results_problem_17\sample_0_0001.png,,,,,,,,,,,,,,,,,,,,,0,2,2,2,0,9,9,9,,,,,,,,,,,,,,j,17,B,B,27,1,Correct!,0.5288922004401684,333.695341700688,None,333.695341700688,None,334.2452968005091,None,,,,,105,001,2023-10-06_15h38.11.969,colored_shuffled,2021.2.3,59.99250036353358,
C:\Users\subject\Desktop\SVRT Experiments\SVRT Experiment 3\svrt_images\generated_images\results_problem_17,,C:\Users\subject\Desktop\SVRT Experiments\SVRT Experiment 3\svrt_images\generated_images\results_problem_6\sample_1_0008.png,C:\Users\subject\Desktop\SVRT Experiments\SVRT Experiment 3\svrt_images\generated_images\results_problem_17\sample_1_0009.png,,,,,,,,,,,,,,,,,,,,,0,2,2,2,0,10,10,10,,,,,,,,,,,,,,j,17,B,A,27,0,Incorrect!,0.20626400038599968,335.36196340061724,None,335.36196340061724,None,335.5952957998961,None,,,,,105,001,2023-10-06_15h38.11.969,colored_shuffled,2021.2.3,59.99250036353358,
C:\Users\subject\Desktop\SVRT Experiments\SVRT Experiment 3\svrt_images\generated_images\results_problem_17,,C:\Users\subject\Desktop\SVRT Experiments\SVRT Experiment 3\svrt_images\generated_images\results_problem_6\sample_1_0008.png,C:\Users\subject\Desktop\SVRT Experiments\SVRT Experiment 3\svrt_images\generated_images\results_problem_17\sample_1_0015.png,,,,,,,,,,,,,,,,,,,,,0,2,2,2,0,11,11,11,,,,,,,,,,,,,,f,17,A,A,27,1,Correct!,0.11954940110445023,336.7286306004971,None,336.7286306004971,None,336.8785901013762,None,,,,,105,001,2023-10-06_15h38.11.969,colored_shuffled,2021.2.3,59.99250036353358,
C:\Users\subject\Desktop\SVRT Experiments\SVRT Experiment 3\svrt_images\generated_images\results_problem_17,,C:\Users\subject\Desktop\SVRT Experiments\SVRT Experiment 3\svrt_images\generated_images\results_problem_6\sample_1_0008.png,C:\Users\subject\Desktop\SVRT Experiments\SVRT Experiment 3\svrt_images\generated_images\results_problem_17\sample_0_0012.png,,,,,,,,,,,,,,,,,,,,,0,2,2,2,0,12,12,12,,,,,,,,,,,,,,f,17,A,B,27,0,Incorrect!,0.0035295989364385605,338.0286006014794,None,338.0286006014794,None,338.0785729009658,None,,,,,105,001,2023-10-06_15h38.11.969,colored_shuffled,2021.2.3,59.99250036353358,
C:\Users\subject\Desktop\SVRT Experiments\SVRT Experiment 3\svrt_images\generated_images\results_problem_17,,C:\Users\subject\Desktop\SVRT Experiments\SVRT Experiment 3\svrt_images\generated_images\results_problem_6\sample_1_0008.png,C:\Users\subject\Desktop\SVRT Experiments\SVRT Experiment 3\svrt_images\generated_images\results_problem_17\sample_0_0006.png,,,,,,,,,,,,,,,,,,,,,0,2,2,2,0,13,13,13,,,,,,,,,,,,,,j,17,B,B,27,1,Correct!,0.21943889930844307,339.2285782005638,None,339.2285782005638,None,339.4785782005638,None,,,,,105,001,2023-10-06_15h38.11.969,colored_shuffled,2021.2.3,59.99250036353358,
C:\Users\subject\Desktop\SVRT Experiments\SVRT Experiment 3\svrt_images\generated_images\results_problem_17,,C:\Users\subject\Desktop\SVRT Experiments\SVRT Experiment 3\svrt_images\generated_images\results_problem_6\sample_1_0008.png,C:\Users\subject\Desktop\SVRT Experiments\SVRT Experiment 3\svrt_images\generated_images\results_problem_17\sample_1_0013.png,,,,,,,,,,,,,,,,,,,,,0,2,2,2,0,14,14,14,,,,,,,,,,,,,,j,17,B,A,27,0,Incorrect!,0.24300400167703629,340.6452089007944,None,340.6452089007944,None,340.9285503011197,None,,,,,105,001,2023-10-06_15h38.11.969,colored_shuffled,2021.2.3,59.99250036353358,
C:\Users\subject\Desktop\SVRT Experiments\SVRT Experiment 3\svrt_images\generated_images\results_problem_17,,C:\Users\subject\Desktop\SVRT Experiments\SVRT Experiment 3\svrt_images\generated_images\results_problem_6\sample_1_0008.png,C:\Users\subject\Desktop\SVRT Experiments\SVRT Experiment 3\svrt_images\generated_images\results_problem_17\sample_1_0016.png,,,,,,,,,,,,,,,,,,,,,0,2,2,2,0,15,15,15,,,,,,,,,,,,,,f,17,A,A,27,1,Correct!,0.22436550073325634,342.11188740096986,None,342.11188740096986,None,342.36189080029726,None,,,,,105,001,2023-10-06_15h38.11.969,colored_shuffled,2021.2.3,59.99250036353358,
C:\Users\subject\Desktop\SVRT Experiments\SVRT Experiment 3\svrt_images\generated_images\results_problem_17,,C:\Users\subject\Desktop\SVRT Experiments\SVRT Experiment 3\svrt_images\generated_images\results_problem_6\sample_1_0008.png,C:\Users\subject\Desktop\SVRT Experiments\SVRT Experiment 3\svrt_images\generated_images\results_problem_17\sample_0_0011.png,,,,,,,,,,,,,,,,,,,,,0,2,2,2,0,16,16,16,,,,,,,,,,,,,,f,17,A,B,27,0,Incorrect!,0.19029930047690868,343.56186740100384,None,343.56186740100384,None,343.7784895002842,None,,,,,105,001,2023-10-06_15h38.11.969,colored_shuffled,2021.2.3,59.99250036353358,
C:\Users\subject\Desktop\SVRT Experiments\SVRT Experiment 3\svrt_images\generated_images\results_problem_17,,C:\Users\subject\Desktop\SVRT Experiments\SVRT Experiment 3\svrt_images\generated_images\results_problem_6\sample_1_0008.png,C:\Users\subject\Desktop\SVRT Experiments\SVRT Experiment 3\svrt_images\generated_images\results_problem_17\sample_0_0015.png,,,,,,,,,,,,,,,,,,,,,0,2,2,2,0,17,17,17,,,,,,,,,,,,,,j,17,B,B,27,1,Correct!,0.32491870038211346,344.9951806999743,None,344.9951806999743,None,345.36183760128915,None,,,,,105,001,2023-10-06_15h38.11.969,colored_shuffled,2021.2.3,59.99250036353358,
C:\Users\subject\Desktop\SVRT Experiments\SVRT Experiment 3\svrt_images\generated_images\results_problem_17,,C:\Users\subject\Desktop\SVRT Experiments\SVRT Experiment 3\svrt_images\generated_images\results_problem_6\sample_1_0008.png,C:\Users\subject\Desktop\SVRT Experiments\SVRT Experiment 3\svrt_images\generated_images\results_problem_17\sample_1_0002.png,,,,,,,,,,,,,,,,,,,,,0,2,2,2,0,18,18,18,,,,,,,,,,,,,,j,17,B,A,27,0,Incorrect!,0.22893269918859005,346.5951535999775,None,346.5951535999775,None,346.86178500019014,None,,,,,105,001,2023-10-06_15h38.11.969,colored_shuffled,2021.2.3,59.99250036353358,
C:\Users\subject\Desktop\SVRT Experiments\SVRT Experiment 3\svrt_images\generated_images\results_problem_17,,C:\Users\subject\Desktop\SVRT Experiments\SVRT Experiment 3\svrt_images\generated_images\results_problem_6\sample_1_0008.png,C:\Users\subject\Desktop\SVRT Experiments\SVRT Experiment 3\svrt_images\generated_images\results_problem_17\sample_1_0011.png,,,,,,,,,,,,,,,,,,,,,0,2,2,2,0,19,19,19,,,,,,,,,,,,,,f,17,A,A,27,1,Correct!,0.1769517995417118,348.0951298009604,None,348.0951298009604,None,348.3117737006396,None,,,,,105,001,2023-10-06_15h38.11.969,colored_shuffled,2021.2.3,59.99250036353358,
C:\Users\subject\Desktop\SVRT Experiments\SVRT Experiment 3\svrt_images\generated_images\results_problem_17,,C:\Users\subject\Desktop\SVRT Experiments\SVRT Experiment 3\svrt_images\generated_images\results_problem_6\sample_1_0008.png,C:\Users\subject\Desktop\SVRT Experiments\SVRT Experiment 3\svrt_images\generated_images\results_problem_17\sample_0_0014.png,,,,,,,,,,,,,,,,,,,,,0,2,2,2,0,20,20,20,,,,,,,,,,,,,,f,17,A,B,27,0,Incorrect!,0.15767939947545528,349.72246790118515,None,349.72246790118515,None,349.9117416013032,None,,,,,105,001,2023-10-06_15h38.11.969,colored_shuffled,2021.2.3,59.99250036353358,
C:\Users\subject\Desktop\SVRT Experiments\SVRT Experiment 3\svrt_images\generated_images\results_problem_17,,C:\Users\subject\Desktop\SVRT Experiments\SVRT Experiment 3\svrt_images\generated_images\results_problem_6\sample_1_0008.png,C:\Users\subject\Desktop\SVRT Experiments\SVRT Experiment 3\svrt_images\generated_images\results_problem_17\sample_0_0005.png,,,,,,,,,,,,,,,,,,,,,0,2,2,2,0,21,21,21,,,,,,,,,,,,,,j,17,B,B,27,1,Correct!,0.2219007983803749,351.1784218996763,None,351.1784218996763,None,351.44504979997873,None,,,,,105,001,2023-10-06_15h38.11.969,colored_shuffled,2021.2.3,59.99250036353358,
C:\Users\subject\Desktop\SVRT Experiments\SVRT Experiment 3\svrt_images\generated_images\results_problem_17,,C:\Users\subject\Desktop\SVRT Experiments\SVRT Experiment 3\svrt_images\generated_images\results_problem_6\sample_1_0008.png,C:\Users\subject\Desktop\SVRT Experiments\SVRT Experiment 3\svrt_images\generated_images\results_problem_17\sample_0_0008.png,,,,,,,,,,,,,,,,,,,,,0,2,2,2,0,22,22,22,,,,,,,,,,,,,,j,17,B,B,27,1,Correct!,0.0158695001155138,352.7283772006631,None,352.7283772006631,None,352.81168520078063,None,,,,,105,001,2023-10-06_15h38.11.969,colored_shuffled,2021.2.3,59.99250036353358,
C:\Users\subject\Desktop\SVRT Experiments\SVRT Experiment 3\svrt_images\generated_images\results_problem_17,,C:\Users\subject\Desktop\SVRT Experiments\SVRT Experiment 3\svrt_images\generated_images\results_problem_6\sample_1_0008.png,C:\Users\subject\Desktop\SVRT Experiments\SVRT Experiment 3\svrt_images\generated_images\results_problem_17\sample_0_0016.png,,,,,,,,,,,,,,,,,,,,,0,2,2,2,0,23,23,23,,,,,,,,,,,,,,j,17,B,B,27,1,Correct!,0.16836600005626678,354.11168690025806,None,354.11168690025806,None,354.3283280003816,None,,,,,105,001,2023-10-06_15h38.11.969,colored_shuffled,2021.2.3,59.99250036353358,
C:\Users\subject\Desktop\SVRT Experiments\SVRT Experiment 3\svrt_images\generated_images\results_problem_17,,C:\Users\subject\Desktop\SVRT Experiments\SVRT Experiment 3\svrt_images\generated_images\results_problem_6\sample_1_0008.png,C:\Users\subject\Desktop\SVRT Experiments\SVRT Experiment 3\svrt_images\generated_images\results_problem_17\sample_1_0006.png,,,,,,,,,,,,,,,,,,,,,0,2,2,2,0,24,24,24,,,,,,,,,,,,,,j,17,B,A,27,0,Incorrect!,0.21923989988863468,355.6449795998633,None,355.6449795998633,None,355.9283039998263,None,,,,,105,001,2023-10-06_15h38.11.969,colored_shuffled,2021.2.3,59.99250036353358,
C:\Users\subject\Desktop\SVRT Experiments\SVRT Experiment 3\svrt_images\generated_images\results_problem_17,,C:\Users\subject\Desktop\SVRT Experiments\SVRT Experiment 3\svrt_images\generated_images\results_problem_6\sample_1_0008.png,C:\Users\subject\Desktop\SVRT Experiments\SVRT Experiment 3\svrt_images\generated_images\results_problem_17\sample_0_0010.png,,,,,,,,,,,,,,,,,,,,,0,2,2,2,0,25,25,25,,,,,,,,,,,,,,f,17,A,B,27,0,Incorrect!,0.24248040094971657,357.26166420057416,None,357.26166420057416,None,357.544927701354,None,,,,,105,001,2023-10-06_15h38.11.969,colored_shuffled,2021.2.3,59.99250036353358,
C:\Users\subject\Desktop\SVRT Experiments\SVRT Experiment 3\svrt_images\generated_images\results_problem_17,,C:\Users\subject\Desktop\SVRT Experiments\SVRT Experiment 3\svrt_images\generated_images\results_problem_6\sample_1_0008.png,C:\Users\subject\Desktop\SVRT Experiments\SVRT Experiment 3\svrt_images\generated_images\results_problem_17\sample_1_0012.png,,,,,,,,,,,,,,,,,,,,,0,2,2,2,0,26,26,26,,,,,,,,,,,,,,f,17,A,A,27,1,Correct!,0.25727060064673424,358.89490870013833,None,358.89490870013833,None,359.2448656000197,None,,,,,105,001,2023-10-06_15h38.11.969,colored_shuffled,2021.2.3,59.99250036353358,
C:\Users\subject\Desktop\SVRT Experiments\SVRT Experiment 3\svrt_images\generated_images\results_problem_17,,C:\Users\subject\Desktop\SVRT Experiments\SVRT Experiment 3\svrt_images\generated_images\results_problem_6\sample_1_0008.png,C:\Users\subject\Desktop\SVRT Experiments\SVRT Experiment 3\svrt_images\generated_images\results_problem_17\sample_0_0007.png,,,,,,,,,,,,,,,,,,,,,0,2,2,2,0,27,27,27,,,,,,,,,,,,,,f,17,A,B,27,0,Incorrect!,0.2526626009494066,360.61161080002785,None,360.61161080002785,None,360.96157530136406,None,,,,,105,001,2023-10-06_15h38.11.969,colored_shuffled,2021.2.3,59.99250036353358,
C:\Users\subject\Desktop\SVRT Experiments\SVRT Experiment 3\svrt_images\generated_images\results_problem_17,,C:\Users\subject\Desktop\SVRT Experiments\SVRT Experiment 3\svrt_images\generated_images\results_problem_6\sample_1_0008.png,C:\Users\subject\Desktop\SVRT Experiments\SVRT Experiment 3\svrt_images\generated_images\results_problem_17\sample_1_0010.png,,,,,,,,,,,,,,,,,,,,,0,2,2,2,0,28,28,28,,,,,,,,,,,,,,j,17,B,A,27,0,Incorrect!,0.271925400942564,362.32823850028217,None,362.32823850028217,None,362.67822059988976,None,,,,,105,001,2023-10-06_15h38.11.969,colored_shuffled,2021.2.3,59.99250036353358,
C:\Users\subject\Desktop\SVRT Experiments\SVRT Experiment 3\svrt_images\generated_images\results_problem_17,,C:\Users\subject\Desktop\SVRT Experiments\SVRT Experiment 3\svrt_images\generated_images\results_problem_6\sample_1_0008.png,C:\Users\subject\Desktop\SVRT Experiments\SVRT Experiment 3\svrt_images\generated_images\results_problem_17\sample_0_0004.png,,,,,,,,,,,,,,,,,,,,,0,2,2,2,0,29,29,29,,,,,,,,,,,,,,j,17,B,B,27,1,Correct!,0.2266630008816719,364.06155320070684,None,364.06155320070684,None,364.36154779978096,None,,,,,105,001,2023-10-06_15h38.11.969,colored_shuffled,2021.2.3,59.99250036353358,
C:\Users\subject\Desktop\SVRT Experiments\SVRT Experiment 3\svrt_images\generated_images\results_problem_17,,C:\Users\subject\Desktop\SVRT Experiments\SVRT Experiment 3\svrt_images\generated_images\results_problem_6\sample_1_0008.png,C:\Users\subject\Desktop\SVRT Experiments\SVRT Experiment 3\svrt_images\generated_images\results_problem_17\sample_1_0007.png,,,,,,,,,,,,,,,,,,,,,0,2,2,2,0,30,30,30,,,,,,,,,,,,,,j,17,B,A,27,0,Incorrect!,0.31000030040740967,365.77817559987307,None,365.77817559987307,None,366.1948532015085,None,,,,,105,001,2023-10-06_15h38.11.969,colored_shuffled,2021.2.3,59.99250036353358,
C:\Users\subject\Desktop\SVRT Experiments\SVRT Experiment 3\svrt_images\generated_images\results_problem_17,,C:\Users\subject\Desktop\SVRT Experiments\SVRT Experiment 3\svrt_images\generated_images\results_problem_6\sample_1_0008.png,C:\Users\subject\Desktop\SVRT Experiments\SVRT Experiment 3\svrt_images\generated_images\results_problem_17\sample_0_0000.png,,,,,,,,,,,,,,,,,,,,,0,2,2,2,0,31,31,31,,,,,,,,,,,,,,f,17,A,B,27,0,Incorrect!,0.22790469974279404,367.6281348001212,None,367.6281348001212,None,367.9447926003486,None,,,,,105,001,2023-10-06_15h38.11.969,colored_shuffled,2021.2.3,59.99250036353358,
C:\Users\subject\Desktop\SVRT Experiments\SVRT Experiment 3\svrt_images\generated_images\results_problem_17,,C:\Users\subject\Desktop\SVRT Experiments\SVRT Experiment 3\svrt_images\generated_images\results_problem_6\sample_1_0008.png,C:\Users\subject\Desktop\SVRT Experiments\SVRT Experiment 3\svrt_images\generated_images\results_problem_17\sample_0_0009.png,,,,,,,,,,,,,,,,,,,,,0,2,2,2,0,32,32,32,,,,,,,,,,,,,,f,17,A,B,27,0,Incorrect!,0.1980333011597395,369.3781385011971,None,369.3781385011971,None,369.61142450012267,None,,,,,105,001,2023-10-06_15h38.11.969,colored_shuffled,2021.2.3,59.99250036353358,
C:\Users\subject\Desktop\SVRT Experiments\SVRT Experiment 3\svrt_images\generated_images\results_problem_17,,C:\Users\subject\Desktop\SVRT Experiments\SVRT Experiment 3\svrt_images\generated_images\results_problem_6\sample_1_0008.png,C:\Users\subject\Desktop\SVRT Experiments\SVRT Experiment 3\svrt_images\generated_images\results_problem_17\sample_0_0003.png,,,,,,,,,,,,,,,,,,,,,0,2,2,2,0,33,33,33,,,,,,,,,,,,,,j,17,B,B,27,1,Correct!,0.16278420016169548,371.0614123009145,None,371.0614123009145,None,371.31140450015664,None,,,,,105,001,2023-10-06_15h38.11.969,colored_shuffled,2021.2.3,59.99250036353358,
C:\Users\subject\Desktop\SVRT Experiments\SVRT Experiment 3\svrt_images\generated_images\results_problem_17,,C:\Users\subject\Desktop\SVRT Experiments\SVRT Experiment 3\svrt_images\generated_images\results_problem_6\sample_1_0008.png,,,,,,,,,,,,,,,,,,,,,,0,2,2,2,0,28,28,28,,,,,,,,,,,,,,,,,,,,,,,,,,,,372.31138350069523,372.31138350069523,space,1.240829199552536,105,001,2023-10-06_15h38.11.969,colored_shuffled,2021.2.3,59.99250036353358,
C:\Users\subject\Desktop\SVRT Experiments\SVRT Experiment 3\svrt_images\generated_images\results_problem_10,,C:\Users\subject\Desktop\SVRT Experiments\SVRT Experiment 3\svrt_images\generated_images\results_problem_6\sample_1_0008.png,,C:\Users\subject\Desktop\SVRT Experiments\SVRT Experiment 3\svrt_images\generated_images\results_problem_10\sample_0_0010.png,,,,,,,,,,,,,,,,,,,,0,3,3,3,0,0,0,0,,,,,,,,,,,,,,f,10,A,B,27,0,Incorrect!,0.9980928990989923,373.5780497007072,None,373.5780497007072,None,374.5946785006672,None,,,,,105,001,2023-10-06_15h38.11.969,colored_shuffled,2021.2.3,59.99250036353358,
C:\Users\subject\Desktop\SVRT Experiments\SVRT Experiment 3\svrt_images\generated_images\results_problem_10,,C:\Users\subject\Desktop\SVRT Experiments\SVRT Experiment 3\svrt_images\generated_images\results_problem_6\sample_1_0008.png,,C:\Users\subject\Desktop\SVRT Experiments\SVRT Experiment 3\svrt_images\generated_images\results_problem_10\sample_1_0009.png,,,,,,,,,,,,,,,,,,,,0,3,3,3,0,1,1,1,,,,,,,,,,,,,,f,10,A,A,27,1,Correct!,0.33290139958262444,375.6113710999489,None,375.6113710999489,None,375.96136569976807,None,,,,,105,001,2023-10-06_15h38.11.969,colored_shuffled,2021.2.3,59.99250036353358,
C:\Users\subject\Desktop\SVRT Experiments\SVRT Experiment 3\svrt_images\generated_images\results_problem_10,,C:\Users\subject\Desktop\SVRT Experiments\SVRT Experiment 3\svrt_images\generated_images\results_problem_6\sample_1_0008.png,,C:\Users\subject\Desktop\SVRT Experiments\SVRT Experiment 3\svrt_images\generated_images\results_problem_10\sample_0_0000.png,,,,,,,,,,,,,,,,,,,,0,3,3,3,0,2,2,2,,,,,,,,,,,,,,f,10,A,B,27,0,Incorrect!,0.2622938007116318,376.97795080021024,None,376.97795080021024,None,377.2613180000335,None,,,,,105,001,2023-10-06_15h38.11.969,colored_shuffled,2021.2.3,59.99250036353358,
C:\Users\subject\Desktop\SVRT Experiments\SVRT Experiment 3\svrt_images\generated_images\results_problem_10,,C:\Users\subject\Desktop\SVRT Experiments\SVRT Experiment 3\svrt_images\generated_images\results_problem_6\sample_1_0008.png,,C:\Users\subject\Desktop\SVRT Experiments\SVRT Experiment 3\svrt_images\generated_images\results_problem_10\sample_1_0016.png,,,,,,,,,,,,,,,,,,,,0,3,3,3,0,3,3,3,,,,,,,,,,,,,,f,10,A,A,27,1,Correct!,0.4495780002325773,378.2946506012231,None,378.2946506012231,None,378.7612869013101,None,,,,,105,001,2023-10-06_15h38.11.969,colored_shuffled,2021.2.3,59.99250036353358,
C:\Users\subject\Desktop\SVRT Experiments\SVRT Experiment 3\svrt_images\generated_images\results_problem_10,,C:\Users\subject\Desktop\SVRT Experiments\SVRT Experiment 3\svrt_images\generated_images\results_problem_6\sample_1_0008.png,,C:\Users\subject\Desktop\SVRT Experiments\SVRT Experiment 3\svrt_images\generated_images\results_problem_10\sample_0_0008.png,,,,,,,,,,,,,,,,,,,,0,3,3,3,0,4,4,4,,,,,,,,,,,,,,f,10,A,B,27,0,Incorrect!,0.2207392007112503,379.8112886007875,None,379.8112886007875,None,380.0612877011299,None,,,,,105,001,2023-10-06_15h38.11.969,colored_shuffled,2021.2.3,59.99250036353358,
C:\Users\subject\Desktop\SVRT Experiments\SVRT Experiment 3\svrt_images\generated_images\results_problem_10,,C:\Users\subject\Desktop\SVRT Experiments\SVRT Experiment 3\svrt_images\generated_images\results_problem_6\sample_1_0008.png,,C:\Users\subject\Desktop\SVRT Experiments\SVRT Experiment 3\svrt_images\generated_images\results_problem_10\sample_1_0013.png,,,,,,,,,,,,,,,,,,,,0,3,3,3,0,5,5,5,,,,,,,,,,,,,,f,10,A,A,27,1,Correct!,0.2800674010068178,381.1120806001127,None,381.1120806001127,None,381.41126039996743,None,,,,,105,001,2023-10-06_15h38.11.969,colored_shuffled,2021.2.3,59.99250036353358,
C:\Users\subject\Desktop\SVRT Experiments\SVRT Experiment 3\svrt_images\generated_images\results_problem_10,,C:\Users\subject\Desktop\SVRT Experiments\SVRT Experiment 3\svrt_images\generated_images\results_problem_6\sample_1_0008.png,,C:\Users\subject\Desktop\SVRT Experiments\SVRT Experiment 3\svrt_images\generated_images\results_problem_10\sample_1_0011.png,,,,,,,,,,,,,,,,,,,,0,3,3,3,0,6,6,6,,,,,,,,,,,,,,j,10,B,A,27,0,Incorrect!,0.30615630000829697,382.477886300534,None,382.477886300534,None,382.81116460077465,None,,,,,105,001,2023-10-06_15h38.11.969,colored_shuffled,2021.2.3,59.99250036353358,
C:\Users\subject\Desktop\SVRT Experiments\SVRT Experiment 3\svrt_images\generated_images\results_problem_10,,C:\Users\subject\Desktop\SVRT Experiments\SVRT Experiment 3\svrt_images\generated_images\results_problem_6\sample_1_0008.png,,C:\Users\subject\Desktop\SVRT Experiments\SVRT Experiment 3\svrt_images\generated_images\results_problem_10\sample_1_0001.png,,,,,,,,,,,,,,,,,,,,0,3,3,3,0,7,7,7,,,,,,,,,,,,,,f,10,A,A,27,1,Correct!,0.4496209993958473,383.89456400088966,None,383.89456400088966,None,384.3612365014851,None,,,,,105,001,2023-10-06_15h38.11.969,colored_shuffled,2021.2.3,59.99250036353358,
C:\Users\subject\Desktop\SVRT Experiments\SVRT Experiment 3\svrt_images\generated_images\results_problem_10,,C:\Users\subject\Desktop\SVRT Experiments\SVRT Experiment 3\svrt_images\generated_images\results_problem_6\sample_1_0008.png,,C:\Users\subject\Desktop\SVRT Experiments\SVRT Experiment 3\svrt_images\generated_images\results_problem_10\sample_0_0007.png,,,,,,,,,,,,,,,,,,,,0,3,3,3,0,8,8,8,,,,,,,,,,,,,,f,10,A,B,27,0,Incorrect!,0.42699480056762695,385.4612015001476,None,385.4612015001476,None,385.91117279976606,None,,,,,105,001,2023-10-06_15h38.11.969,colored_shuffled,2021.2.3,59.99250036353358,
C:\Users\subject\Desktop\SVRT Experiments\SVRT Experiment 3\svrt_images\generated_images\results_problem_10,,C:\Users\subject\Desktop\SVRT Experiments\SVRT Experiment 3\svrt_images\generated_images\results_problem_6\sample_1_0008.png,,C:\Users\subject\Desktop\SVRT Experiments\SVRT Experiment 3\svrt_images\generated_images\results_problem_10\sample_1_0014.png,,,,,,,,,,,,,,,,,,,,0,3,3,3,0,9,9,9,,,,,,,,,,,,,,f,10,A,A,27,1,Correct!,0.27704490162432194,387.0111688002944,None,387.0111688002944,None,387.3111698012799,None,,,,,105,001,2023-10-06_15h38.11.969,colored_shuffled,2021.2.3,59.99250036353358,
C:\Users\subject\Desktop\SVRT Experiments\SVRT Experiment 3\svrt_images\generated_images\results_problem_10,,C:\Users\subject\Desktop\SVRT Experiments\SVRT Experiment 3\svrt_images\generated_images\results_problem_6\sample_1_0008.png,,C:\Users\subject\Desktop\SVRT Experiments\SVRT Experiment 3\svrt_images\generated_images\results_problem_10\sample_1_0005.png,,,,,,,,,,,,,,,,,,,,0,3,3,3,0,10,10,10,,,,,,,,,,,,,,j,10,B,A,27,0,Incorrect!,0.24423949979245663,388.42783530056477,None,388.42783530056477,None,388.6944671999663,None,,,,,105,001,2023-10-06_15h38.11.969,colored_shuffled,2021.2.3,59.99250036353358,
C:\Users\subject\Desktop\SVRT Experiments\SVRT Experiment 3\svrt_images\generated_images\results_problem_10,,C:\Users\subject\Desktop\SVRT Experiments\SVRT Experiment 3\svrt_images\generated_images\results_problem_6\sample_1_0008.png,,C:\Users\subject\Desktop\SVRT Experiments\SVRT Experiment 3\svrt_images\generated_images\results_problem_10\sample_0_0013.png,,,,,,,,,,,,,,,,,,,,0,3,3,3,0,11,11,11,,,,,,,,,,,,,,f,10,A,B,27,0,Incorrect!,0.2122220005840063,389.82781710103154,None,389.82781710103154,None,390.07779259979725,None,,,,,105,001,2023-10-06_15h38.11.969,colored_shuffled,2021.2.3,59.99250036353358,
C:\Users\subject\Desktop\SVRT Experiments\SVRT Experiment 3\svrt_images\generated_images\results_problem_10,,C:\Users\subject\Desktop\SVRT Experiments\SVRT Experiment 3\svrt_images\generated_images\results_problem_6\sample_1_0008.png,,C:\Users\subject\Desktop\SVRT Experiments\SVRT Experiment 3\svrt_images\generated_images\results_problem_10\sample_0_0009.png,,,,,,,,,,,,,,,,,,,,0,3,3,3,0,12,12,12,,,,,,,,,,,,,,j,10,B,B,27,1,Correct!,0.2529579997062683,391.21111579984426,None,391.21111579984426,None,391.49442160129547,None,,,,,105,001,2023-10-06_15h38.11.969,colored_shuffled,2021.2.3,59.99250036353358,
C:\Users\subject\Desktop\SVRT Experiments\SVRT Experiment 3\svrt_images\generated_images\results_problem_10,,C:\Users\subject\Desktop\SVRT Experiments\SVRT Experiment 3\svrt_images\generated_images\results_problem_6\sample_1_0008.png,,C:\Users\subject\Desktop\SVRT Experiments\SVRT Experiment 3\svrt_images\generated_images\results_problem_10\sample_0_0012.png,,,,,,,,,,,,,,,,,,,,0,3,3,3,0,13,13,13,,,,,,,,,,,,,,j,10,B,B,27,1,Correct!,0.26764429919421673,392.64442850090563,None,392.64442850090563,None,392.9610903002322,None,,,,,105,001,2023-10-06_15h38.11.969,colored_shuffled,2021.2.3,59.99250036353358,
C:\Users\subject\Desktop\SVRT Experiments\SVRT Experiment 3\svrt_images\generated_images\results_problem_10,,C:\Users\subject\Desktop\SVRT Experiments\SVRT Experiment 3\svrt_images\generated_images\results_problem_6\sample_1_0008.png,,C:\Users\subject\Desktop\SVRT Experiments\SVRT Experiment 3\svrt_images\generated_images\results_problem_10\sample_1_0015.png,,,,,,,,,,,,,,,,,,,,0,3,3,3,0,14,14,14,,,,,,,,,,,,,,j,10,B,A,27,0,Incorrect!,0.2482910007238388,394.1277424003929,None,394.1277424003929,None,394.4110700003803,None,,,,,105,001,2023-10-06_15h38.11.969,colored_shuffled,2021.2.3,59.99250036353358,
C:\Users\subject\Desktop\SVRT Experiments\SVRT Experiment 3\svrt_images\generated_images\results_problem_10,,C:\Users\subject\Desktop\SVRT Experiments\SVRT Experiment 3\svrt_images\generated_images\results_problem_6\sample_1_0008.png,,C:\Users\subject\Desktop\SVRT Experiments\SVRT Experiment 3\svrt_images\generated_images\results_problem_10\sample_1_0007.png,,,,,,,,,,,,,,,,,,,,0,3,3,3,0,15,15,15,,,,,,,,,,,,,,f,10,A,A,27,1,Correct!,0.21379990130662918,395.5944039002061,None,395.5944039002061,None,395.8443534001708,None,,,,,105,001,2023-10-06_15h38.11.969,colored_shuffled,2021.2.3,59.99250036353358,
C:\Users\subject\Desktop\SVRT Experiments\SVRT Experiment 3\svrt_images\generated_images\results_problem_10,,C:\Users\subject\Desktop\SVRT Experiments\SVRT Experiment 3\svrt_images\generated_images\results_problem_6\sample_1_0008.png,,C:\Users\subject\Desktop\SVRT Experiments\SVRT Experiment 3\svrt_images\generated_images\results_problem_10\sample_0_0011.png,,,,,,,,,,,,,,,,,,,,0,3,3,3,0,16,16,16,,,,,,,,,,,,,,f,10,A,B,27,0,Incorrect!,0.25180310010910034,397.0443597007543,None,397.0443597007543,None,397.32766660116613,None,,,,,105,001,2023-10-06_15h38.11.969,colored_shuffled,2021.2.3,59.99250036353358,
C:\Users\subject\Desktop\SVRT Experiments\SVRT Experiment 3\svrt_images\generated_images\results_problem_10,,C:\Users\subject\Desktop\SVRT Experiments\SVRT Experiment 3\svrt_images\generated_images\results_problem_6\sample_1_0008.png,,C:\Users\subject\Desktop\SVRT Experiments\SVRT Experiment 3\svrt_images\generated_images\results_problem_10\sample_0_0003.png,,,,,,,,,,,,,,,,,,,,0,3,3,3,0,17,17,17,,,,,,,,,,,,,,j,10,B,B,27,1,Correct!,0.5996195003390312,398.54433520138264,None,398.54433520138264,None,399.16097450070083,None,,,,,105,001,2023-10-06_15h38.11.969,colored_shuffled,2021.2.3,59.99250036353358,
C:\Users\subject\Desktop\SVRT Experiments\SVRT Experiment 3\svrt_images\generated_images\results_problem_10,,C:\Users\subject\Desktop\SVRT Experiments\SVRT Experiment 3\svrt_images\generated_images\results_problem_6\sample_1_0008.png,,C:\Users\subject\Desktop\SVRT Experiments\SVRT Experiment 3\svrt_images\generated_images\results_problem_10\sample_0_0001.png,,,,,,,,,,,,,,,,,,,,0,3,3,3,0,18,18,18,,,,,,,,,,,,,,j,10,B,B,27,1,Correct!,0.21381939947605133,400.39431419968605,None,400.39431419968605,None,400.66091649979353,None,,,,,105,001,2023-10-06_15h38.11.969,colored_shuffled,2021.2.3,59.99250036353358,
C:\Users\subject\Desktop\SVRT Experiments\SVRT Experiment 3\svrt_images\generated_images\results_problem_10,,C:\Users\subject\Desktop\SVRT Experiments\SVRT Experiment 3\svrt_images\generated_images\results_problem_6\sample_1_0008.png,,C:\Users\subject\Desktop\SVRT Experiments\SVRT Experiment 3\svrt_images\generated_images\results_problem_10\sample_1_0003.png,,,,,,,,,,,,,,,,,,,,0,3,3,3,0,19,19,19,,,,,,,,,,,,,,j,10,B,A,27,0,Incorrect!,0.2812873013317585,401.9109013006091,None,401.9109013006091,None,402.2275828998536,None,,,,,105,001,2023-10-06_15h38.11.969,colored_shuffled,2021.2.3,59.99250036353358,
C:\Users\subject\Desktop\SVRT Experiments\SVRT Experiment 3\svrt_images\generated_images\results_problem_10,,C:\Users\subject\Desktop\SVRT Experiments\SVRT Experiment 3\svrt_images\generated_images\results_problem_6\sample_1_0008.png,,C:\Users\subject\Desktop\SVRT Experiments\SVRT Experiment 3\svrt_images\generated_images\results_problem_10\sample_0_0006.png,,,,,,,,,,,,,,,,,,,,0,3,3,3,0,20,20,20,,,,,,,,,,,,,,f,10,A,B,27,0,Incorrect!,0.20256780087947845,403.47759100049734,None,403.47759100049734,None,403.7442755997181,None,,,,,105,001,2023-10-06_15h38.11.969,colored_shuffled,2021.2.3,59.99250036353358,
C:\Users\subject\Desktop\SVRT Experiments\SVRT Experiment 3\svrt_images\generated_images\results_problem_10,,C:\Users\subject\Desktop\SVRT Experiments\SVRT Experiment 3\svrt_images\generated_images\results_problem_6\sample_1_0008.png,,C:\Users\subject\Desktop\SVRT Experiments\SVRT Experiment 3\svrt_images\generated_images\results_problem_10\sample_1_0000.png,,,,,,,,,,,,,,,,,,,,0,3,3,3,0,21,21,21,,,,,,,,,,,,,,f,10,A,A,27,1,Correct!,0.4132282994687557,405.01089020073414,None,405.01089020073414,None,405.47753780148923,None,,,,,105,001,2023-10-06_15h38.11.969,colored_shuffled,2021.2.3,59.99250036353358,
C:\Users\subject\Desktop\SVRT Experiments\SVRT Experiment 3\svrt_images\generated_images\results_problem_10,,C:\Users\subject\Desktop\SVRT Experiments\SVRT Experiment 3\svrt_images\generated_images\results_problem_6\sample_1_0008.png,,C:\Users\subject\Desktop\SVRT Experiments\SVRT Experiment 3\svrt_images\generated_images\results_problem_10\sample_1_0010.png,,,,,,,,,,,,,,,,,,,,0,3,3,3,0,22,22,22,,,,,,,,,,,,,,f,10,A,A,27,1,Correct!,0.2473048996180296,406.76088109984994,None,406.76088109984994,None,407.0441781003028,None,,,,,105,001,2023-10-06_15h38.11.969,colored_shuffled,2021.2.3,59.99250036353358,
C:\Users\subject\Desktop\SVRT Experiments\SVRT Experiment 3\svrt_images\generated_images\results_problem_10,,C:\Users\subject\Desktop\SVRT Experiments\SVRT Experiment 3\svrt_images\generated_images\results_problem_6\sample_1_0008.png,,C:\Users\subject\Desktop\SVRT Experiments\SVRT Experiment 3\svrt_images\generated_images\results_problem_10\sample_0_0015.png,,,,,,,,,,,,,,,,,,,,0,3,3,3,0,23,23,23,,,,,,,,,,,,,,f,10,A,B,27,0,Incorrect!,0.27999410033226013,408.3442008011043,None,408.3442008011043,None,408.6941700000316,None,,,,,105,001,2023-10-06_15h38.11.969,colored_shuffled,2021.2.3,59.99250036353358,
C:\Users\subject\Desktop\SVRT Experiments\SVRT Experiment 3\svrt_images\generated_images\results_problem_10,,C:\Users\subject\Desktop\SVRT Experiments\SVRT Experiment 3\svrt_images\generated_images\results_problem_6\sample_1_0008.png,,C:\Users\subject\Desktop\SVRT Experiments\SVRT Experiment 3\svrt_images\generated_images\results_problem_10\sample_1_0004.png,,,,,,,,,,,,,,,,,,,,0,3,3,3,0,24,24,24,,,,,,,,,,,,,,j,10,B,A,27,0,Incorrect!,0.20541839860379696,410.0108395013958,None,410.0108395013958,None,410.29409960098565,None,,,,,105,001,2023-10-06_15h38.11.969,colored_shuffled,2021.2.3,59.99250036353358,
C:\Users\subject\Desktop\SVRT Experiments\SVRT Experiment 3\svrt_images\generated_images\results_problem_10,,C:\Users\subject\Desktop\SVRT Experiments\SVRT Experiment 3\svrt_images\generated_images\results_problem_6\sample_1_0008.png,,C:\Users\subject\Desktop\SVRT Experiments\SVRT Experiment 3\svrt_images\generated_images\results_problem_10\sample_0_0016.png,,,,,,,,,,,,,,,,,,,,0,3,3,3,0,25,25,25,,,,,,,,,,,,,,j,10,B,B,27,1,Correct!,0.47658929973840714,411.62746930122375,None,411.62746930122375,None,412.17743919976056,None,,,,,105,001,2023-10-06_15h38.11.969,colored_shuffled,2021.2.3,59.99250036353358,
C:\Users\subject\Desktop\SVRT Experiments\SVRT Experiment 3\svrt_images\generated_images\results_problem_10,,C:\Users\subject\Desktop\SVRT Experiments\SVRT Experiment 3\svrt_images\generated_images\results_problem_6\sample_1_0008.png,,C:\Users\subject\Desktop\SVRT Experiments\SVRT Experiment 3\svrt_images\generated_images\results_problem_10\sample_0_0005.png,,,,,,,,,,,,,,,,,,,,0,3,3,3,0,26,26,26,,,,,,,,,,,,,,j,10,B,B,27,1,Correct!,0.24068949930369854,413.5274604000151,None,413.5274604000151,None,413.794120401144,None,,,,,105,001,2023-10-06_15h38.11.969,colored_shuffled,2021.2.3,59.99250036353358,
C:\Users\subject\Desktop\SVRT Experiments\SVRT Experiment 3\svrt_images\generated_images\results_problem_10,,C:\Users\subject\Desktop\SVRT Experiments\SVRT Experiment 3\svrt_images\generated_images\results_problem_6\sample_1_0008.png,,C:\Users\subject\Desktop\SVRT Experiments\SVRT Experiment 3\svrt_images\generated_images\results_problem_10\sample_1_0012.png,,,,,,,,,,,,,,,,,,,,0,3,3,3,0,27,27,27,,,,,,,,,,,,,,j,10,B,A,27,0,Incorrect!,0.2560922000557184,415.14410150051117,None,415.14410150051117,None,415.49407779984176,None,,,,,105,001,2023-10-06_15h38.11.969,colored_shuffled,2021.2.3,59.99250036353358,
C:\Users\subject\Desktop\SVRT Experiments\SVRT Experiment 3\svrt_images\generated_images\results_problem_10,,C:\Users\subject\Desktop\SVRT Experiments\SVRT Experiment 3\svrt_images\generated_images\results_problem_6\sample_1_0008.png,,C:\Users\subject\Desktop\SVRT Experiments\SVRT Experiment 3\svrt_images\generated_images\results_problem_10\sample_1_0006.png,,,,,,,,,,,,,,,,,,,,0,3,3,3,0,28,28,28,,,,,,,,,,,,,,f,10,A,A,27,1,Correct!,0.22594749927520752,416.8940866999328,None,416.8940866999328,None,417.16071560047567,None,,,,,105,001,2023-10-06_15h38.11.969,colored_shuffled,2021.2.3,59.99250036353358,
C:\Users\subject\Desktop\SVRT Experiments\SVRT Experiment 3\svrt_images\generated_images\results_problem_10,,C:\Users\subject\Desktop\SVRT Experiments\SVRT Experiment 3\svrt_images\generated_images\results_problem_6\sample_1_0008.png,,C:\Users\subject\Desktop\SVRT Experiments\SVRT Experiment 3\svrt_images\generated_images\results_problem_10\sample_1_0002.png,,,,,,,,,,,,,,,,,,,,0,3,3,3,0,29,29,29,,,,,,,,,,,,,,f,10,A,A,27,1,Correct!,0.2635062001645565,418.5606980007142,None,418.5606980007142,None,418.87736570090055,None,,,,,105,001,2023-10-06_15h38.11.969,colored_shuffled,2021.2.3,59.99250036353358,
C:\Users\subject\Desktop\SVRT Experiments\SVRT Experiment 3\svrt_images\generated_images\results_problem_10,,C:\Users\subject\Desktop\SVRT Experiments\SVRT Experiment 3\svrt_images\generated_images\results_problem_6\sample_1_0008.png,,C:\Users\subject\Desktop\SVRT Experiments\SVRT Experiment 3\svrt_images\generated_images\results_problem_10\sample_0_0014.png,,,,,,,,,,,,,,,,,,,,0,3,3,3,0,30,30,30,,,,,,,,,,,,,,f,10,A,B,27,0,Incorrect!,0.23408770002424717,420.2940301001072,None,420.2940301001072,None,420.6106541007757,None,,,,,105,001,2023-10-06_15h38.11.969,colored_shuffled,2021.2.3,59.99250036353358,
C:\Users\subject\Desktop\SVRT Experiments\SVRT Experiment 3\svrt_images\generated_images\results_problem_10,,C:\Users\subject\Desktop\SVRT Experiments\SVRT Experiment 3\svrt_images\generated_images\results_problem_6\sample_1_0008.png,,C:\Users\subject\Desktop\SVRT Experiments\SVRT Experiment 3\svrt_images\generated_images\results_problem_10\sample_0_0002.png,,,,,,,,,,,,,,,,,,,,0,3,3,3,0,31,31,31,,,,,,,,,,,,,,j,10,B,B,27,1,Correct!,0.20487849973142147,422.02730840072036,None,422.02730840072036,None,422.3438940998167,None,,,,,105,001,2023-10-06_15h38.11.969,colored_shuffled,2021.2.3,59.99250036353358,
C:\Users\subject\Desktop\SVRT Experiments\SVRT Experiment 3\svrt_images\generated_images\results_problem_10,,C:\Users\subject\Desktop\SVRT Experiments\SVRT Experiment 3\svrt_images\generated_images\results_problem_6\sample_1_0008.png,,C:\Users\subject\Desktop\SVRT Experiments\SVRT Experiment 3\svrt_images\generated_images\results_problem_10\sample_0_0004.png,,,,,,,,,,,,,,,,,,,,0,3,3,3,0,32,32,32,,,,,,,,,,,,,,j,10,B,B,27,1,Correct!,0.21357080154120922,423.81063100136817,None,423.81063100136817,None,424.06062300130725,None,,,,,105,001,2023-10-06_15h38.11.969,colored_shuffled,2021.2.3,59.99250036353358,
C:\Users\subject\Desktop\SVRT Experiments\SVRT Experiment 3\svrt_images\generated_images\results_problem_10,,C:\Users\subject\Desktop\SVRT Experiments\SVRT Experiment 3\svrt_images\generated_images\results_problem_6\sample_1_0008.png,,C:\Users\subject\Desktop\SVRT Experiments\SVRT Experiment 3\svrt_images\generated_images\results_problem_10\sample_1_0008.png,,,,,,,,,,,,,,,,,,,,0,3,3,3,0,33,33,33,,,,,,,,,,,,,,j,10,B,A,27,0,Incorrect!,0.22487130016088486,425.52727339975536,None,425.52727339975536,None,425.77722270041704,None,,,,,105,001,2023-10-06_15h38.11.969,colored_shuffled,2021.2.3,59.99250036353358,
C:\Users\subject\Desktop\SVRT Experiments\SVRT Experiment 3\svrt_images\generated_images\results_problem_10,,C:\Users\subject\Desktop\SVRT Experiments\SVRT Experiment 3\svrt_images\generated_images\results_problem_6\sample_1_0008.png,,,,,,,,,,,,,,,,,,,,,,0,3,3,3,0,28,28,28,,,,,,,,,,,,,,,,,,,,,,,,,,,,426.7772315014154,426.7772315014154,space,1.3188145998865366,105,001,2023-10-06_15h38.11.969,colored_shuffled,2021.2.3,59.99250036353358,
C:\Users\subject\Desktop\SVRT Experiments\SVRT Experiment 3\svrt_images\generated_images\results_problem_14,,C:\Users\subject\Desktop\SVRT Experiments\SVRT Experiment 3\svrt_images\generated_images\results_problem_6\sample_1_0008.png,,,C:\Users\subject\Desktop\SVRT Experiments\SVRT Experiment 3\svrt_images\generated_images\results_problem_14\sample_1_0005.png,,,,,,,,,,,,,,,,,,,0,4,4,4,0,0,0,0,,,,,,,,,,,,,,f,14,A,A,27,1,Correct!,1.0809653010219336,428.1272130999714,None,428.1272130999714,None,429.22717520035803,None,,,,,105,001,2023-10-06_15h38.11.969,colored_shuffled,2021.2.3,59.99250036353358,
C:\Users\subject\Desktop\SVRT Experiments\SVRT Experiment 3\svrt_images\generated_images\results_problem_14,,C:\Users\subject\Desktop\SVRT Experiments\SVRT Experiment 3\svrt_images\generated_images\results_problem_6\sample_1_0008.png,,,C:\Users\subject\Desktop\SVRT Experiments\SVRT Experiment 3\svrt_images\generated_images\results_problem_14\sample_0_0001.png,,,,,,,,,,,,,,,,,,,0,4,4,4,0,1,1,1,,,,,,,,,,,,,,f,14,A,B,27,0,Incorrect!,0.22816720046103,430.24386760033667,None,430.24386760033667,None,430.49387389980257,None,,,,,105,001,2023-10-06_15h38.11.969,colored_shuffled,2021.2.3,59.99250036353358,
C:\Users\subject\Desktop\SVRT Experiments\SVRT Experiment 3\svrt_images\generated_images\results_problem_14,,C:\Users\subject\Desktop\SVRT Experiments\SVRT Experiment 3\svrt_images\generated_images\results_problem_6\sample_1_0008.png,,,C:\Users\subject\Desktop\SVRT Experiments\SVRT Experiment 3\svrt_images\generated_images\results_problem_14\sample_0_0008.png,,,,,,,,,,,,,,,,,,,0,4,4,4,0,2,2,2,,,,,,,,,,,,,,j,14,B,B,27,1,Correct!,0.3137329984456301,431.51047530025244,None,431.51047530025244,None,431.84383330121636,None,,,,,105,001,2023-10-06_15h38.11.969,colored_shuffled,2021.2.3,59.99250036353358,
C:\Users\subject\Desktop\SVRT Experiments\SVRT Experiment 3\svrt_images\generated_images\results_problem_14,,C:\Users\subject\Desktop\SVRT Experiments\SVRT Experiment 3\svrt_images\generated_images\results_problem_6\sample_1_0008.png,,,C:\Users\subject\Desktop\SVRT Experiments\SVRT Experiment 3\svrt_images\generated_images\results_problem_14\sample_0_0000.png,,,,,,,,,,,,,,,,,,,0,4,4,4,0,3,3,3,,,,,,,,,,,,,,j,14,B,B,27,1,Correct!,0.21904429979622364,432.8771194014698,None,432.8771194014698,None,433.1271098013967,None,,,,,105,001,2023-10-06_15h38.11.969,colored_shuffled,2021.2.3,59.99250036353358,
C:\Users\subject\Desktop\SVRT Experiments\SVRT Experiment 3\svrt_images\generated_images\results_problem_14,,C:\Users\subject\Desktop\SVRT Experiments\SVRT Experiment 3\svrt_images\generated_images\results_problem_6\sample_1_0008.png,,,C:\Users\subject\Desktop\SVRT Experiments\SVRT Experiment 3\svrt_images\generated_images\results_problem_14\sample_1_0003.png,,,,,,,,,,,,,,,,,,,0,4,4,4,0,4,4,4,,,,,,,,,,,,,,j,14,B,A,27,0,Incorrect!,0.15898289903998375,434.17713410034776,None,434.17713410034776,None,434.3604701012373,None,,,,,105,001,2023-10-06_15h38.11.969,colored_shuffled,2021.2.3,59.99250036353358,
C:\Users\subject\Desktop\SVRT Experiments\SVRT Experiment 3\svrt_images\generated_images\results_problem_14,,C:\Users\subject\Desktop\SVRT Experiments\SVRT Experiment 3\svrt_images\generated_images\results_problem_6\sample_1_0008.png,,,C:\Users\subject\Desktop\SVRT Experiments\SVRT Experiment 3\svrt_images\generated_images\results_problem_14\sample_1_0016.png,,,,,,,,,,,,,,,,,,,0,4,4,4,0,5,5,5,,,,,,,,,,,,,,f,14,A,A,27,1,Correct!,0.20577040128409863,435.41041509993374,None,435.41041509993374,None,435.64376990124583,None,,,,,105,001,2023-10-06_15h38.11.969,colored_shuffled,2021.2.3,59.99250036353358,
C:\Users\subject\Desktop\SVRT Experiments\SVRT Experiment 3\svrt_images\generated_images\results_problem_14,,C:\Users\subject\Desktop\SVRT Experiments\SVRT Experiment 3\svrt_images\generated_images\results_problem_6\sample_1_0008.png,,,C:\Users\subject\Desktop\SVRT Experiments\SVRT Experiment 3\svrt_images\generated_images\results_problem_14\sample_1_0013.png,,,,,,,,,,,,,,,,,,,0,4,4,4,0,6,6,6,,,,,,,,,,,,,,f,14,A,A,27,1,Correct!,0.22568560019135475,436.7104071006179,None,436.7104071006179,None,436.96038730069995,None,,,,,105,001,2023-10-06_15h38.11.969,colored_shuffled,2021.2.3,59.99250036353358,
C:\Users\subject\Desktop\SVRT Experiments\SVRT Experiment 3\svrt_images\generated_images\results_problem_14,,C:\Users\subject\Desktop\SVRT Experiments\SVRT Experiment 3\svrt_images\generated_images\results_problem_6\sample_1_0008.png,,,C:\Users\subject\Desktop\SVRT Experiments\SVRT Experiment 3\svrt_images\generated_images\results_problem_14\sample_0_0011.png,,,,,,,,,,,,,,,,,,,0,4,4,4,0,7,7,7,,,,,,,,,,,,,,f,14,A,B,27,0,Incorrect!,0.38045210018754005,438.0437187012285,None,438.0437187012285,None,438.4436991009861,None,,,,,105,001,2023-10-06_15h38.11.969,colored_shuffled,2021.2.3,59.99250036353358,
C:\Users\subject\Desktop\SVRT Experiments\SVRT Experiment 3\svrt_images\generated_images\results_problem_14,,C:\Users\subject\Desktop\SVRT Experiments\SVRT Experiment 3\svrt_images\generated_images\results_problem_6\sample_1_0008.png,,,C:\Users\subject\Desktop\SVRT Experiments\SVRT Experiment 3\svrt_images\generated_images\results_problem_14\sample_0_0007.png,,,,,,,,,,,,,,,,,,,0,4,4,4,0,8,8,8,,,,,,,,,,,,,,j,14,B,B,27,1,Correct!,0.2965046986937523,439.5437107011676,None,439.5437107011676,None,439.8603616002947,None,,,,,105,001,2023-10-06_15h38.11.969,colored_shuffled,2021.2.3,59.99250036353358,
C:\Users\subject\Desktop\SVRT Experiments\SVRT Experiment 3\svrt_images\generated_images\results_problem_14,,C:\Users\subject\Desktop\SVRT Experiments\SVRT Experiment 3\svrt_images\generated_images\results_problem_6\sample_1_0008.png,,,C:\Users\subject\Desktop\SVRT Experiments\SVRT Experiment 3\svrt_images\generated_images\results_problem_14\sample_1_0012.png,,,,,,,,,,,,,,,,,,,0,4,4,4,0,9,9,9,,,,,,,,,,,,,,j,14,B,A,27,0,Incorrect!,0.1917336005717516,440.9603519998491,None,440.9603519998491,None,441.17699450068176,None,,,,,105,001,2023-10-06_15h38.11.969,colored_shuffled,2021.2.3,59.99250036353358,
C:\Users\subject\Desktop\SVRT Experiments\SVRT Experiment 3\svrt_images\generated_images\results_problem_14,,C:\Users\subject\Desktop\SVRT Experiments\SVRT Experiment 3\svrt_images\generated_images\results_problem_6\sample_1_0008.png,,,C:\Users\subject\Desktop\SVRT Experiments\SVRT Experiment 3\svrt_images\generated_images\results_problem_14\sample_1_0001.png,,,,,,,,,,,,,,,,,,,0,4,4,4,0,10,10,10,,,,,,,,,,,,,,f,14,A,A,27,1,Correct!,0.20249770022928715,442.29364049993455,None,442.29364049993455,None,442.5269881002605,None,,,,,105,001,2023-10-06_15h38.11.969,colored_shuffled,2021.2.3,59.99250036353358,
C:\Users\subject\Desktop\SVRT Experiments\SVRT Experiment 3\svrt_images\generated_images\results_problem_14,,C:\Users\subject\Desktop\SVRT Experiments\SVRT Experiment 3\svrt_images\generated_images\results_problem_6\sample_1_0008.png,,,C:\Users\subject\Desktop\SVRT Experiments\SVRT Experiment 3\svrt_images\generated_images\results_problem_14\sample_1_0009.png,,,,,,,,,,,,,,,,,,,0,4,4,4,0,11,11,11,,,,,,,,,,,,,,f,14,A,A,27,1,Correct!,0.14786270074546337,443.6603274010122,None,443.6603274010122,None,443.84362050145864,None,,,,,105,001,2023-10-06_15h38.11.969,colored_shuffled,2021.2.3,59.99250036353358,
C:\Users\subject\Desktop\SVRT Experiments\SVRT Experiment 3\svrt_images\generated_images\results_problem_14,,C:\Users\subject\Desktop\SVRT Experiments\SVRT Experiment 3\svrt_images\generated_images\results_problem_6\sample_1_0008.png,,,C:\Users\subject\Desktop\SVRT Experiments\SVRT Experiment 3\svrt_images\generated_images\results_problem_14\sample_0_0013.png,,,,,,,,,,,,,,,,,,,0,4,4,4,0,12,12,12,,,,,,,,,,,,,,f,14,A,B,27,0,Incorrect!,0.31838960014283657,444.99362730048597,None,444.99362730048597,None,445.3435900006443,None,,,,,105,001,2023-10-06_15h38.11.969,colored_shuffled,2021.2.3,59.99250036353358,
C:\Users\subject\Desktop\SVRT Experiments\SVRT Experiment 3\svrt_images\generated_images\results_problem_14,,C:\Users\subject\Desktop\SVRT Experiments\SVRT Experiment 3\svrt_images\generated_images\results_problem_6\sample_1_0008.png,,,C:\Users\subject\Desktop\SVRT Experiments\SVRT Experiment 3\svrt_images\generated_images\results_problem_14\sample_0_0004.png,,,,,,,,,,,,,,,,,,,0,4,4,4,0,13,13,13,,,,,,,,,,,,,,j,14,B,B,27,1,Correct!,0.17849530093371868,446.4936006013304,None,446.4936006013304,None,446.710255600512,None,,,,,105,001,2023-10-06_15h38.11.969,colored_shuffled,2021.2.3,59.99250036353358,
C:\Users\subject\Desktop\SVRT Experiments\SVRT Experiment 3\svrt_images\generated_images\results_problem_14,,C:\Users\subject\Desktop\SVRT Experiments\SVRT Experiment 3\svrt_images\generated_images\results_problem_6\sample_1_0008.png,,,C:\Users\subject\Desktop\SVRT Experiments\SVRT Experiment 3\svrt_images\generated_images\results_problem_14\sample_0_0006.png,,,,,,,,,,,,,,,,,,,0,4,4,4,0,14,14,14,,,,,,,,,,,,,,j,14,B,B,27,1,Correct!,0.179313899949193,447.87688470073044,None,447.87688470073044,None,448.0935530010611,None,,,,,105,001,2023-10-06_15h38.11.969,colored_shuffled,2021.2.3,59.99250036353358,
C:\Users\subject\Desktop\SVRT Experiments\SVRT Experiment 3\svrt_images\generated_images\results_problem_14,,C:\Users\subject\Desktop\SVRT Experiments\SVRT Experiment 3\svrt_images\generated_images\results_problem_6\sample_1_0008.png,,,C:\Users\subject\Desktop\SVRT Experiments\SVRT Experiment 3\svrt_images\generated_images\results_problem_14\sample_1_0006.png,,,,,,,,,,,,,,,,,,,0,4,4,4,0,15,15,15,,,,,,,,,,,,,,j,14,B,A,27,0,Incorrect!,0.20325729995965958,449.2768932003528,None,449.2768932003528,None,449.52688630111516,None,,,,,105,001,2023-10-06_15h38.11.969,colored_shuffled,2021.2.3,59.99250036353358,
C:\Users\subject\Desktop\SVRT Experiments\SVRT Experiment 3\svrt_images\generated_images\results_problem_14,,C:\Users\subject\Desktop\SVRT Experiments\SVRT Experiment 3\svrt_images\generated_images\results_problem_6\sample_1_0008.png,,,C:\Users\subject\Desktop\SVRT Experiments\SVRT Experiment 3\svrt_images\generated_images\results_problem_14\sample_0_0010.png,,,,,,,,,,,,,,,,,,,0,4,4,4,0,16,16,16,,,,,,,,,,,,,,f,14,A,B,27,0,Incorrect!,0.27328290045261383,450.7268740013242,None,450.7268740013242,None,451.0434998013079,None,,,,,105,001,2023-10-06_15h38.11.969,colored_shuffled,2021.2.3,59.99250036353358,
C:\Users\subject\Desktop\SVRT Experiments\SVRT Experiment 3\svrt_images\generated_images\results_problem_14,,C:\Users\subject\Desktop\SVRT Experiments\SVRT Experiment 3\svrt_images\generated_images\results_problem_6\sample_1_0008.png,,,C:\Users\subject\Desktop\SVRT Experiments\SVRT Experiment 3\svrt_images\generated_images\results_problem_14\sample_1_0004.png,,,,,,,,,,,,,,,,,,,0,4,4,4,0,17,17,17,,,,,,,,,,,,,,f,14,A,A,27,1,Correct!,0.395889600738883,452.2601688001305,None,452.2601688001305,None,452.693510601297,None,,,,,105,001,2023-10-06_15h38.11.969,colored_shuffled,2021.2.3,59.99250036353358,
C:\Users\subject\Desktop\SVRT Experiments\SVRT Experiment 3\svrt_images\generated_images\results_problem_14,,C:\Users\subject\Desktop\SVRT Experiments\SVRT Experiment 3\svrt_images\generated_images\results_problem_6\sample_1_0008.png,,,C:\Users\subject\Desktop\SVRT Experiments\SVRT Experiment 3\svrt_images\generated_images\results_problem_14\sample_1_0007.png,,,,,,,,,,,,,,,,,,,0,4,4,4,0,18,18,18,,,,,,,,,,,,,,f,14,A,A,27,1,Correct!,0.22596799954771996,453.9101563002914,None,453.9101563002914,None,454.1768274009228,None,,,,,105,001,2023-10-06_15h38.11.969,colored_shuffled,2021.2.3,59.99250036353358,
C:\Users\subject\Desktop\SVRT Experiments\SVRT Experiment 3\svrt_images\generated_images\results_problem_14,,C:\Users\subject\Desktop\SVRT Experiments\SVRT Experiment 3\svrt_images\generated_images\results_problem_6\sample_1_0008.png,,,C:\Users\subject\Desktop\SVRT Experiments\SVRT Experiment 3\svrt_images\generated_images\results_problem_14\sample_0_0014.png,,,,,,,,,,,,,,,,,,,0,4,4,4,0,19,19,19,,,,,,,,,,,,,,f,14,A,B,27,0,Incorrect!,0.2059440016746521,455.4101139008999,None,455.4101139008999,None,455.67682230100036,None,,,,,105,001,2023-10-06_15h38.11.969,colored_shuffled,2021.2.3,59.99250036353358,
C:\Users\subject\Desktop\SVRT Experiments\SVRT Experiment 3\svrt_images\generated_images\results_problem_14,,C:\Users\subject\Desktop\SVRT Experiments\SVRT Experiment 3\svrt_images\generated_images\results_problem_6\sample_1_0008.png,,,C:\Users\subject\Desktop\SVRT Experiments\SVRT Experiment 3\svrt_images\generated_images\results_problem_14\sample_1_0002.png,,,,,,,,,,,,,,,,,,,0,4,4,4,0,20,20,20,,,,,,,,,,,,,,j,14,B,A,27,0,Incorrect!,0.02531619928777218,456.9267760999501,None,456.9267760999501,None,456.9934343006462,None,,,,,105,001,2023-10-06_15h38.11.969,colored_shuffled,2021.2.3,59.99250036353358,
C:\Users\subject\Desktop\SVRT Experiments\SVRT Experiment 3\svrt_images\generated_images\results_problem_14,,C:\Users\subject\Desktop\SVRT Experiments\SVRT Experiment 3\svrt_images\generated_images\results_problem_6\sample_1_0008.png,,,C:\Users\subject\Desktop\SVRT Experiments\SVRT Experiment 3\svrt_images\generated_images\results_problem_14\sample_1_0010.png,,,,,,,,,,,,,,,,,,,0,4,4,4,0,21,21,21,,,,,,,,,,,,,,j,14,B,A,27,0,Incorrect!,0.08395220153033733,458.260090701282,None,458.260090701282,None,458.3767341002822,None,,,,,105,001,2023-10-06_15h38.11.969,colored_shuffled,2021.2.3,59.99250036353358,
C:\Users\subject\Desktop\SVRT Experiments\SVRT Experiment 3\svrt_images\generated_images\results_problem_14,,C:\Users\subject\Desktop\SVRT Experiments\SVRT Experiment 3\svrt_images\generated_images\results_problem_6\sample_1_0008.png,,,C:\Users\subject\Desktop\SVRT Experiments\SVRT Experiment 3\svrt_images\generated_images\results_problem_14\sample_0_0009.png,,,,,,,,,,,,,,,,,,,0,4,4,4,0,22,22,22,,,,,,,,,,,,,,j,14,B,B,27,1,Correct!,0.19611220061779022,459.66006310097873,None,459.66006310097873,None,459.8766994997859,None,,,,,105,001,2023-10-06_15h38.11.969,colored_shuffled,2021.2.3,59.99250036353358,
C:\Users\subject\Desktop\SVRT Experiments\SVRT Experiment 3\svrt_images\generated_images\results_problem_14,,C:\Users\subject\Desktop\SVRT Experiments\SVRT Experiment 3\svrt_images\generated_images\results_problem_6\sample_1_0008.png,,,C:\Users\subject\Desktop\SVRT Experiments\SVRT Experiment 3\svrt_images\generated_images\results_problem_14\sample_0_0005.png,,,,,,,,,,,,,,,,,,,0,4,4,4,0,23,23,23,,,,,,,,,,,,,,j,14,B,B,27,1,Correct!,0.11944689974188805,461.1767226997763,None,461.1767226997763,None,461.3266948014498,None,,,,,105,001,2023-10-06_15h38.11.969,colored_shuffled,2021.2.3,59.99250036353358,
C:\Users\subject\Desktop\SVRT Experiments\SVRT Experiment 3\svrt_images\generated_images\results_problem_14,,C:\Users\subject\Desktop\SVRT Experiments\SVRT Experiment 3\svrt_images\generated_images\results_problem_6\sample_1_0008.png,,,C:\Users\subject\Desktop\SVRT Experiments\SVRT Experiment 3\svrt_images\generated_images\results_problem_14\sample_0_0003.png,,,,,,,,,,,,,,,,,,,0,4,4,4,0,24,24,24,,,,,,,,,,,,,,j,14,B,B,27,1,Correct!,0.18076779879629612,462.64335530065,None,462.64335530065,None,462.8600029014051,None,,,,,105,001,2023-10-06_15h38.11.969,colored_shuffled,2021.2.3,59.99250036353358,
C:\Users\subject\Desktop\SVRT Experiments\SVRT Experiment 3\svrt_images\generated_images\results_problem_14,,C:\Users\subject\Desktop\SVRT Experiments\SVRT Experiment 3\svrt_images\generated_images\results_problem_6\sample_1_0008.png,,,C:\Users\subject\Desktop\SVRT Experiments\SVRT Experiment 3\svrt_images\generated_images\results_problem_14\sample_0_0016.png,,,,,,,,,,,,,,,,,,,0,4,4,4,0,25,25,25,,,,,,,,,,,,,,j,14,B,B,27,1,Correct!,0.13241670094430447,464.355823200196,None,464.355823200196,None,464.509977100417,None,,,,,105,001,2023-10-06_15h38.11.969,colored_shuffled,2021.2.3,59.99250036353358,
C:\Users\subject\Desktop\SVRT Experiments\SVRT Experiment 3\svrt_images\generated_images\results_problem_14,,C:\Users\subject\Desktop\SVRT Experiments\SVRT Experiment 3\svrt_images\generated_images\results_problem_6\sample_1_0008.png,,,C:\Users\subject\Desktop\SVRT Experiments\SVRT Experiment 3\svrt_images\generated_images\results_problem_14\sample_0_0012.png,,,,,,,,,,,,,,,,,,,0,4,4,4,0,26,26,26,,,,,,,,,,,,,,j,14,B,B,27,1,Correct!,6.916297798976302,465.85994180105627,None,465.85994180105627,None,472.79317080043256,None,,,,,105,001,2023-10-06_15h38.11.969,colored_shuffled,2021.2.3,59.99250036353358,
C:\Users\subject\Desktop\SVRT Experiments\SVRT Experiment 3\svrt_images\generated_images\results_problem_14,,C:\Users\subject\Desktop\SVRT Experiments\SVRT Experiment 3\svrt_images\generated_images\results_problem_6\sample_1_0008.png,,,C:\Users\subject\Desktop\SVRT Experiments\SVRT Experiment 3\svrt_images\generated_images\results_problem_14\sample_1_0014.png,,,,,,,,,,,,,,,,,,,0,4,4,4,0,27,27,27,,,,,,,,,,,,,,j,14,B,A,27,0,Incorrect!,0.7850379999727011,474.14318040013313,None,474.14318040013313,None,474.993153501302,None,,,,,105,001,2023-10-06_15h38.11.969,colored_shuffled,2021.2.3,59.99250036353358,
C:\Users\subject\Desktop\SVRT Experiments\SVRT Experiment 3\svrt_images\generated_images\results_problem_14,,C:\Users\subject\Desktop\SVRT Experiments\SVRT Experiment 3\svrt_images\generated_images\results_problem_6\sample_1_0008.png,,,C:\Users\subject\Desktop\SVRT Experiments\SVRT Experiment 3\svrt_images\generated_images\results_problem_14\sample_1_0011.png,,,,,,,,,,,,,,,,,,,0,4,4,4,0,28,28,28,,,,,,,,,,,,,,f,14,A,A,27,1,Correct!,0.39876640029251575,476.39316400140524,None,476.39316400140524,None,476.82647620141506,None,,,,,105,001,2023-10-06_15h38.11.969,colored_shuffled,2021.2.3,59.99250036353358,
C:\Users\subject\Desktop\SVRT Experiments\SVRT Experiment 3\svrt_images\generated_images\results_problem_14,,C:\Users\subject\Desktop\SVRT Experiments\SVRT Experiment 3\svrt_images\generated_images\results_problem_6\sample_1_0008.png,,,C:\Users\subject\Desktop\SVRT Experiments\SVRT Experiment 3\svrt_images\generated_images\results_problem_14\sample_1_0015.png,,,,,,,,,,,,,,,,,,,0,4,4,4,0,29,29,29,,,,,,,,,,,,,,f,14,A,A,27,1,Correct!,0.4856479000300169,478.22644730098546,None,478.22644730098546,None,478.74307020008564,None,,,,,105,001,2023-10-06_15h38.11.969,colored_shuffled,2021.2.3,59.99250036353358,
C:\Users\subject\Desktop\SVRT Experiments\SVRT Experiment 3\svrt_images\generated_images\results_problem_14,,C:\Users\subject\Desktop\SVRT Experiments\SVRT Experiment 3\svrt_images\generated_images\results_problem_6\sample_1_0008.png,,,C:\Users\subject\Desktop\SVRT Experiments\SVRT Experiment 3\svrt_images\generated_images\results_problem_14\sample_0_0015.png,,,,,,,,,,,,,,,,,,,0,4,4,4,0,30,30,30,,,,,,,,,,,,,,f,14,A,B,27,0,Incorrect!,0.2404372002929449,480.15975180082023,None,480.15975180082023,None,480.4763809014112,None,,,,,105,001,2023-10-06_15h38.11.969,colored_shuffled,2021.2.3,59.99250036353358,
C:\Users\subject\Desktop\SVRT Experiments\SVRT Experiment 3\svrt_images\generated_images\results_problem_14,,C:\Users\subject\Desktop\SVRT Experiments\SVRT Experiment 3\svrt_images\generated_images\results_problem_6\sample_1_0008.png,,,C:\Users\subject\Desktop\SVRT Experiments\SVRT Experiment 3\svrt_images\generated_images\results_problem_14\sample_1_0000.png,,,,,,,,,,,,,,,,,,,0,4,4,4,0,31,31,31,,,,,,,,,,,,,,j,14,B,A,27,0,Incorrect!,0.7551156990230083,481.89301820099354,None,481.89301820099354,None,482.70969950035214,None,,,,,105,001,2023-10-06_15h38.11.969,colored_shuffled,2021.2.3,59.99250036353358,
C:\Users\subject\Desktop\SVRT Experiments\SVRT Experiment 3\svrt_images\generated_images\results_problem_14,,C:\Users\subject\Desktop\SVRT Experiments\SVRT Experiment 3\svrt_images\generated_images\results_problem_6\sample_1_0008.png,,,C:\Users\subject\Desktop\SVRT Experiments\SVRT Experiment 3\svrt_images\generated_images\results_problem_14\sample_1_0008.png,,,,,,,,,,,,,,,,,,,0,4,4,4,0,32,32,32,,,,,,,,,,,,,,j,14,B,A,27,0,Incorrect!,0.3844312001019716,484.15970620140433,None,484.15970620140433,None,484.64300999976695,None,,,,,105,001,2023-10-06_15h38.11.969,colored_shuffled,2021.2.3,59.99250036353358,
C:\Users\subject\Desktop\SVRT Experiments\SVRT Experiment 3\svrt_images\generated_images\results_problem_14,,C:\Users\subject\Desktop\SVRT Experiments\SVRT Experiment 3\svrt_images\generated_images\results_problem_6\sample_1_0008.png,,,C:\Users\subject\Desktop\SVRT Experiments\SVRT Experiment 3\svrt_images\generated_images\results_problem_14\sample_0_0002.png,,,,,,,,,,,,,,,,,,,0,4,4,4,0,33,33,33,,,,,,,,,,,,,,j,14,B,B,27,1,Correct!,0.2104171011596918,486.1096780002117,None,486.1096780002117,None,486.35966560058296,None,,,,,105,001,2023-10-06_15h38.11.969,colored_shuffled,2021.2.3,59.99250036353358,
C:\Users\subject\Desktop\SVRT Experiments\SVRT Experiment 3\svrt_images\generated_images\results_problem_14,,C:\Users\subject\Desktop\SVRT Experiments\SVRT Experiment 3\svrt_images\generated_images\results_problem_6\sample_1_0008.png,,,,,,,,,,,,,,,,,,,,,,0,4,4,4,0,28,28,28,,,,,,,,,,,,,,,,,,,,,,,,,,,,487.35965350084007,487.35965350084007,space,1.400348199531436,105,001,2023-10-06_15h38.11.969,colored_shuffled,2021.2.3,59.99250036353358,
C:\Users\subject\Desktop\SVRT Experiments\SVRT Experiment 3\svrt_images\generated_images\results_problem_16,,C:\Users\subject\Desktop\SVRT Experiments\SVRT Experiment 3\svrt_images\generated_images\results_problem_6\sample_1_0008.png,,,,C:\Users\subject\Desktop\SVRT Experiments\SVRT Experiment 3\svrt_images\generated_images\results_problem_16\sample_0_0008.png,,,,,,,,,,,,,,,,,,0,5,5,5,0,0,0,0,,,,,,,,,,,,,,f,16,A,B,27,0,Incorrect!,0.9111467003822327,488.7929132003337,None,488.7929132003337,None,489.7262842003256,None,,,,,105,001,2023-10-06_15h38.11.969,colored_shuffled,2021.2.3,59.99250036353358,
C:\Users\subject\Desktop\SVRT Experiments\SVRT Experiment 3\svrt_images\generated_images\results_problem_16,,C:\Users\subject\Desktop\SVRT Experiments\SVRT Experiment 3\svrt_images\generated_images\results_problem_6\sample_1_0008.png,,,,C:\Users\subject\Desktop\SVRT Experiments\SVRT Experiment 3\svrt_images\generated_images\results_problem_16\sample_0_0003.png,,,,,,,,,,,,,,,,,,0,5,5,5,0,1,1,1,,,,,,,,,,,,,,j,16,B,B,27,1,Correct!,0.3612353000789881,490.74294690042734,None,490.74294690042734,None,491.1262606009841,None,,,,,105,001,2023-10-06_15h38.11.969,colored_shuffled,2021.2.3,59.99250036353358,
C:\Users\subject\Desktop\SVRT Experiments\SVRT Experiment 3\svrt_images\generated_images\results_problem_16,,C:\Users\subject\Desktop\SVRT Experiments\SVRT Experiment 3\svrt_images\generated_images\results_problem_6\sample_1_0008.png,,,,C:\Users\subject\Desktop\SVRT Experiments\SVRT Experiment 3\svrt_images\generated_images\results_problem_16\sample_1_0005.png,,,,,,,,,,,,,,,,,,0,5,5,5,0,2,2,2,,,,,,,,,,,,,,j,16,B,A,27,0,Incorrect!,0.3371849004179239,492.1428789999336,None,492.1428789999336,None,492.50953759998083,None,,,,,105,001,2023-10-06_15h38.11.969,colored_shuffled,2021.2.3,59.99250036353358,
C:\Users\subject\Desktop\SVRT Experiments\SVRT Experiment 3\svrt_images\generated_images\results_problem_16,,C:\Users\subject\Desktop\SVRT Experiments\SVRT Experiment 3\svrt_images\generated_images\results_problem_6\sample_1_0008.png,,,,C:\Users\subject\Desktop\SVRT Experiments\SVRT Experiment 3\svrt_images\generated_images\results_problem_16\sample_1_0007.png,,,,,,,,,,,,,,,,,,0,5,5,5,0,3,3,3,,,,,,,,,,,,,,f,16,A,A,27,1,Correct!,0.2651573996990919,493.5428801011294,None,493.5428801011294,None,493.8261869996786,None,,,,,105,001,2023-10-06_15h38.11.969,colored_shuffled,2021.2.3,59.99250036353358,
C:\Users\subject\Desktop\SVRT Experiments\SVRT Experiment 3\svrt_images\generated_images\results_problem_16,,C:\Users\subject\Desktop\SVRT Experiments\SVRT Experiment 3\svrt_images\generated_images\results_problem_6\sample_1_0008.png,,,,C:\Users\subject\Desktop\SVRT Experiments\SVRT Experiment 3\svrt_images\generated_images\results_problem_16\sample_1_0008.png,,,,,,,,,,,,,,,,,,0,5,5,5,0,4,4,4,,,,,,,,,,,,,,f,16,A,A,27,1,Correct!,0.19596640020608902,494.87619440071285,None,494.87619440071285,None,495.09286260046065,None,,,,,105,001,2023-10-06_15h38.11.969,colored_shuffled,2021.2.3,59.99250036353358,
C:\Users\subject\Desktop\SVRT Experiments\SVRT Experiment 3\svrt_images\generated_images\results_problem_16,,C:\Users\subject\Desktop\SVRT Experiments\SVRT Experiment 3\svrt_images\generated_images\results_problem_6\sample_1_0008.png,,,,C:\Users\subject\Desktop\SVRT Experiments\SVRT Experiment 3\svrt_images\generated_images\results_problem_16\sample_0_0010.png,,,,,,,,,,,,,,,,,,0,5,5,5,0,5,5,5,,,,,,,,,,,,,,f,16,A,B,27,0,Incorrect!,0.2252701986581087,496.1428153011948,None,496.1428153011948,None,496.39283950068057,None,,,,,105,001,2023-10-06_15h38.11.969,colored_shuffled,2021.2.3,59.99250036353358,
C:\Users\subject\Desktop\SVRT Experiments\SVRT Experiment 3\svrt_images\generated_images\results_problem_16,,C:\Users\subject\Desktop\SVRT Experiments\SVRT Experiment 3\svrt_images\generated_images\results_problem_6\sample_1_0008.png,,,,C:\Users\subject\Desktop\SVRT Experiments\SVRT Experiment 3\svrt_images\generated_images\results_problem_16\sample_1_0000.png,,,,,,,,,,,,,,,,,,0,5,5,5,0,6,6,6,,,,,,,,,,,,,,j,16,B,A,27,0,Incorrect!,0.11664840020239353,497.4594852011651,None,497.4594852011651,None,497.5928086005151,None,,,,,105,001,2023-10-06_15h38.11.969,colored_shuffled,2021.2.3,59.99250036353358,
