folder,results_problem_13,results_problem_6,results_problem_17,results_problem_10,results_problem_14,results_problem_16,results_problem_5,results_problem_3,results_problem_19,results_problem_7,results_problem_2,results_problem_23,results_problem_12,results_problem_20,results_problem_11,results_problem_22,results_problem_21,results_problem_1,results_problem_9,results_problem_18,results_problem_15,results_problem_4,results_problem_8,categories.thisRepN,categories.thisTrialN,categories.thisN,categories.thisIndex,trials.thisRepN,trials.thisTrialN,trials.thisN,trials.thisIndex,consent_text.started,consent_kb.started,consent_kb.keys,consent_kb.rt,Gender.keys,Gender.rt,Age,instructions_text.started,instructions_text.stopped,instructions_kb.keys,instructions_kb.rt,instructions_kb.started,instructions_kb.stopped,trial_kb.keys,current_problem_num,category_resp,answer,seed,accuracy,feedback,trial_kb.rt,trial_kb.started,trial_kb.stopped,trial_image.started,trial_image.stopped,feedback_text.started,feedback_text.stopped,new_problem_kb.started,new_problem_text.started,new_problem_kb.keys,new_problem_kb.rt,Participant #,session,date,expName,psychopyVersion,frameRate,
,,,,,,,,,,,,,,,,,,,,,,,,,,,,,,,,10.747323199999997,10.747323199999997,y,27.90868499999999,,,,,,,,,,,,,,,,,,,,,,,,,,,,106,001,2023-10-06_15h45.15.476,colored_sorted,2021.2.3,59.99217702011724,
,,,,,,,,,,,,,,,,,,,,,,,,,,,,,,,,,,,,w,1.8063623999999976,,,,,,,,,,,,,,,,,,,,,,,,,,106,001,2023-10-06_15h45.15.476,colored_sorted,2021.2.3,59.99217702011724,
,,,,,,,,,,,,,,,,,,,,,,,,,,,,,,,,,,,,,,20,43.1317258,None,space,25.572162699999993,43.1317258,None,,,,,,,,,,,,,,,,,,,106,001,2023-10-06_15h45.15.476,colored_sorted,2021.2.3,59.99217702011724,
C:\Users\subject\Desktop\SVRT Experiments\SVRT Experiment 3\svrt_images\generated_images\results_problem_13,C:\Users\subject\Desktop\SVRT Experiments\SVRT Experiment 3\svrt_images\generated_images\results_problem_13\sample_1_0002.png,,,,,,,,,,,,,,,,,,,,,,,0,0,0,0,0,0,0,0,,,,,,,,,,,,,,f,13,A,A,27,1,Correct!,9.736742700000008,68.79899629999998,None,68.79899629999998,None,78.56620550000001,None,,,,,106,001,2023-10-06_15h45.15.476,colored_sorted,2021.2.3,59.99217702011724,
C:\Users\subject\Desktop\SVRT Experiments\SVRT Experiment 3\svrt_images\generated_images\results_problem_13,C:\Users\subject\Desktop\SVRT Experiments\SVRT Experiment 3\svrt_images\generated_images\results_problem_13\sample_0_0012.png,,,,,,,,,,,,,,,,,,,,,,,0,0,0,0,0,1,1,1,,,,,,,,,,,,,,f,13,A,B,27,0,Incorrect!,0.8247955000000218,79.58292569999999,None,79.58292569999999,None,80.43294730000001,None,,,,,106,001,2023-10-06_15h45.15.476,colored_sorted,2021.2.3,59.99217702011724,
C:\Users\subject\Desktop\SVRT Experiments\SVRT Experiment 3\svrt_images\generated_images\results_problem_13,C:\Users\subject\Desktop\SVRT Experiments\SVRT Experiment 3\svrt_images\generated_images\results_problem_13\sample_0_0009.png,,,,,,,,,,,,,,,,,,,,,,,0,0,0,0,0,2,2,2,,,,,,,,,,,,,,f,13,A,B,27,0,Incorrect!,6.286021699999992,81.4496497,None,81.4496497,None,87.7665214,None,,,,,106,001,2023-10-06_15h45.15.476,colored_sorted,2021.2.3,59.99217702011724,
C:\Users\subject\Desktop\SVRT Experiments\SVRT Experiment 3\svrt_images\generated_images\results_problem_13,C:\Users\subject\Desktop\SVRT Experiments\SVRT Experiment 3\svrt_images\generated_images\results_problem_13\sample_1_0000.png,,,,,,,,,,,,,,,,,,,,,,,0,0,0,0,0,3,3,3,,,,,,,,,,,,,,f,13,A,A,27,1,Correct!,1.9997133000000247,88.7998922,None,88.7998922,None,90.81661670000001,None,,,,,106,001,2023-10-06_15h45.15.476,colored_sorted,2021.2.3,59.99217702011724,
C:\Users\subject\Desktop\SVRT Experiments\SVRT Experiment 3\svrt_images\generated_images\results_problem_13,C:\Users\subject\Desktop\SVRT Experiments\SVRT Experiment 3\svrt_images\generated_images\results_problem_13\sample_0_0016.png,,,,,,,,,,,,,,,,,,,,,,,0,0,0,0,0,4,4,4,,,,,,,,,,,,,,j,13,B,B,27,1,Correct!,1.0696493999999745,91.8499872,None,91.8499872,None,92.9500221,None,,,,,106,001,2023-10-06_15h45.15.476,colored_sorted,2021.2.3,59.99217702011724,
C:\Users\subject\Desktop\SVRT Experiments\SVRT Experiment 3\svrt_images\generated_images\results_problem_13,C:\Users\subject\Desktop\SVRT Experiments\SVRT Experiment 3\svrt_images\generated_images\results_problem_13\sample_1_0014.png,,,,,,,,,,,,,,,,,,,,,,,0,0,0,0,0,5,5,5,,,,,,,,,,,,,,j,13,B,A,27,0,Incorrect!,0.7035684999999887,94.00006649999999,None,94.00006649999999,None,94.7334158,None,,,,,106,001,2023-10-06_15h45.15.476,colored_sorted,2021.2.3,59.99217702011724,
C:\Users\subject\Desktop\SVRT Experiments\SVRT Experiment 3\svrt_images\generated_images\results_problem_13,C:\Users\subject\Desktop\SVRT Experiments\SVRT Experiment 3\svrt_images\generated_images\results_problem_13\sample_0_0006.png,,,,,,,,,,,,,,,,,,,,,,,0,0,0,0,0,6,6,6,,,,,,,,,,,,,,f,13,A,B,27,0,Incorrect!,0.6234699000000035,95.80012459999999,None,95.80012459999999,None,96.45015790000001,None,,,,,106,001,2023-10-06_15h45.15.476,colored_sorted,2021.2.3,59.99217702011724,
C:\Users\subject\Desktop\SVRT Experiments\SVRT Experiment 3\svrt_images\generated_images\results_problem_13,C:\Users\subject\Desktop\SVRT Experiments\SVRT Experiment 3\svrt_images\generated_images\results_problem_13\sample_1_0007.png,,,,,,,,,,,,,,,,,,,,,,,0,0,0,0,0,7,7,7,,,,,,,,,,,,,,f,13,A,A,27,1,Correct!,0.7229196999999772,97.5168356,None,97.5168356,None,98.2668608,None,,,,,106,001,2023-10-06_15h45.15.476,colored_sorted,2021.2.3,59.99217702011724,
C:\Users\subject\Desktop\SVRT Experiments\SVRT Experiment 3\svrt_images\generated_images\results_problem_13,C:\Users\subject\Desktop\SVRT Experiments\SVRT Experiment 3\svrt_images\generated_images\results_problem_13\sample_0_0015.png,,,,,,,,,,,,,,,,,,,,,,,0,0,0,0,0,8,8,8,,,,,,,,,,,,,,j,13,B,B,27,1,Correct!,0.6573420999999939,99.3502375,None,99.3502375,None,100.03359139999999,None,,,,,106,001,2023-10-06_15h45.15.476,colored_sorted,2021.2.3,59.99217702011724,
C:\Users\subject\Desktop\SVRT Experiments\SVRT Experiment 3\svrt_images\generated_images\results_problem_13,C:\Users\subject\Desktop\SVRT Experiments\SVRT Experiment 3\svrt_images\generated_images\results_problem_13\sample_1_0004.png,,,,,,,,,,,,,,,,,,,,,,,0,0,0,0,0,9,9,9,,,,,,,,,,,,,,f,13,A,A,27,1,Correct!,2.0025957000000005,101.11696110000001,None,101.11696110000001,None,103.1503614,None,,,,,106,001,2023-10-06_15h45.15.476,colored_sorted,2021.2.3,59.99217702011724,
C:\Users\subject\Desktop\SVRT Experiments\SVRT Experiment 3\svrt_images\generated_images\results_problem_13,C:\Users\subject\Desktop\SVRT Experiments\SVRT Experiment 3\svrt_images\generated_images\results_problem_13\sample_0_0010.png,,,,,,,,,,,,,,,,,,,,,,,0,0,0,0,0,10,10,10,,,,,,,,,,,,,,j,13,B,B,27,1,Correct!,1.1571227999999962,104.2503985,None,104.2503985,None,105.4338177,None,,,,,106,001,2023-10-06_15h45.15.476,colored_sorted,2021.2.3,59.99217702011724,
C:\Users\subject\Desktop\SVRT Experiments\SVRT Experiment 3\svrt_images\generated_images\results_problem_13,C:\Users\subject\Desktop\SVRT Experiments\SVRT Experiment 3\svrt_images\generated_images\results_problem_13\sample_0_0002.png,,,,,,,,,,,,,,,,,,,,,,,0,0,0,0,0,11,11,11,,,,,,,,,,,,,,f,13,A,B,27,0,Incorrect!,1.9536856,106.53380829999999,None,106.53380829999999,None,108.5172021,None,,,,,106,001,2023-10-06_15h45.15.476,colored_sorted,2021.2.3,59.99217702011724,
C:\Users\subject\Desktop\SVRT Experiments\SVRT Experiment 3\svrt_images\generated_images\results_problem_13,C:\Users\subject\Desktop\SVRT Experiments\SVRT Experiment 3\svrt_images\generated_images\results_problem_13\sample_1_0013.png,,,,,,,,,,,,,,,,,,,,,,,0,0,0,0,0,12,12,12,,,,,,,,,,,,,,j,13,B,A,27,0,Incorrect!,0.3735459999999762,109.633909,None,109.633909,None,110.03390660000001,None,,,,,106,001,2023-10-06_15h45.15.476,colored_sorted,2021.2.3,59.99217702011724,
C:\Users\subject\Desktop\SVRT Experiments\SVRT Experiment 3\svrt_images\generated_images\results_problem_13,C:\Users\subject\Desktop\SVRT Experiments\SVRT Experiment 3\svrt_images\generated_images\results_problem_13\sample_0_0008.png,,,,,,,,,,,,,,,,,,,,,,,0,0,0,0,0,13,13,13,,,,,,,,,,,,,,j,13,B,B,27,1,Correct!,0.008247900000014852,111.16728379999999,None,111.16728379999999,None,111.2172911,None,,,,,106,001,2023-10-06_15h45.15.476,colored_sorted,2021.2.3,59.99217702011724,
C:\Users\subject\Desktop\SVRT Experiments\SVRT Experiment 3\svrt_images\generated_images\results_problem_13,C:\Users\subject\Desktop\SVRT Experiments\SVRT Experiment 3\svrt_images\generated_images\results_problem_13\sample_0_0004.png,,,,,,,,,,,,,,,,,,,,,,,0,0,0,0,0,14,14,14,,,,,,,,,,,,,,j,13,B,B,27,1,Correct!,0.0968249999999955,112.3506432,None,112.3506432,None,112.46732820000001,None,,,,,106,001,2023-10-06_15h45.15.476,colored_sorted,2021.2.3,59.99217702011724,
C:\Users\subject\Desktop\SVRT Experiments\SVRT Experiment 3\svrt_images\generated_images\results_problem_13,C:\Users\subject\Desktop\SVRT Experiments\SVRT Experiment 3\svrt_images\generated_images\results_problem_13\sample_1_0012.png,,,,,,,,,,,,,,,,,,,,,,,0,0,0,0,0,15,15,15,,,,,,,,,,,,,,j,13,B,A,27,0,Incorrect!,0.04630120000001625,113.6173658,None,113.6173658,None,113.7006908,None,,,,,106,001,2023-10-06_15h45.15.476,colored_sorted,2021.2.3,59.99217702011724,
C:\Users\subject\Desktop\SVRT Experiments\SVRT Experiment 3\svrt_images\generated_images\results_problem_13,C:\Users\subject\Desktop\SVRT Experiments\SVRT Experiment 3\svrt_images\generated_images\results_problem_13\sample_1_0010.png,,,,,,,,,,,,,,,,,,,,,,,0,0,0,0,0,16,16,16,,,,,,,,,,,,,,f,13,A,A,27,1,Correct!,0.14005399999999213,114.8674165,None,114.8674165,None,115.05074509999999,None,,,,,106,001,2023-10-06_15h45.15.476,colored_sorted,2021.2.3,59.99217702011724,
C:\Users\subject\Desktop\SVRT Experiments\SVRT Experiment 3\svrt_images\generated_images\results_problem_13,C:\Users\subject\Desktop\SVRT Experiments\SVRT Experiment 3\svrt_images\generated_images\results_problem_13\sample_1_0011.png,,,,,,,,,,,,,,,,,,,,,,,0,0,0,0,0,17,17,17,,,,,,,,,,,,,,j,13,B,A,27,0,Incorrect!,0.05335880000001225,116.2341268,None,116.2341268,None,116.317459,None,,,,,106,001,2023-10-06_15h45.15.476,colored_sorted,2021.2.3,59.99217702011724,
C:\Users\subject\Desktop\SVRT Experiments\SVRT Experiment 3\svrt_images\generated_images\results_problem_13,C:\Users\subject\Desktop\SVRT Experiments\SVRT Experiment 3\svrt_images\generated_images\results_problem_13\sample_0_0011.png,,,,,,,,,,,,,,,,,,,,,,,0,0,0,0,0,18,18,18,,,,,,,,,,,,,,f,13,A,B,27,0,Incorrect!,0.017333299999990004,117.5341601,None,117.5341601,None,117.60088939999999,None,,,,,106,001,2023-10-06_15h45.15.476,colored_sorted,2021.2.3,59.99217702011724,
C:\Users\subject\Desktop\SVRT Experiments\SVRT Experiment 3\svrt_images\generated_images\results_problem_13,C:\Users\subject\Desktop\SVRT Experiments\SVRT Experiment 3\svrt_images\generated_images\results_problem_13\sample_1_0009.png,,,,,,,,,,,,,,,,,,,,,,,0,0,0,0,0,19,19,19,,,,,,,,,,,,,,f,13,A,A,27,1,Correct!,0.030526599999973314,118.80088669999999,None,118.80088669999999,None,118.86755480000001,None,,,,,106,001,2023-10-06_15h45.15.476,colored_sorted,2021.2.3,59.99217702011724,
C:\Users\subject\Desktop\SVRT Experiments\SVRT Experiment 3\svrt_images\generated_images\results_problem_13,C:\Users\subject\Desktop\SVRT Experiments\SVRT Experiment 3\svrt_images\generated_images\results_problem_13\sample_0_0000.png,,,,,,,,,,,,,,,,,,,,,,,0,0,0,0,0,20,20,20,,,,,,,,,,,,,,f,13,A,B,27,0,Incorrect!,0.0671643999999958,120.08425749999999,None,120.08425749999999,None,120.2008681,None,,,,,106,001,2023-10-06_15h45.15.476,colored_sorted,2021.2.3,59.99217702011724,
C:\Users\subject\Desktop\SVRT Experiments\SVRT Experiment 3\svrt_images\generated_images\results_problem_13,C:\Users\subject\Desktop\SVRT Experiments\SVRT Experiment 3\svrt_images\generated_images\results_problem_13\sample_0_0013.png,,,,,,,,,,,,,,,,,,,,,,,0,0,0,0,0,21,21,21,,,,,,,,,,,,,,f,13,A,B,27,0,Incorrect!,0.06917129999999361,121.43429619999999,None,121.43429619999999,None,121.55094910000001,None,,,,,106,001,2023-10-06_15h45.15.476,colored_sorted,2021.2.3,59.99217702011724,
C:\Users\subject\Desktop\SVRT Experiments\SVRT Experiment 3\svrt_images\generated_images\results_problem_13,C:\Users\subject\Desktop\SVRT Experiments\SVRT Experiment 3\svrt_images\generated_images\results_problem_13\sample_1_0015.png,,,,,,,,,,,,,,,,,,,,,,,0,0,0,0,0,22,22,22,,,,,,,,,,,,,,f,13,A,A,27,1,Correct!,0.0630232000000035,122.7843414,None,122.7843414,None,122.90102409999999,None,,,,,106,001,2023-10-06_15h45.15.476,colored_sorted,2021.2.3,59.99217702011724,
C:\Users\subject\Desktop\SVRT Experiments\SVRT Experiment 3\svrt_images\generated_images\results_problem_13,C:\Users\subject\Desktop\SVRT Experiments\SVRT Experiment 3\svrt_images\generated_images\results_problem_13\sample_1_0005.png,,,,,,,,,,,,,,,,,,,,,,,0,0,0,0,0,23,23,23,,,,,,,,,,,,,,f,13,A,A,27,1,Correct!,0.04840210000000411,124.151053,None,124.151053,None,124.21771299999999,None,,,,,106,001,2023-10-06_15h45.15.476,colored_sorted,2021.2.3,59.99217702011724,
C:\Users\subject\Desktop\SVRT Experiments\SVRT Experiment 3\svrt_images\generated_images\results_problem_13,C:\Users\subject\Desktop\SVRT Experiments\SVRT Experiment 3\svrt_images\generated_images\results_problem_13\sample_0_0001.png,,,,,,,,,,,,,,,,,,,,,,,0,0,0,0,0,24,24,24,,,,,,,,,,,,,,f,13,A,B,27,0,Incorrect!,0.0669533999999885,125.48443479999999,None,125.48443479999999,None,125.6344223,None,,,,,106,001,2023-10-06_15h45.15.476,colored_sorted,2021.2.3,59.99217702011724,
C:\Users\subject\Desktop\SVRT Experiments\SVRT Experiment 3\svrt_images\generated_images\results_problem_13,C:\Users\subject\Desktop\SVRT Experiments\SVRT Experiment 3\svrt_images\generated_images\results_problem_13\sample_1_0016.png,,,,,,,,,,,,,,,,,,,,,,,0,0,0,0,0,25,25,25,,,,,,,,,,,,,,f,13,A,A,27,1,Correct!,2.5215941000000157,126.9178247,None,126.9178247,None,129.48455360000003,None,,,,,106,001,2023-10-06_15h45.15.476,colored_sorted,2021.2.3,59.99217702011724,
C:\Users\subject\Desktop\SVRT Experiments\SVRT Experiment 3\svrt_images\generated_images\results_problem_13,C:\Users\subject\Desktop\SVRT Experiments\SVRT Experiment 3\svrt_images\generated_images\results_problem_13\sample_0_0007.png,,,,,,,,,,,,,,,,,,,,,,,0,0,0,0,0,26,26,26,,,,,,,,,,,,,,f,13,A,B,27,0,Incorrect!,1.3567811000000063,130.83465080000002,None,130.83465080000002,None,132.26798209999998,None,,,,,106,001,2023-10-06_15h45.15.476,colored_sorted,2021.2.3,59.99217702011724,
C:\Users\subject\Desktop\SVRT Experiments\SVRT Experiment 3\svrt_images\generated_images\results_problem_13,C:\Users\subject\Desktop\SVRT Experiments\SVRT Experiment 3\svrt_images\generated_images\results_problem_13\sample_1_0008.png,,,,,,,,,,,,,,,,,,,,,,,0,0,0,0,0,27,27,27,,,,,,,,,,,,,,j,13,B,A,27,0,Incorrect!,0.8472988999999984,133.5680322,None,133.5680322,None,134.4513852,None,,,,,106,001,2023-10-06_15h45.15.476,colored_sorted,2021.2.3,59.99217702011724,
C:\Users\subject\Desktop\SVRT Experiments\SVRT Experiment 3\svrt_images\generated_images\results_problem_13,C:\Users\subject\Desktop\SVRT Experiments\SVRT Experiment 3\svrt_images\generated_images\results_problem_13\sample_1_0003.png,,,,,,,,,,,,,,,,,,,,,,,0,0,0,0,0,28,28,28,,,,,,,,,,,,,,f,13,A,A,27,1,Correct!,3.0945547999999974,135.78477779999997,None,135.78477779999997,None,138.96819770000002,None,,,,,106,001,2023-10-06_15h45.15.476,colored_sorted,2021.2.3,59.99217702011724,
C:\Users\subject\Desktop\SVRT Experiments\SVRT Experiment 3\svrt_images\generated_images\results_problem_13,C:\Users\subject\Desktop\SVRT Experiments\SVRT Experiment 3\svrt_images\generated_images\results_problem_13\sample_1_0006.png,,,,,,,,,,,,,,,,,,,,,,,0,0,0,0,0,29,29,29,,,,,,,,,,,,,,j,13,B,A,27,0,Incorrect!,1.2177130999999974,140.3015805,None,140.3015805,None,141.56826189999998,None,,,,,106,001,2023-10-06_15h45.15.476,colored_sorted,2021.2.3,59.99217702011724,
C:\Users\subject\Desktop\SVRT Experiments\SVRT Experiment 3\svrt_images\generated_images\results_problem_13,C:\Users\subject\Desktop\SVRT Experiments\SVRT Experiment 3\svrt_images\generated_images\results_problem_13\sample_0_0014.png,,,,,,,,,,,,,,,,,,,,,,,0,0,0,0,0,30,30,30,,,,,,,,,,,,,,f,13,A,B,27,0,Incorrect!,0.8882873999999958,142.9349924,None,142.9349924,None,143.8683598,None,,,,,106,001,2023-10-06_15h45.15.476,colored_sorted,2021.2.3,59.99217702011724,
C:\Users\subject\Desktop\SVRT Experiments\SVRT Experiment 3\svrt_images\generated_images\results_problem_13,C:\Users\subject\Desktop\SVRT Experiments\SVRT Experiment 3\svrt_images\generated_images\results_problem_13\sample_1_0001.png,,,,,,,,,,,,,,,,,,,,,,,0,0,0,0,0,31,31,31,,,,,,,,,,,,,,j,13,B,A,27,0,Incorrect!,1.404170300000004,145.23508049999998,None,145.23508049999998,None,146.70173590000002,None,,,,,106,001,2023-10-06_15h45.15.476,colored_sorted,2021.2.3,59.99217702011724,
C:\Users\subject\Desktop\SVRT Experiments\SVRT Experiment 3\svrt_images\generated_images\results_problem_13,C:\Users\subject\Desktop\SVRT Experiments\SVRT Experiment 3\svrt_images\generated_images\results_problem_13\sample_0_0003.png,,,,,,,,,,,,,,,,,,,,,,,0,0,0,0,0,32,32,32,,,,,,,,,,,,,,f,13,A,B,27,0,Incorrect!,5.434034099999991,148.08517519999998,None,148.08517519999998,None,153.6019918,None,,,,,106,001,2023-10-06_15h45.15.476,colored_sorted,2021.2.3,59.99217702011724,
C:\Users\subject\Desktop\SVRT Experiments\SVRT Experiment 3\svrt_images\generated_images\results_problem_13,C:\Users\subject\Desktop\SVRT Experiments\SVRT Experiment 3\svrt_images\generated_images\results_problem_13\sample_0_0005.png,,,,,,,,,,,,,,,,,,,,,,,0,0,0,0,0,33,33,33,,,,,,,,,,,,,,j,13,B,B,27,1,Correct!,0.8611435999999912,155.00206359999999,None,155.00206359999999,None,155.91873479999998,None,,,,,106,001,2023-10-06_15h45.15.476,colored_sorted,2021.2.3,59.99217702011724,
C:\Users\subject\Desktop\SVRT Experiments\SVRT Experiment 3\svrt_images\generated_images\results_problem_13,,,,,,,,,,,,,,,,,,,,,,,,0,0,0,0,,,,,,,,,,,,,,,,,,,,,,,,,,,,,,,,156.91874660000002,156.91874660000002,space,1.6804334999999924,106,001,2023-10-06_15h45.15.476,colored_sorted,2021.2.3,59.99217702011724,
C:\Users\subject\Desktop\SVRT Experiments\SVRT Experiment 3\svrt_images\generated_images\results_problem_6,,C:\Users\subject\Desktop\SVRT Experiments\SVRT Experiment 3\svrt_images\generated_images\results_problem_6\sample_1_0009.png,,,,,,,,,,,,,,,,,,,,,,0,1,1,1,0,0,0,0,,,,,,,,,,,,,,f,6,A,A,27,1,Correct!,5.499798699999985,158.63546659999997,None,158.63546659999997,None,164.1523416,None,,,,,106,001,2023-10-06_15h45.15.476,colored_sorted,2021.2.3,59.99217702011724,
C:\Users\subject\Desktop\SVRT Experiments\SVRT Experiment 3\svrt_images\generated_images\results_problem_6,,C:\Users\subject\Desktop\SVRT Experiments\SVRT Experiment 3\svrt_images\generated_images\results_problem_6\sample_0_0009.png,,,,,,,,,,,,,,,,,,,,,,0,1,1,1,0,1,1,1,,,,,,,,,,,,,,j,6,B,B,27,1,Correct!,2.2140772000000197,165.16904340000002,None,165.16904340000002,None,167.4024627,None,,,,,106,001,2023-10-06_15h45.15.476,colored_sorted,2021.2.3,59.99217702011724,
C:\Users\subject\Desktop\SVRT Experiments\SVRT Experiment 3\svrt_images\generated_images\results_problem_6,,C:\Users\subject\Desktop\SVRT Experiments\SVRT Experiment 3\svrt_images\generated_images\results_problem_6\sample_0_0013.png,,,,,,,,,,,,,,,,,,,,,,0,1,1,1,0,2,2,2,,,,,,,,,,,,,,f,6,A,B,27,0,Incorrect!,2.4119843999999944,168.4191651,None,168.4191651,None,170.8525735,None,,,,,106,001,2023-10-06_15h45.15.476,colored_sorted,2021.2.3,59.99217702011724,
C:\Users\subject\Desktop\SVRT Experiments\SVRT Experiment 3\svrt_images\generated_images\results_problem_6,,C:\Users\subject\Desktop\SVRT Experiments\SVRT Experiment 3\svrt_images\generated_images\results_problem_6\sample_0_0003.png,,,,,,,,,,,,,,,,,,,,,,0,1,1,1,0,3,3,3,,,,,,,,,,,,,,j,6,B,B,27,1,Correct!,0.8091530000000091,171.88593559999998,None,171.88593559999998,None,172.71930429999998,None,,,,,106,001,2023-10-06_15h45.15.476,colored_sorted,2021.2.3,59.99217702011724,
C:\Users\subject\Desktop\SVRT Experiments\SVRT Experiment 3\svrt_images\generated_images\results_problem_6,,C:\Users\subject\Desktop\SVRT Experiments\SVRT Experiment 3\svrt_images\generated_images\results_problem_6\sample_0_0014.png,,,,,,,,,,,,,,,,,,,,,,0,1,1,1,0,4,4,4,,,,,,,,,,,,,,j,6,B,B,27,1,Correct!,1.1259377000000086,173.7531429,None,173.7531429,None,174.902693,None,,,,,106,001,2023-10-06_15h45.15.476,colored_sorted,2021.2.3,59.99217702011724,
C:\Users\subject\Desktop\SVRT Experiments\SVRT Experiment 3\svrt_images\generated_images\results_problem_6,,C:\Users\subject\Desktop\SVRT Experiments\SVRT Experiment 3\svrt_images\generated_images\results_problem_6\sample_1_0010.png,,,,,,,,,,,,,,,,,,,,,,0,1,1,1,0,5,5,5,,,,,,,,,,,,,,j,6,B,A,27,0,Incorrect!,1.446320600000007,175.95274460000002,None,175.95274460000002,None,177.4194564,None,,,,,106,001,2023-10-06_15h45.15.476,colored_sorted,2021.2.3,59.99217702011724,
C:\Users\subject\Desktop\SVRT Experiments\SVRT Experiment 3\svrt_images\generated_images\results_problem_6,,C:\Users\subject\Desktop\SVRT Experiments\SVRT Experiment 3\svrt_images\generated_images\results_problem_6\sample_0_0004.png,,,,,,,,,,,,,,,,,,,,,,0,1,1,1,0,6,6,6,,,,,,,,,,,,,,f,6,A,B,27,0,Incorrect!,1.0728244999999959,178.486261,None,178.486261,None,179.58619720000002,None,,,,,106,001,2023-10-06_15h45.15.476,colored_sorted,2021.2.3,59.99217702011724,
C:\Users\subject\Desktop\SVRT Experiments\SVRT Experiment 3\svrt_images\generated_images\results_problem_6,,C:\Users\subject\Desktop\SVRT Experiments\SVRT Experiment 3\svrt_images\generated_images\results_problem_6\sample_0_0016.png,,,,,,,,,,,,,,,,,,,,,,0,1,1,1,0,7,7,7,,,,,,,,,,,,,,j,6,B,B,27,1,Correct!,0.8261553000000106,180.65290729999998,None,180.65290729999998,None,181.5029224,None,,,,,106,001,2023-10-06_15h45.15.476,colored_sorted,2021.2.3,59.99217702011724,
C:\Users\subject\Desktop\SVRT Experiments\SVRT Experiment 3\svrt_images\generated_images\results_problem_6,,C:\Users\subject\Desktop\SVRT Experiments\SVRT Experiment 3\svrt_images\generated_images\results_problem_6\sample_0_0015.png,,,,,,,,,,,,,,,,,,,,,,0,1,1,1,0,8,8,8,,,,,,,,,,,,,,f,6,A,B,27,0,Incorrect!,0.6767712000000188,182.5863033,None,182.5863033,None,183.2863153,None,,,,,106,001,2023-10-06_15h45.15.476,colored_sorted,2021.2.3,59.99217702011724,
C:\Users\subject\Desktop\SVRT Experiments\SVRT Experiment 3\svrt_images\generated_images\results_problem_6,,C:\Users\subject\Desktop\SVRT Experiments\SVRT Experiment 3\svrt_images\generated_images\results_problem_6\sample_1_0002.png,,,,,,,,,,,,,,,,,,,,,,0,1,1,1,0,9,9,9,,,,,,,,,,,,,,j,6,B,A,27,0,Incorrect!,0.2454334999999901,184.3696946,None,184.3696946,None,184.63636830000002,None,,,,,106,001,2023-10-06_15h45.15.476,colored_sorted,2021.2.3,59.99217702011724,
C:\Users\subject\Desktop\SVRT Experiments\SVRT Experiment 3\svrt_images\generated_images\results_problem_6,,C:\Users\subject\Desktop\SVRT Experiments\SVRT Experiment 3\svrt_images\generated_images\results_problem_6\sample_1_0015.png,,,,,,,,,,,,,,,,,,,,,,0,1,1,1,0,10,10,10,,,,,,,,,,,,,,j,6,B,A,27,0,Incorrect!,0.3426608999999985,185.73640570000003,None,185.73640570000003,None,186.1030816,None,,,,,106,001,2023-10-06_15h45.15.476,colored_sorted,2021.2.3,59.99217702011724,
C:\Users\subject\Desktop\SVRT Experiments\SVRT Experiment 3\svrt_images\generated_images\results_problem_6,,C:\Users\subject\Desktop\SVRT Experiments\SVRT Experiment 3\svrt_images\generated_images\results_problem_6\sample_1_0005.png,,,,,,,,,,,,,,,,,,,,,,0,1,1,1,0,11,11,11,,,,,,,,,,,,,,j,6,B,A,27,0,Incorrect!,0.22724039999997103,187.21978820000004,None,187.21978820000004,None,187.46978970000004,None,,,,,106,001,2023-10-06_15h45.15.476,colored_sorted,2021.2.3,59.99217702011724,
C:\Users\subject\Desktop\SVRT Experiments\SVRT Experiment 3\svrt_images\generated_images\results_problem_6,,C:\Users\subject\Desktop\SVRT Experiments\SVRT Experiment 3\svrt_images\generated_images\results_problem_6\sample_1_0014.png,,,,,,,,,,,,,,,,,,,,,,0,1,1,1,0,12,12,12,,,,,,,,,,,,,,j,6,B,A,27,0,Incorrect!,0.3645520000000033,188.5864929,None,188.5864929,None,188.9865089,None,,,,,106,001,2023-10-06_15h45.15.476,colored_sorted,2021.2.3,59.99217702011724,
C:\Users\subject\Desktop\SVRT Experiments\SVRT Experiment 3\svrt_images\generated_images\results_problem_6,,C:\Users\subject\Desktop\SVRT Experiments\SVRT Experiment 3\svrt_images\generated_images\results_problem_6\sample_1_0007.png,,,,,,,,,,,,,,,,,,,,,,0,1,1,1,0,13,13,13,,,,,,,,,,,,,,j,6,B,A,27,0,Incorrect!,0.5590751000000296,190.11988130000003,None,190.11988130000003,None,190.7032256,None,,,,,106,001,2023-10-06_15h45.15.476,colored_sorted,2021.2.3,59.99217702011724,
C:\Users\subject\Desktop\SVRT Experiments\SVRT Experiment 3\svrt_images\generated_images\results_problem_6,,C:\Users\subject\Desktop\SVRT Experiments\SVRT Experiment 3\svrt_images\generated_images\results_problem_6\sample_0_0008.png,,,,,,,,,,,,,,,,,,,,,,0,1,1,1,0,14,14,14,,,,,,,,,,,,,,f,6,A,B,27,0,Incorrect!,0.537694799999997,191.85327190000004,None,191.85327190000004,None,192.4366111,None,,,,,106,001,2023-10-06_15h45.15.476,colored_sorted,2021.2.3,59.99217702011724,
C:\Users\subject\Desktop\SVRT Experiments\SVRT Experiment 3\svrt_images\generated_images\results_problem_6,,C:\Users\subject\Desktop\SVRT Experiments\SVRT Experiment 3\svrt_images\generated_images\results_problem_6\sample_0_0001.png,,,,,,,,,,,,,,,,,,,,,,0,1,1,1,0,15,15,15,,,,,,,,,,,,,,f,6,A,B,27,0,Incorrect!,0.46033370000003515,193.5866635,None,193.5866635,None,194.07002270000004,None,,,,,106,001,2023-10-06_15h45.15.476,colored_sorted,2021.2.3,59.99217702011724,
C:\Users\subject\Desktop\SVRT Experiments\SVRT Experiment 3\svrt_images\generated_images\results_problem_6,,C:\Users\subject\Desktop\SVRT Experiments\SVRT Experiment 3\svrt_images\generated_images\results_problem_6\sample_1_0000.png,,,,,,,,,,,,,,,,,,,,,,0,1,1,1,0,16,16,16,,,,,,,,,,,,,,f,6,A,A,27,1,Correct!,0.2903572999999824,195.23672420000003,None,195.23672420000003,None,195.55339380000004,None,,,,,106,001,2023-10-06_15h45.15.476,colored_sorted,2021.2.3,59.99217702011724,
C:\Users\subject\Desktop\SVRT Experiments\SVRT Experiment 3\svrt_images\generated_images\results_problem_6,,C:\Users\subject\Desktop\SVRT Experiments\SVRT Experiment 3\svrt_images\generated_images\results_problem_6\sample_1_0013.png,,,,,,,,,,,,,,,,,,,,,,0,1,1,1,0,17,17,17,,,,,,,,,,,,,,f,6,A,A,27,1,Correct!,0.31022329999996145,196.73676900000004,None,196.73676900000004,None,197.08677260000002,None,,,,,106,001,2023-10-06_15h45.15.476,colored_sorted,2021.2.3,59.99217702011724,
C:\Users\subject\Desktop\SVRT Experiments\SVRT Experiment 3\svrt_images\generated_images\results_problem_6,,C:\Users\subject\Desktop\SVRT Experiments\SVRT Experiment 3\svrt_images\generated_images\results_problem_6\sample_0_0011.png,,,,,,,,,,,,,,,,,,,,,,0,1,1,1,0,18,18,18,,,,,,,,,,,,,,j,6,B,B,27,1,Correct!,0.41681519999997363,198.2701512,None,198.2701512,None,198.72015629999999,None,,,,,106,001,2023-10-06_15h45.15.476,colored_sorted,2021.2.3,59.99217702011724,
C:\Users\subject\Desktop\SVRT Experiments\SVRT Experiment 3\svrt_images\generated_images\results_problem_6,,C:\Users\subject\Desktop\SVRT Experiments\SVRT Experiment 3\svrt_images\generated_images\results_problem_6\sample_1_0012.png,,,,,,,,,,,,,,,,,,,,,,0,1,1,1,0,19,19,19,,,,,,,,,,,,,,f,6,A,A,27,1,Correct!,0.3027479999999514,199.92023290000003,None,199.92023290000003,None,200.28687510000003,None,,,,,106,001,2023-10-06_15h45.15.476,colored_sorted,2021.2.3,59.99217702011724,
C:\Users\subject\Desktop\SVRT Experiments\SVRT Experiment 3\svrt_images\generated_images\results_problem_6,,C:\Users\subject\Desktop\SVRT Experiments\SVRT Experiment 3\svrt_images\generated_images\results_problem_6\sample_0_0007.png,,,,,,,,,,,,,,,,,,,,,,0,1,1,1,0,20,20,20,,,,,,,,,,,,,,f,6,A,B,27,0,Incorrect!,0.4873546000000033,201.50358900000003,None,201.50358900000003,None,202.0202617,None,,,,,106,001,2023-10-06_15h45.15.476,colored_sorted,2021.2.3,59.99217702011724,
C:\Users\subject\Desktop\SVRT Experiments\SVRT Experiment 3\svrt_images\generated_images\results_problem_6,,C:\Users\subject\Desktop\SVRT Experiments\SVRT Experiment 3\svrt_images\generated_images\results_problem_6\sample_1_0016.png,,,,,,,,,,,,,,,,,,,,,,0,1,1,1,0,21,21,21,,,,,,,,,,,,,,j,6,B,A,27,0,Incorrect!,0.4092444999999998,203.2536377,None,203.2536377,None,203.7203171,None,,,,,106,001,2023-10-06_15h45.15.476,colored_sorted,2021.2.3,59.99217702011724,
C:\Users\subject\Desktop\SVRT Experiments\SVRT Experiment 3\svrt_images\generated_images\results_problem_6,,C:\Users\subject\Desktop\SVRT Experiments\SVRT Experiment 3\svrt_images\generated_images\results_problem_6\sample_1_0011.png,,,,,,,,,,,,,,,,,,,,,,0,1,1,1,0,22,22,22,,,,,,,,,,,,,,j,6,B,A,27,0,Incorrect!,0.19717640000004621,204.95370480000003,None,204.95370480000003,None,205.1703827,None,,,,,106,001,2023-10-06_15h45.15.476,colored_sorted,2021.2.3,59.99217702011724,
C:\Users\subject\Desktop\SVRT Experiments\SVRT Experiment 3\svrt_images\generated_images\results_problem_6,,C:\Users\subject\Desktop\SVRT Experiments\SVRT Experiment 3\svrt_images\generated_images\results_problem_6\sample_0_0012.png,,,,,,,,,,,,,,,,,,,,,,0,1,1,1,0,23,23,23,,,,,,,,,,,,,,j,6,B,B,27,1,Correct!,0.24248149999999669,206.4204148,None,206.4204148,None,206.68708500000002,None,,,,,106,001,2023-10-06_15h45.15.476,colored_sorted,2021.2.3,59.99217702011724,
C:\Users\subject\Desktop\SVRT Experiments\SVRT Experiment 3\svrt_images\generated_images\results_problem_6,,C:\Users\subject\Desktop\SVRT Experiments\SVRT Experiment 3\svrt_images\generated_images\results_problem_6\sample_0_0005.png,,,,,,,,,,,,,,,,,,,,,,0,1,1,1,0,24,24,24,,,,,,,,,,,,,,j,6,B,B,27,1,Correct!,0.22106350000001385,207.95381230000004,None,207.95381230000004,None,208.23713680000003,None,,,,,106,001,2023-10-06_15h45.15.476,colored_sorted,2021.2.3,59.99217702011724,
C:\Users\subject\Desktop\SVRT Experiments\SVRT Experiment 3\svrt_images\generated_images\results_problem_6,,C:\Users\subject\Desktop\SVRT Experiments\SVRT Experiment 3\svrt_images\generated_images\results_problem_6\sample_0_0002.png,,,,,,,,,,,,,,,,,,,,,,0,1,1,1,0,25,25,25,,,,,,,,,,,,,,j,6,B,B,27,1,Correct!,0.29436490000000504,209.52051820000003,None,209.52051820000003,None,209.87053880000002,None,,,,,106,001,2023-10-06_15h45.15.476,colored_sorted,2021.2.3,59.99217702011724,
C:\Users\subject\Desktop\SVRT Experiments\SVRT Experiment 3\svrt_images\generated_images\results_problem_6,,C:\Users\subject\Desktop\SVRT Experiments\SVRT Experiment 3\svrt_images\generated_images\results_problem_6\sample_1_0003.png,,,,,,,,,,,,,,,,,,,,,,0,1,1,1,0,26,26,26,,,,,,,,,,,,,,f,6,A,A,27,1,Correct!,0.2677477999999951,211.1872419,None,211.1872419,None,211.5372448,None,,,,,106,001,2023-10-06_15h45.15.476,colored_sorted,2021.2.3,59.99217702011724,
C:\Users\subject\Desktop\SVRT Experiments\SVRT Experiment 3\svrt_images\generated_images\results_problem_6,,C:\Users\subject\Desktop\SVRT Experiments\SVRT Experiment 3\svrt_images\generated_images\results_problem_6\sample_0_0000.png,,,,,,,,,,,,,,,,,,,,,,0,1,1,1,0,27,27,27,,,,,,,,,,,,,,f,6,A,B,27,0,Incorrect!,0.26489320000001726,212.85395470000003,None,212.85395470000003,None,213.1372819,None,,,,,106,001,2023-10-06_15h45.15.476,colored_sorted,2021.2.3,59.99217702011724,
C:\Users\subject\Desktop\SVRT Experiments\SVRT Experiment 3\svrt_images\generated_images\results_problem_6,,C:\Users\subject\Desktop\SVRT Experiments\SVRT Experiment 3\svrt_images\generated_images\results_problem_6\sample_1_0008.png,,,,,,,,,,,,,,,,,,,,,,0,1,1,1,0,28,28,28,,,,,,,,,,,,,,j,6,B,A,27,0,Incorrect!,0.2968347999999992,214.45402770000004,None,214.45402770000004,None,214.80401950000004,None,,,,,106,001,2023-10-06_15h45.15.476,colored_sorted,2021.2.3,59.99217702011724,
C:\Users\subject\Desktop\SVRT Experiments\SVRT Experiment 3\svrt_images\generated_images\results_problem_6,,C:\Users\subject\Desktop\SVRT Experiments\SVRT Experiment 3\svrt_images\generated_images\results_problem_6\sample_0_0006.png,,,,,,,,,,,,,,,,,,,,,,0,1,1,1,0,29,29,29,,,,,,,,,,,,,,f,6,A,B,27,0,Incorrect!,0.05412150000000793,216.1207361,None,216.1207361,None,216.22073140000003,None,,,,,106,001,2023-10-06_15h45.15.476,colored_sorted,2021.2.3,59.99217702011724,
C:\Users\subject\Desktop\SVRT Experiments\SVRT Experiment 3\svrt_images\generated_images\results_problem_6,,C:\Users\subject\Desktop\SVRT Experiments\SVRT Experiment 3\svrt_images\generated_images\results_problem_6\sample_0_0010.png,,,,,,,,,,,,,,,,,,,,,,0,1,1,1,0,30,30,30,,,,,,,,,,,,,,f,6,A,B,27,0,Incorrect!,0.5320216000000073,217.57077900000002,None,217.57077900000002,None,218.1707953,None,,,,,106,001,2023-10-06_15h45.15.476,colored_sorted,2021.2.3,59.99217702011724,
C:\Users\subject\Desktop\SVRT Experiments\SVRT Experiment 3\svrt_images\generated_images\results_problem_6,,C:\Users\subject\Desktop\SVRT Experiments\SVRT Experiment 3\svrt_images\generated_images\results_problem_6\sample_1_0004.png,,,,,,,,,,,,,,,,,,,,,,0,1,1,1,0,31,31,31,,,,,,,,,,,,,,f,6,A,A,27,1,Correct!,0.18997390000004089,219.52085190000003,None,219.52085190000003,None,219.787513,None,,,,,106,001,2023-10-06_15h45.15.476,colored_sorted,2021.2.3,59.99217702011724,
C:\Users\subject\Desktop\SVRT Experiments\SVRT Experiment 3\svrt_images\generated_images\results_problem_6,,C:\Users\subject\Desktop\SVRT Experiments\SVRT Experiment 3\svrt_images\generated_images\results_problem_6\sample_1_0006.png,,,,,,,,,,,,,,,,,,,,,,0,1,1,1,0,32,32,32,,,,,,,,,,,,,,f,6,A,A,27,1,Correct!,0.124612500000012,221.1542344,None,221.1542344,None,221.3542359,None,,,,,106,001,2023-10-06_15h45.15.476,colored_sorted,2021.2.3,59.99217702011724,
C:\Users\subject\Desktop\SVRT Experiments\SVRT Experiment 3\svrt_images\generated_images\results_problem_6,,C:\Users\subject\Desktop\SVRT Experiments\SVRT Experiment 3\svrt_images\generated_images\results_problem_6\sample_1_0001.png,,,,,,,,,,,,,,,,,,,,,,0,1,1,1,0,33,33,33,,,,,,,,,,,,,,f,6,A,A,27,1,Correct!,0.2691578000000163,222.7376172,None,222.7376172,None,223.0542931,None,,,,,106,001,2023-10-06_15h45.15.476,colored_sorted,2021.2.3,59.99217702011724,
C:\Users\subject\Desktop\SVRT Experiments\SVRT Experiment 3\svrt_images\generated_images\results_problem_6,,,,,,,,,,,,,,,,,,,,,,,,0,1,1,1,,,,,,,,,,,,,,,,,,,,,,,,,,,,,,,,224.0543263,224.0543263,space,0.8724685999999906,106,001,2023-10-06_15h45.15.476,colored_sorted,2021.2.3,59.99217702011724,
C:\Users\subject\Desktop\SVRT Experiments\SVRT Experiment 3\svrt_images\generated_images\results_problem_17,,,C:\Users\subject\Desktop\SVRT Experiments\SVRT Experiment 3\svrt_images\generated_images\results_problem_17\sample_1_0003.png,,,,,,,,,,,,,,,,,,,,,0,2,2,2,0,0,0,0,,,,,,,,,,,,,,j,17,B,A,27,0,Incorrect!,1.4357782999999813,224.97102,None,224.97102,None,226.4377326,None,,,,,106,001,2023-10-06_15h45.15.476,colored_sorted,2021.2.3,59.99217702011724,
C:\Users\subject\Desktop\SVRT Experiments\SVRT Experiment 3\svrt_images\generated_images\results_problem_17,,,C:\Users\subject\Desktop\SVRT Experiments\SVRT Experiment 3\svrt_images\generated_images\results_problem_17\sample_0_0007.png,,,,,,,,,,,,,,,,,,,,,0,2,2,2,0,1,1,1,,,,,,,,,,,,,,f,17,A,B,27,0,Incorrect!,0.6083772999999724,227.454499,None,227.454499,None,228.08779070000003,None,,,,,106,001,2023-10-06_15h45.15.476,colored_sorted,2021.2.3,59.99217702011724,
C:\Users\subject\Desktop\SVRT Experiments\SVRT Experiment 3\svrt_images\generated_images\results_problem_17,,,C:\Users\subject\Desktop\SVRT Experiments\SVRT Experiment 3\svrt_images\generated_images\results_problem_17\sample_1_0000.png,,,,,,,,,,,,,,,,,,,,,0,2,2,2,0,2,2,2,,,,,,,,,,,,,,j,17,B,A,27,0,Incorrect!,1.414309199999991,229.1044546,None,229.1044546,None,230.53787240000003,None,,,,,106,001,2023-10-06_15h45.15.476,colored_sorted,2021.2.3,59.99217702011724,
C:\Users\subject\Desktop\SVRT Experiments\SVRT Experiment 3\svrt_images\generated_images\results_problem_17,,,C:\Users\subject\Desktop\SVRT Experiments\SVRT Experiment 3\svrt_images\generated_images\results_problem_17\sample_1_0013.png,,,,,,,,,,,,,,,,,,,,,0,2,2,2,0,3,3,3,,,,,,,,,,,,,,j,17,B,A,27,0,Incorrect!,0.2915067999999792,231.57123870000004,None,231.57123870000004,None,231.8879195,None,,,,,106,001,2023-10-06_15h45.15.476,colored_sorted,2021.2.3,59.99217702011724,
C:\Users\subject\Desktop\SVRT Experiments\SVRT Experiment 3\svrt_images\generated_images\results_problem_17,,,C:\Users\subject\Desktop\SVRT Experiments\SVRT Experiment 3\svrt_images\generated_images\results_problem_17\sample_0_0016.png,,,,,,,,,,,,,,,,,,,,,0,2,2,2,0,4,4,4,,,,,,,,,,,,,,j,17,B,B,27,1,Correct!,0.2854411000000141,232.9212928,None,232.9212928,None,233.23795770000004,None,,,,,106,001,2023-10-06_15h45.15.476,colored_sorted,2021.2.3,59.99217702011724,
C:\Users\subject\Desktop\SVRT Experiments\SVRT Experiment 3\svrt_images\generated_images\results_problem_17,,,C:\Users\subject\Desktop\SVRT Experiments\SVRT Experiment 3\svrt_images\generated_images\results_problem_17\sample_1_0001.png,,,,,,,,,,,,,,,,,,,,,0,2,2,2,0,5,5,5,,,,,,,,,,,,,,j,17,B,A,27,0,Incorrect!,0.23082770000002029,234.28798570000004,None,234.28798570000004,None,234.53799910000004,None,,,,,106,001,2023-10-06_15h45.15.476,colored_sorted,2021.2.3,59.99217702011724,
C:\Users\subject\Desktop\SVRT Experiments\SVRT Experiment 3\svrt_images\generated_images\results_problem_17,,,C:\Users\subject\Desktop\SVRT Experiments\SVRT Experiment 3\svrt_images\generated_images\results_problem_17\sample_1_0015.png,,,,,,,,,,,,,,,,,,,,,0,2,2,2,0,6,6,6,,,,,,,,,,,,,,j,17,B,A,27,0,Incorrect!,0.18665979999997262,235.588031,None,235.588031,None,235.80468990000003,None,,,,,106,001,2023-10-06_15h45.15.476,colored_sorted,2021.2.3,59.99217702011724,
C:\Users\subject\Desktop\SVRT Experiments\SVRT Experiment 3\svrt_images\generated_images\results_problem_17,,,C:\Users\subject\Desktop\SVRT Experiments\SVRT Experiment 3\svrt_images\generated_images\results_problem_17\sample_0_0012.png,,,,,,,,,,,,,,,,,,,,,0,2,2,2,0,7,7,7,,,,,,,,,,,,,,f,17,A,B,27,0,Incorrect!,0.03931889999995519,236.87141480000003,None,236.87141480000003,None,236.93808310000003,None,,,,,106,001,2023-10-06_15h45.15.476,colored_sorted,2021.2.3,59.99217702011724,
C:\Users\subject\Desktop\SVRT Experiments\SVRT Experiment 3\svrt_images\generated_images\results_problem_17,,,C:\Users\subject\Desktop\SVRT Experiments\SVRT Experiment 3\svrt_images\generated_images\results_problem_17\sample_1_0006.png,,,,,,,,,,,,,,,,,,,,,0,2,2,2,0,8,8,8,,,,,,,,,,,,,,f,17,A,A,27,1,Correct!,0.4332047999999986,238.0214492,None,238.0214492,None,238.4714593,None,,,,,106,001,2023-10-06_15h45.15.476,colored_sorted,2021.2.3,59.99217702011724,
C:\Users\subject\Desktop\SVRT Experiments\SVRT Experiment 3\svrt_images\generated_images\results_problem_17,,,C:\Users\subject\Desktop\SVRT Experiments\SVRT Experiment 3\svrt_images\generated_images\results_problem_17\sample_1_0009.png,,,,,,,,,,,,,,,,,,,,,0,2,2,2,0,9,9,9,,,,,,,,,,,,,,f,17,A,A,27,1,Correct!,0.28386640000002217,239.55483300000003,None,239.55483300000003,None,239.87150350000002,None,,,,,106,001,2023-10-06_15h45.15.476,colored_sorted,2021.2.3,59.99217702011724,
C:\Users\subject\Desktop\SVRT Experiments\SVRT Experiment 3\svrt_images\generated_images\results_problem_17,,,C:\Users\subject\Desktop\SVRT Experiments\SVRT Experiment 3\svrt_images\generated_images\results_problem_17\sample_0_0008.png,,,,,,,,,,,,,,,,,,,,,0,2,2,2,0,10,10,10,,,,,,,,,,,,,,f,17,A,B,27,0,Incorrect!,0.019142299999998613,240.9715453,None,240.9715453,None,241.021527,None,,,,,106,001,2023-10-06_15h45.15.476,colored_sorted,2021.2.3,59.99217702011724,
C:\Users\subject\Desktop\SVRT Experiments\SVRT Experiment 3\svrt_images\generated_images\results_problem_17,,,C:\Users\subject\Desktop\SVRT Experiments\SVRT Experiment 3\svrt_images\generated_images\results_problem_17\sample_1_0016.png,,,,,,,,,,,,,,,,,,,,,0,2,2,2,0,11,11,11,,,,,,,,,,,,,,f,17,A,A,27,1,Correct!,1.0772031000000197,242.12157590000004,None,242.12157590000004,None,243.22158890000003,None,,,,,106,001,2023-10-06_15h45.15.476,colored_sorted,2021.2.3,59.99217702011724,
C:\Users\subject\Desktop\SVRT Experiments\SVRT Experiment 3\svrt_images\generated_images\results_problem_17,,,C:\Users\subject\Desktop\SVRT Experiments\SVRT Experiment 3\svrt_images\generated_images\results_problem_17\sample_1_0011.png,,,,,,,,,,,,,,,,,,,,,0,2,2,2,0,12,12,12,,,,,,,,,,,,,,f,17,A,A,27,1,Correct!,0.22032640000003312,244.33832560000002,None,244.33832560000002,None,244.5883285,None,,,,,106,001,2023-10-06_15h45.15.476,colored_sorted,2021.2.3,59.99217702011724,
C:\Users\subject\Desktop\SVRT Experiments\SVRT Experiment 3\svrt_images\generated_images\results_problem_17,,,C:\Users\subject\Desktop\SVRT Experiments\SVRT Experiment 3\svrt_images\generated_images\results_problem_17\sample_0_0005.png,,,,,,,,,,,,,,,,,,,,,0,2,2,2,0,13,13,13,,,,,,,,,,,,,,f,17,A,B,27,0,Incorrect!,0.24365430000000288,245.7549904,None,245.7549904,None,246.03837680000004,None,,,,,106,001,2023-10-06_15h45.15.476,colored_sorted,2021.2.3,59.99217702011724,
C:\Users\subject\Desktop\SVRT Experiments\SVRT Experiment 3\svrt_images\generated_images\results_problem_17,,,C:\Users\subject\Desktop\SVRT Experiments\SVRT Experiment 3\svrt_images\generated_images\results_problem_17\sample_0_0014.png,,,,,,,,,,,,,,,,,,,,,0,2,2,2,0,14,14,14,,,,,,,,,,,,,,j,17,B,B,27,1,Correct!,0.11492789999999786,247.1717193,None,247.1717193,None,247.32175540000003,None,,,,,106,001,2023-10-06_15h45.15.476,colored_sorted,2021.2.3,59.99217702011724,
C:\Users\subject\Desktop\SVRT Experiments\SVRT Experiment 3\svrt_images\generated_images\results_problem_17,,,C:\Users\subject\Desktop\SVRT Experiments\SVRT Experiment 3\svrt_images\generated_images\results_problem_17\sample_1_0005.png,,,,,,,,,,,,,,,,,,,,,0,2,2,2,0,15,15,15,,,,,,,,,,,,,,j,17,B,A,27,0,Incorrect!,0.030860500000017055,248.4717834,None,248.4717834,None,248.5217717,None,,,,,106,001,2023-10-06_15h45.15.476,colored_sorted,2021.2.3,59.99217702011724,
C:\Users\subject\Desktop\SVRT Experiments\SVRT Experiment 3\svrt_images\generated_images\results_problem_17,,,C:\Users\subject\Desktop\SVRT Experiments\SVRT Experiment 3\svrt_images\generated_images\results_problem_17\sample_0_0015.png,,,,,,,,,,,,,,,,,,,,,0,2,2,2,0,16,16,16,,,,,,,,,,,,,,j,17,B,B,27,1,Correct!,0.1901593000000048,249.68850330000004,None,249.68850330000004,None,249.9051908,None,,,,,106,001,2023-10-06_15h45.15.476,colored_sorted,2021.2.3,59.99217702011724,
C:\Users\subject\Desktop\SVRT Experiments\SVRT Experiment 3\svrt_images\generated_images\results_problem_17,,,C:\Users\subject\Desktop\SVRT Experiments\SVRT Experiment 3\svrt_images\generated_images\results_problem_17\sample_0_0001.png,,,,,,,,,,,,,,,,,,,,,0,2,2,2,0,17,17,17,,,,,,,,,,,,,,j,17,B,B,27,1,Correct!,0.13402339999998958,251.0885581,None,251.0885581,None,251.27188030000002,None,,,,,106,001,2023-10-06_15h45.15.476,colored_sorted,2021.2.3,59.99217702011724,
C:\Users\subject\Desktop\SVRT Experiments\SVRT Experiment 3\svrt_images\generated_images\results_problem_17,,,C:\Users\subject\Desktop\SVRT Experiments\SVRT Experiment 3\svrt_images\generated_images\results_problem_17\sample_1_0012.png,,,,,,,,,,,,,,,,,,,,,0,2,2,2,0,18,18,18,,,,,,,,,,,,,,j,17,B,A,27,0,Incorrect!,0.9833588999999847,252.45526130000002,None,252.45526130000002,None,253.47195090000002,None,,,,,106,001,2023-10-06_15h45.15.476,colored_sorted,2021.2.3,59.99217702011724,
C:\Users\subject\Desktop\SVRT Experiments\SVRT Experiment 3\svrt_images\generated_images\results_problem_17,,,C:\Users\subject\Desktop\SVRT Experiments\SVRT Experiment 3\svrt_images\generated_images\results_problem_17\sample_0_0010.png,,,,,,,,,,,,,,,,,,,,,0,2,2,2,0,19,19,19,,,,,,,,,,,,,,f,17,A,B,27,0,Incorrect!,0.2705801999999835,254.67199550000004,None,254.67199550000004,None,254.9886528,None,,,,,106,001,2023-10-06_15h45.15.476,colored_sorted,2021.2.3,59.99217702011724,
C:\Users\subject\Desktop\SVRT Experiments\SVRT Experiment 3\svrt_images\generated_images\results_problem_17,,,C:\Users\subject\Desktop\SVRT Experiments\SVRT Experiment 3\svrt_images\generated_images\results_problem_17\sample_0_0003.png,,,,,,,,,,,,,,,,,,,,,0,2,2,2,0,20,20,20,,,,,,,,,,,,,,j,17,B,B,27,1,Correct!,0.16919710000001942,256.205379,None,256.205379,None,256.4220556,None,,,,,106,001,2023-10-06_15h45.15.476,colored_sorted,2021.2.3,59.99217702011724,
C:\Users\subject\Desktop\SVRT Experiments\SVRT Experiment 3\svrt_images\generated_images\results_problem_17,,,C:\Users\subject\Desktop\SVRT Experiments\SVRT Experiment 3\svrt_images\generated_images\results_problem_17\sample_0_0002.png,,,,,,,,,,,,,,,,,,,,,0,2,2,2,0,21,21,21,,,,,,,,,,,,,,j,17,B,B,27,1,Correct!,0.08652039999998351,257.6720953,None,257.6720953,None,257.7887621,None,,,,,106,001,2023-10-06_15h45.15.476,colored_sorted,2021.2.3,59.99217702011724,
C:\Users\subject\Desktop\SVRT Experiments\SVRT Experiment 3\svrt_images\generated_images\results_problem_17,,,C:\Users\subject\Desktop\SVRT Experiments\SVRT Experiment 3\svrt_images\generated_images\results_problem_17\sample_1_0010.png,,,,,,,,,,,,,,,,,,,,,0,2,2,2,0,22,22,22,,,,,,,,,,,,,,j,17,B,A,27,0,Incorrect!,0.23118090000002667,259.0554616,None,259.0554616,None,259.3221542,None,,,,,106,001,2023-10-06_15h45.15.476,colored_sorted,2021.2.3,59.99217702011724,
C:\Users\subject\Desktop\SVRT Experiments\SVRT Experiment 3\svrt_images\generated_images\results_problem_17,,,C:\Users\subject\Desktop\SVRT Experiments\SVRT Experiment 3\svrt_images\generated_images\results_problem_17\sample_0_0006.png,,,,,,,,,,,,,,,,,,,,,0,2,2,2,0,23,23,23,,,,,,,,,,,,,,j,17,B,B,27,1,Correct!,0.0023934000000167543,260.5721931,None,260.5721931,None,260.6388539,None,,,,,106,001,2023-10-06_15h45.15.476,colored_sorted,2021.2.3,59.99217702011724,
C:\Users\subject\Desktop\SVRT Experiments\SVRT Experiment 3\svrt_images\generated_images\results_problem_17,,,C:\Users\subject\Desktop\SVRT Experiments\SVRT Experiment 3\svrt_images\generated_images\results_problem_17\sample_1_0008.png,,,,,,,,,,,,,,,,,,,,,0,2,2,2,0,24,24,24,,,,,,,,,,,,,,j,17,B,A,27,0,Incorrect!,0.5969499000000269,261.9055692,None,261.9055692,None,262.5222382,None,,,,,106,001,2023-10-06_15h45.15.476,colored_sorted,2021.2.3,59.99217702011724,
C:\Users\subject\Desktop\SVRT Experiments\SVRT Experiment 3\svrt_images\generated_images\results_problem_17,,,C:\Users\subject\Desktop\SVRT Experiments\SVRT Experiment 3\svrt_images\generated_images\results_problem_17\sample_1_0007.png,,,,,,,,,,,,,,,,,,,,,0,2,2,2,0,25,25,25,,,,,,,,,,,,,,j,17,B,A,27,0,Incorrect!,0.1369096999999897,263.8056374,None,263.8056374,None,264.0222989,None,,,,,106,001,2023-10-06_15h45.15.476,colored_sorted,2021.2.3,59.99217702011724,
C:\Users\subject\Desktop\SVRT Experiments\SVRT Experiment 3\svrt_images\generated_images\results_problem_17,,,C:\Users\subject\Desktop\SVRT Experiments\SVRT Experiment 3\svrt_images\generated_images\results_problem_17\sample_1_0014.png,,,,,,,,,,,,,,,,,,,,,0,2,2,2,0,26,26,26,,,,,,,,,,,,,,j,17,B,A,27,0,Incorrect!,0.16421340000005102,265.3223443,None,265.3223443,None,265.5390137,None,,,,,106,001,2023-10-06_15h45.15.476,colored_sorted,2021.2.3,59.99217702011724,
C:\Users\subject\Desktop\SVRT Experiments\SVRT Experiment 3\svrt_images\generated_images\results_problem_17,,,C:\Users\subject\Desktop\SVRT Experiments\SVRT Experiment 3\svrt_images\generated_images\results_problem_17\sample_1_0002.png,,,,,,,,,,,,,,,,,,,,,0,2,2,2,0,27,27,27,,,,,,,,,,,,,,j,17,B,A,27,0,Incorrect!,0.28754270000001725,266.83906890000003,None,266.83906890000003,None,267.1890297,None,,,,,106,001,2023-10-06_15h45.15.476,colored_sorted,2021.2.3,59.99217702011724,
C:\Users\subject\Desktop\SVRT Experiments\SVRT Experiment 3\svrt_images\generated_images\results_problem_17,,,C:\Users\subject\Desktop\SVRT Experiments\SVRT Experiment 3\svrt_images\generated_images\results_problem_17\sample_0_0013.png,,,,,,,,,,,,,,,,,,,,,0,2,2,2,0,28,28,28,,,,,,,,,,,,,,f,17,A,B,27,0,Incorrect!,0.27669219999995676,268.50578390000004,None,268.50578390000004,None,268.8557904,None,,,,,106,001,2023-10-06_15h45.15.476,colored_sorted,2021.2.3,59.99217702011724,
C:\Users\subject\Desktop\SVRT Experiments\SVRT Experiment 3\svrt_images\generated_images\results_problem_17,,,C:\Users\subject\Desktop\SVRT Experiments\SVRT Experiment 3\svrt_images\generated_images\results_problem_17\sample_0_0011.png,,,,,,,,,,,,,,,,,,,,,0,2,2,2,0,29,29,29,,,,,,,,,,,,,,f,17,A,B,27,0,Incorrect!,0.3773304000000053,270.1891772,None,270.1891772,None,270.6225139,None,,,,,106,001,2023-10-06_15h45.15.476,colored_sorted,2021.2.3,59.99217702011724,
C:\Users\subject\Desktop\SVRT Experiments\SVRT Experiment 3\svrt_images\generated_images\results_problem_17,,,C:\Users\subject\Desktop\SVRT Experiments\SVRT Experiment 3\svrt_images\generated_images\results_problem_17\sample_1_0004.png,,,,,,,,,,,,,,,,,,,,,0,2,2,2,0,30,30,30,,,,,,,,,,,,,,f,17,A,A,27,1,Correct!,0.48188549999997576,271.9725801,None,271.9725801,None,272.4892423,None,,,,,106,001,2023-10-06_15h45.15.476,colored_sorted,2021.2.3,59.99217702011724,
C:\Users\subject\Desktop\SVRT Experiments\SVRT Experiment 3\svrt_images\generated_images\results_problem_17,,,C:\Users\subject\Desktop\SVRT Experiments\SVRT Experiment 3\svrt_images\generated_images\results_problem_17\sample_0_0004.png,,,,,,,,,,,,,,,,,,,,,0,2,2,2,0,31,31,31,,,,,,,,,,,,,,f,17,A,B,27,0,Incorrect!,0.2631460000000061,273.8393077,None,273.8393077,None,274.1892998,None,,,,,106,001,2023-10-06_15h45.15.476,colored_sorted,2021.2.3,59.99217702011724,
C:\Users\subject\Desktop\SVRT Experiments\SVRT Experiment 3\svrt_images\generated_images\results_problem_17,,,C:\Users\subject\Desktop\SVRT Experiments\SVRT Experiment 3\svrt_images\generated_images\results_problem_17\sample_0_0000.png,,,,,,,,,,,,,,,,,,,,,0,2,2,2,0,32,32,32,,,,,,,,,,,,,,j,17,B,B,27,1,Correct!,0.5297471000000087,275.57268700000003,None,275.57268700000003,None,276.189325,None,,,,,106,001,2023-10-06_15h45.15.476,colored_sorted,2021.2.3,59.99217702011724,
C:\Users\subject\Desktop\SVRT Experiments\SVRT Experiment 3\svrt_images\generated_images\results_problem_17,,,C:\Users\subject\Desktop\SVRT Experiments\SVRT Experiment 3\svrt_images\generated_images\results_problem_17\sample_0_0009.png,,,,,,,,,,,,,,,,,,,,,0,2,2,2,0,33,33,33,,,,,,,,,,,,,,j,17,B,B,27,1,Correct!,0.24169949999998153,277.57275400000003,None,277.57275400000003,None,277.8894179,None,,,,,106,001,2023-10-06_15h45.15.476,colored_sorted,2021.2.3,59.99217702011724,
C:\Users\subject\Desktop\SVRT Experiments\SVRT Experiment 3\svrt_images\generated_images\results_problem_17,,,,,,,,,,,,,,,,,,,,,,,,0,2,2,2,,,,,,,,,,,,,,,,,,,,,,,,,,,,,,,,278.88947,278.88947,space,0.8049649000000159,106,001,2023-10-06_15h45.15.476,colored_sorted,2021.2.3,59.99217702011724,
C:\Users\subject\Desktop\SVRT Experiments\SVRT Experiment 3\svrt_images\generated_images\results_problem_10,,,,C:\Users\subject\Desktop\SVRT Experiments\SVRT Experiment 3\svrt_images\generated_images\results_problem_10\sample_1_0000.png,,,,,,,,,,,,,,,,,,,,0,3,3,3,0,0,0,0,,,,,,,,,,,,,,j,10,B,A,27,0,Incorrect!,0.8669502000000193,279.7394842,None,279.7394842,None,280.639497,None,,,,,106,001,2023-10-06_15h45.15.476,colored_sorted,2021.2.3,59.99217702011724,
C:\Users\subject\Desktop\SVRT Experiments\SVRT Experiment 3\svrt_images\generated_images\results_problem_10,,,,C:\Users\subject\Desktop\SVRT Experiments\SVRT Experiment 3\svrt_images\generated_images\results_problem_10\sample_0_0005.png,,,,,,,,,,,,,,,,,,,,0,3,3,3,0,1,1,1,,,,,,,,,,,,,,j,10,B,B,27,1,Correct!,0.29420700000002853,281.65621200000004,None,281.65621200000004,None,281.9728884,None,,,,,106,001,2023-10-06_15h45.15.476,colored_sorted,2021.2.3,59.99217702011724,
C:\Users\subject\Desktop\SVRT Experiments\SVRT Experiment 3\svrt_images\generated_images\results_problem_10,,,,C:\Users\subject\Desktop\SVRT Experiments\SVRT Experiment 3\svrt_images\generated_images\results_problem_10\sample_1_0014.png,,,,,,,,,,,,,,,,,,,,0,3,3,3,0,2,2,2,,,,,,,,,,,,,,j,10,B,A,27,0,Incorrect!,0.24882660000002943,282.98954960000003,None,282.98954960000003,None,283.2562591,None,,,,,106,001,2023-10-06_15h45.15.476,colored_sorted,2021.2.3,59.99217702011724,
C:\Users\subject\Desktop\SVRT Experiments\SVRT Experiment 3\svrt_images\generated_images\results_problem_10,,,,C:\Users\subject\Desktop\SVRT Experiments\SVRT Experiment 3\svrt_images\generated_images\results_problem_10\sample_1_0012.png,,,,,,,,,,,,,,,,,,,,0,3,3,3,0,3,3,3,,,,,,,,,,,,,,j,10,B,A,27,0,Incorrect!,0.2447936000000368,284.2896308,None,284.2896308,None,284.55631120000004,None,,,,,106,001,2023-10-06_15h45.15.476,colored_sorted,2021.2.3,59.99217702011724,
C:\Users\subject\Desktop\SVRT Experiments\SVRT Experiment 3\svrt_images\generated_images\results_problem_10,,,,C:\Users\subject\Desktop\SVRT Experiments\SVRT Experiment 3\svrt_images\generated_images\results_problem_10\sample_0_0013.png,,,,,,,,,,,,,,,,,,,,0,3,3,3,0,4,4,4,,,,,,,,,,,,,,f,10,A,B,27,0,Incorrect!,0.2247616000000221,285.5896755,None,285.5896755,None,285.83968070000003,None,,,,,106,001,2023-10-06_15h45.15.476,colored_sorted,2021.2.3,59.99217702011724,
C:\Users\subject\Desktop\SVRT Experiments\SVRT Experiment 3\svrt_images\generated_images\results_problem_10,,,,C:\Users\subject\Desktop\SVRT Experiments\SVRT Experiment 3\svrt_images\generated_images\results_problem_10\sample_1_0005.png,,,,,,,,,,,,,,,,,,,,0,3,3,3,0,5,5,5,,,,,,,,,,,,,,f,10,A,A,27,1,Correct!,0.5726748000000157,286.8897222,None,286.8897222,None,287.48973390000003,None,,,,,106,001,2023-10-06_15h45.15.476,colored_sorted,2021.2.3,59.99217702011724,
C:\Users\subject\Desktop\SVRT Experiments\SVRT Experiment 3\svrt_images\generated_images\results_problem_10,,,,C:\Users\subject\Desktop\SVRT Experiments\SVRT Experiment 3\svrt_images\generated_images\results_problem_10\sample_0_0015.png,,,,,,,,,,,,,,,,,,,,0,3,3,3,0,6,6,6,,,,,,,,,,,,,,f,10,A,B,27,0,Incorrect!,0.21792720000001964,288.5564452,None,288.5564452,None,288.8064451,None,,,,,106,001,2023-10-06_15h45.15.476,colored_sorted,2021.2.3,59.99217702011724,
C:\Users\subject\Desktop\SVRT Experiments\SVRT Experiment 3\svrt_images\generated_images\results_problem_10,,,,C:\Users\subject\Desktop\SVRT Experiments\SVRT Experiment 3\svrt_images\generated_images\results_problem_10\sample_1_0007.png,,,,,,,,,,,,,,,,,,,,0,3,3,3,0,7,7,7,,,,,,,,,,,,,,f,10,A,A,27,1,Correct!,0.21327669999999443,289.8731081,None,289.8731081,None,290.1064835,None,,,,,106,001,2023-10-06_15h45.15.476,colored_sorted,2021.2.3,59.99217702011724,
C:\Users\subject\Desktop\SVRT Experiments\SVRT Experiment 3\svrt_images\generated_images\results_problem_10,,,,C:\Users\subject\Desktop\SVRT Experiments\SVRT Experiment 3\svrt_images\generated_images\results_problem_10\sample_1_0001.png,,,,,,,,,,,,,,,,,,,,0,3,3,3,0,8,8,8,,,,,,,,,,,,,,f,10,A,A,27,1,Correct!,0.2965257000000179,291.18986540000003,None,291.18986540000003,None,291.5065114,None,,,,,106,001,2023-10-06_15h45.15.476,colored_sorted,2021.2.3,59.99217702011724,
C:\Users\subject\Desktop\SVRT Experiments\SVRT Experiment 3\svrt_images\generated_images\results_problem_10,,,,C:\Users\subject\Desktop\SVRT Experiments\SVRT Experiment 3\svrt_images\generated_images\results_problem_10\sample_0_0007.png,,,,,,,,,,,,,,,,,,,,0,3,3,3,0,9,9,9,,,,,,,,,,,,,,f,10,A,B,27,0,Incorrect!,0.1444405999999958,292.5899038,None,292.5899038,None,292.7565721,None,,,,,106,001,2023-10-06_15h45.15.476,colored_sorted,2021.2.3,59.99217702011724,
C:\Users\subject\Desktop\SVRT Experiments\SVRT Experiment 3\svrt_images\generated_images\results_problem_10,,,,C:\Users\subject\Desktop\SVRT Experiments\SVRT Experiment 3\svrt_images\generated_images\results_problem_10\sample_0_0000.png,,,,,,,,,,,,,,,,,,,,0,3,3,3,0,10,10,10,,,,,,,,,,,,,,f,10,A,B,27,0,Incorrect!,0.14985259999997425,293.8566141,None,293.8566141,None,294.02326400000004,None,,,,,106,001,2023-10-06_15h45.15.476,colored_sorted,2021.2.3,59.99217702011724,
C:\Users\subject\Desktop\SVRT Experiments\SVRT Experiment 3\svrt_images\generated_images\results_problem_10,,,,C:\Users\subject\Desktop\SVRT Experiments\SVRT Experiment 3\svrt_images\generated_images\results_problem_10\sample_1_0016.png,,,,,,,,,,,,,,,,,,,,0,3,3,3,0,11,11,11,,,,,,,,,,,,,,f,10,A,A,27,1,Correct!,0.035026799999968716,295.1233257,None,295.1233257,None,295.1899864,None,,,,,106,001,2023-10-06_15h45.15.476,colored_sorted,2021.2.3,59.99217702011724,
C:\Users\subject\Desktop\SVRT Experiments\SVRT Experiment 3\svrt_images\generated_images\results_problem_10,,,,C:\Users\subject\Desktop\SVRT Experiments\SVRT Experiment 3\svrt_images\generated_images\results_problem_10\sample_0_0006.png,,,,,,,,,,,,,,,,,,,,0,3,3,3,0,12,12,12,,,,,,,,,,,,,,j,10,B,B,27,1,Correct!,0.18765020000000732,296.3066961,None,296.3066961,None,296.5233686,None,,,,,106,001,2023-10-06_15h45.15.476,colored_sorted,2021.2.3,59.99217702011724,
C:\Users\subject\Desktop\SVRT Experiments\SVRT Experiment 3\svrt_images\generated_images\results_problem_10,,,,C:\Users\subject\Desktop\SVRT Experiments\SVRT Experiment 3\svrt_images\generated_images\results_problem_10\sample_0_0008.png,,,,,,,,,,,,,,,,,,,,0,3,3,3,0,13,13,13,,,,,,,,,,,,,,j,10,B,B,27,1,Correct!,0.08554639999999836,297.6567436,None,297.6567436,None,297.7733993,None,,,,,106,001,2023-10-06_15h45.15.476,colored_sorted,2021.2.3,59.99217702011724,
C:\Users\subject\Desktop\SVRT Experiments\SVRT Experiment 3\svrt_images\generated_images\results_problem_10,,,,C:\Users\subject\Desktop\SVRT Experiments\SVRT Experiment 3\svrt_images\generated_images\results_problem_10\sample_0_0012.png,,,,,,,,,,,,,,,,,,,,0,3,3,3,0,14,14,14,,,,,,,,,,,,,,f,10,A,B,27,0,Incorrect!,0.2115419999999517,298.90678510000004,None,298.90678510000004,None,299.1567886,None,,,,,106,001,2023-10-06_15h45.15.476,colored_sorted,2021.2.3,59.99217702011724,
C:\Users\subject\Desktop\SVRT Experiments\SVRT Experiment 3\svrt_images\generated_images\results_problem_10,,,,C:\Users\subject\Desktop\SVRT Experiments\SVRT Experiment 3\svrt_images\generated_images\results_problem_10\sample_1_0013.png,,,,,,,,,,,,,,,,,,,,0,3,3,3,0,15,15,15,,,,,,,,,,,,,,f,10,A,A,27,1,Correct!,0.8274549999999863,300.3068263,None,300.3068263,None,301.15684170000003,None,,,,,106,001,2023-10-06_15h45.15.476,colored_sorted,2021.2.3,59.99217702011724,
C:\Users\subject\Desktop\SVRT Experiments\SVRT Experiment 3\svrt_images\generated_images\results_problem_10,,,,C:\Users\subject\Desktop\SVRT Experiments\SVRT Experiment 3\svrt_images\generated_images\results_problem_10\sample_0_0002.png,,,,,,,,,,,,,,,,,,,,0,3,3,3,0,16,16,16,,,,,,,,,,,,,,f,10,A,B,27,0,Incorrect!,0.29075519999997823,302.3235619,None,302.3235619,None,302.6402291,None,,,,,106,001,2023-10-06_15h45.15.476,colored_sorted,2021.2.3,59.99217702011724,
C:\Users\subject\Desktop\SVRT Experiments\SVRT Experiment 3\svrt_images\generated_images\results_problem_10,,,,C:\Users\subject\Desktop\SVRT Experiments\SVRT Experiment 3\svrt_images\generated_images\results_problem_10\sample_1_0002.png,,,,,,,,,,,,,,,,,,,,0,3,3,3,0,17,17,17,,,,,,,,,,,,,,j,10,B,A,27,0,Incorrect!,0.08670929999999544,303.8236084,None,303.8236084,None,303.9402812,None,,,,,106,001,2023-10-06_15h45.15.476,colored_sorted,2021.2.3,59.99217702011724,
C:\Users\subject\Desktop\SVRT Experiments\SVRT Experiment 3\svrt_images\generated_images\results_problem_10,,,,C:\Users\subject\Desktop\SVRT Experiments\SVRT Experiment 3\svrt_images\generated_images\results_problem_10\sample_0_0016.png,,,,,,,,,,,,,,,,,,,,0,3,3,3,0,18,18,18,,,,,,,,,,,,,,j,10,B,B,27,1,Correct!,0.4106144000000427,305.1236511,None,305.1236511,None,305.5569934,None,,,,,106,001,2023-10-06_15h45.15.476,colored_sorted,2021.2.3,59.99217702011724,
C:\Users\subject\Desktop\SVRT Experiments\SVRT Experiment 3\svrt_images\generated_images\results_problem_10,,,,C:\Users\subject\Desktop\SVRT Experiments\SVRT Experiment 3\svrt_images\generated_images\results_problem_10\sample_0_0009.png,,,,,,,,,,,,,,,,,,,,0,3,3,3,0,19,19,19,,,,,,,,,,,,,,j,10,B,B,27,1,Correct!,0.38394169999997985,306.79037500000004,None,306.79037500000004,None,307.2070448,None,,,,,106,001,2023-10-06_15h45.15.476,colored_sorted,2021.2.3,59.99217702011724,
C:\Users\subject\Desktop\SVRT Experiments\SVRT Experiment 3\svrt_images\generated_images\results_problem_10,,,,C:\Users\subject\Desktop\SVRT Experiments\SVRT Experiment 3\svrt_images\generated_images\results_problem_10\sample_0_0003.png,,,,,,,,,,,,,,,,,,,,0,3,3,3,0,20,20,20,,,,,,,,,,,,,,j,10,B,B,27,1,Correct!,0.17445049999997764,308.4237604,None,308.4237604,None,308.6404306,None,,,,,106,001,2023-10-06_15h45.15.476,colored_sorted,2021.2.3,59.99217702011724,
C:\Users\subject\Desktop\SVRT Experiments\SVRT Experiment 3\svrt_images\generated_images\results_problem_10,,,,C:\Users\subject\Desktop\SVRT Experiments\SVRT Experiment 3\svrt_images\generated_images\results_problem_10\sample_0_0004.png,,,,,,,,,,,,,,,,,,,,0,3,3,3,0,21,21,21,,,,,,,,,,,,,,j,10,B,B,27,1,Correct!,0.5084775000000263,309.87380440000004,None,309.87380440000004,None,310.4404841,None,,,,,106,001,2023-10-06_15h45.15.476,colored_sorted,2021.2.3,59.99217702011724,
C:\Users\subject\Desktop\SVRT Experiments\SVRT Experiment 3\svrt_images\generated_images\results_problem_10,,,,C:\Users\subject\Desktop\SVRT Experiments\SVRT Experiment 3\svrt_images\generated_images\results_problem_10\sample_0_0011.png,,,,,,,,,,,,,,,,,,,,0,3,3,3,0,22,22,22,,,,,,,,,,,,,,j,10,B,B,27,1,Correct!,0.23627759999999398,311.6738907,None,311.6738907,None,311.94051460000003,None,,,,,106,001,2023-10-06_15h45.15.476,colored_sorted,2021.2.3,59.99217702011724,
C:\Users\subject\Desktop\SVRT Experiments\SVRT Experiment 3\svrt_images\generated_images\results_problem_10,,,,C:\Users\subject\Desktop\SVRT Experiments\SVRT Experiment 3\svrt_images\generated_images\results_problem_10\sample_1_0015.png,,,,,,,,,,,,,,,,,,,,0,3,3,3,0,23,23,23,,,,,,,,,,,,,,j,10,B,A,27,0,Incorrect!,0.23165149999999812,313.1905964,None,313.1905964,None,313.4572559,None,,,,,106,001,2023-10-06_15h45.15.476,colored_sorted,2021.2.3,59.99217702011724,
C:\Users\subject\Desktop\SVRT Experiments\SVRT Experiment 3\svrt_images\generated_images\results_problem_10,,,,C:\Users\subject\Desktop\SVRT Experiments\SVRT Experiment 3\svrt_images\generated_images\results_problem_10\sample_1_0008.png,,,,,,,,,,,,,,,,,,,,0,3,3,3,0,24,24,24,,,,,,,,,,,,,,f,10,A,A,27,1,Correct!,0.0902398000000062,314.7239522,None,314.7239522,None,314.87393510000004,None,,,,,106,001,2023-10-06_15h45.15.476,colored_sorted,2021.2.3,59.99217702011724,
C:\Users\subject\Desktop\SVRT Experiments\SVRT Experiment 3\svrt_images\generated_images\results_problem_10,,,,C:\Users\subject\Desktop\SVRT Experiments\SVRT Experiment 3\svrt_images\generated_images\results_problem_10\sample_1_0006.png,,,,,,,,,,,,,,,,,,,,0,3,3,3,0,25,25,25,,,,,,,,,,,,,,f,10,A,A,27,1,Correct!,0.37685279999999466,316.1573472,None,316.1573472,None,316.574022,None,,,,,106,001,2023-10-06_15h45.15.476,colored_sorted,2021.2.3,59.99217702011724,
C:\Users\subject\Desktop\SVRT Experiments\SVRT Experiment 3\svrt_images\generated_images\results_problem_10,,,,C:\Users\subject\Desktop\SVRT Experiments\SVRT Experiment 3\svrt_images\generated_images\results_problem_10\sample_0_0014.png,,,,,,,,,,,,,,,,,,,,0,3,3,3,0,26,26,26,,,,,,,,,,,,,,f,10,A,B,27,0,Incorrect!,0.3321530999999709,317.87407110000004,None,317.87407110000004,None,318.2240752,None,,,,,106,001,2023-10-06_15h45.15.476,colored_sorted,2021.2.3,59.99217702011724,
C:\Users\subject\Desktop\SVRT Experiments\SVRT Experiment 3\svrt_images\generated_images\results_problem_10,,,,C:\Users\subject\Desktop\SVRT Experiments\SVRT Experiment 3\svrt_images\generated_images\results_problem_10\sample_1_0010.png,,,,,,,,,,,,,,,,,,,,0,3,3,3,0,27,27,27,,,,,,,,,,,,,,j,10,B,A,27,0,Incorrect!,0.2980484000000274,319.52412050000004,None,319.52412050000004,None,319.87413200000003,None,,,,,106,001,2023-10-06_15h45.15.476,colored_sorted,2021.2.3,59.99217702011724,
C:\Users\subject\Desktop\SVRT Experiments\SVRT Experiment 3\svrt_images\generated_images\results_problem_10,,,,C:\Users\subject\Desktop\SVRT Experiments\SVRT Experiment 3\svrt_images\generated_images\results_problem_10\sample_1_0011.png,,,,,,,,,,,,,,,,,,,,0,3,3,3,0,28,28,28,,,,,,,,,,,,,,f,10,A,A,27,1,Correct!,0.09532579999995505,321.1908618,None,321.1908618,None,321.3741929,None,,,,,106,001,2023-10-06_15h45.15.476,colored_sorted,2021.2.3,59.99217702011724,
C:\Users\subject\Desktop\SVRT Experiments\SVRT Experiment 3\svrt_images\generated_images\results_problem_10,,,,C:\Users\subject\Desktop\SVRT Experiments\SVRT Experiment 3\svrt_images\generated_images\results_problem_10\sample_1_0004.png,,,,,,,,,,,,,,,,,,,,0,3,3,3,0,29,29,29,,,,,,,,,,,,,,j,10,B,A,27,0,Incorrect!,0.0639042000000245,322.7742492,None,322.7742492,None,322.8742416,None,,,,,106,001,2023-10-06_15h45.15.476,colored_sorted,2021.2.3,59.99217702011724,
C:\Users\subject\Desktop\SVRT Experiments\SVRT Experiment 3\svrt_images\generated_images\results_problem_10,,,,C:\Users\subject\Desktop\SVRT Experiments\SVRT Experiment 3\svrt_images\generated_images\results_problem_10\sample_0_0001.png,,,,,,,,,,,,,,,,,,,,0,3,3,3,0,30,30,30,,,,,,,,,,,,,,j,10,B,B,27,1,Correct!,0.09383549999995466,324.2242774,None,324.2242774,None,324.4076025,None,,,,,106,001,2023-10-06_15h45.15.476,colored_sorted,2021.2.3,59.99217702011724,
C:\Users\subject\Desktop\SVRT Experiments\SVRT Experiment 3\svrt_images\generated_images\results_problem_10,,,,C:\Users\subject\Desktop\SVRT Experiments\SVRT Experiment 3\svrt_images\generated_images\results_problem_10\sample_1_0009.png,,,,,,,,,,,,,,,,,,,,0,3,3,3,0,31,31,31,,,,,,,,,,,,,,j,10,B,A,27,0,Incorrect!,0.008493799999996554,325.75766150000004,None,325.75766150000004,None,325.8576613,None,,,,,106,001,2023-10-06_15h45.15.476,colored_sorted,2021.2.3,59.99217702011724,
C:\Users\subject\Desktop\SVRT Experiments\SVRT Experiment 3\svrt_images\generated_images\results_problem_10,,,,C:\Users\subject\Desktop\SVRT Experiments\SVRT Experiment 3\svrt_images\generated_images\results_problem_10\sample_1_0003.png,,,,,,,,,,,,,,,,,,,,0,3,3,3,0,32,32,32,,,,,,,,,,,,,,j,10,B,A,27,0,Incorrect!,0.005030900000008387,327.2410364,None,327.2410364,None,327.3576765,None,,,,,106,001,2023-10-06_15h45.15.476,colored_sorted,2021.2.3,59.99217702011724,
C:\Users\subject\Desktop\SVRT Experiments\SVRT Experiment 3\svrt_images\generated_images\results_problem_10,,,,C:\Users\subject\Desktop\SVRT Experiments\SVRT Experiment 3\svrt_images\generated_images\results_problem_10\sample_0_0010.png,,,,,,,,,,,,,,,,,,,,0,3,3,3,0,33,33,33,,,,,,,,,,,,,,f,10,A,B,27,0,Incorrect!,0.22506699999996727,328.7410938,None,328.7410938,None,329.0577564,None,,,,,106,001,2023-10-06_15h45.15.476,colored_sorted,2021.2.3,59.99217702011724,
C:\Users\subject\Desktop\SVRT Experiments\SVRT Experiment 3\svrt_images\generated_images\results_problem_10,,,,,,,,,,,,,,,,,,,,,,,,0,3,3,3,,,,,,,,,,,,,,,,,,,,,,,,,,,,,,,,330.0577563,330.0577563,space,1.4923317000000225,106,001,2023-10-06_15h45.15.476,colored_sorted,2021.2.3,59.99217702011724,
C:\Users\subject\Desktop\SVRT Experiments\SVRT Experiment 3\svrt_images\generated_images\results_problem_14,,,,,C:\Users\subject\Desktop\SVRT Experiments\SVRT Experiment 3\svrt_images\generated_images\results_problem_14\sample_1_0002.png,,,,,,,,,,,,,,,,,,,0,4,4,4,0,0,0,0,,,,,,,,,,,,,,f,14,A,A,27,1,Correct!,7.357671699999969,331.62451930000003,None,331.62451930000003,None,339.0081186,None,,,,,106,001,2023-10-06_15h45.15.476,colored_sorted,2021.2.3,59.99217702011724,
C:\Users\subject\Desktop\SVRT Experiments\SVRT Experiment 3\svrt_images\generated_images\results_problem_14,,,,,C:\Users\subject\Desktop\SVRT Experiments\SVRT Experiment 3\svrt_images\generated_images\results_problem_14\sample_0_0013.png,,,,,,,,,,,,,,,,,,,0,4,4,4,0,1,1,1,,,,,,,,,,,,,,f,14,A,B,27,0,Incorrect!,0.2933454999999867,340.0247557,None,340.0247557,None,340.3414681,None,,,,,106,001,2023-10-06_15h45.15.476,colored_sorted,2021.2.3,59.99217702011724,
C:\Users\subject\Desktop\SVRT Experiments\SVRT Experiment 3\svrt_images\generated_images\results_problem_14,,,,,C:\Users\subject\Desktop\SVRT Experiments\SVRT Experiment 3\svrt_images\generated_images\results_problem_14\sample_0_0003.png,,,,,,,,,,,,,,,,,,,0,4,4,4,0,2,2,2,,,,,,,,,,,,,,f,14,A,B,27,0,Incorrect!,0.23187339999998358,341.3581757,None,341.3581757,None,341.6081732,None,,,,,106,001,2023-10-06_15h45.15.476,colored_sorted,2021.2.3,59.99217702011724,
C:\Users\subject\Desktop\SVRT Experiments\SVRT Experiment 3\svrt_images\generated_images\results_problem_14,,,,,C:\Users\subject\Desktop\SVRT Experiments\SVRT Experiment 3\svrt_images\generated_images\results_problem_14\sample_0_0007.png,,,,,,,,,,,,,,,,,,,0,4,4,4,0,3,3,3,,,,,,,,,,,,,,f,14,A,B,27,0,Incorrect!,0.24446810000000596,342.6415467,None,342.6415467,None,342.90821420000003,None,,,,,106,001,2023-10-06_15h45.15.476,colored_sorted,2021.2.3,59.99217702011724,
C:\Users\subject\Desktop\SVRT Experiments\SVRT Experiment 3\svrt_images\generated_images\results_problem_14,,,,,C:\Users\subject\Desktop\SVRT Experiments\SVRT Experiment 3\svrt_images\generated_images\results_problem_14\sample_0_0004.png,,,,,,,,,,,,,,,,,,,0,4,4,4,0,4,4,4,,,,,,,,,,,,,,j,14,B,B,27,1,Correct!,0.49639400000000933,343.9415894,None,343.9415894,None,344.45825560000003,None,,,,,106,001,2023-10-06_15h45.15.476,colored_sorted,2021.2.3,59.99217702011724,
C:\Users\subject\Desktop\SVRT Experiments\SVRT Experiment 3\svrt_images\generated_images\results_problem_14,,,,,C:\Users\subject\Desktop\SVRT Experiments\SVRT Experiment 3\svrt_images\generated_images\results_problem_14\sample_0_0006.png,,,,,,,,,,,,,,,,,,,0,4,4,4,0,5,5,5,,,,,,,,,,,,,,j,14,B,B,27,1,Correct!,0.2817342000000167,345.5083071,None,345.5083071,None,345.8083115,None,,,,,106,001,2023-10-06_15h45.15.476,colored_sorted,2021.2.3,59.99217702011724,
C:\Users\subject\Desktop\SVRT Experiments\SVRT Experiment 3\svrt_images\generated_images\results_problem_14,,,,,C:\Users\subject\Desktop\SVRT Experiments\SVRT Experiment 3\svrt_images\generated_images\results_problem_14\sample_1_0008.png,,,,,,,,,,,,,,,,,,,0,4,4,4,0,6,6,6,,,,,,,,,,,,,,j,14,B,A,27,0,Incorrect!,0.6116870000000176,346.8583072,None,346.8583072,None,347.4916884,None,,,,,106,001,2023-10-06_15h45.15.476,colored_sorted,2021.2.3,59.99217702011724,
C:\Users\subject\Desktop\SVRT Experiments\SVRT Experiment 3\svrt_images\generated_images\results_problem_14,,,,,C:\Users\subject\Desktop\SVRT Experiments\SVRT Experiment 3\svrt_images\generated_images\results_problem_14\sample_1_0010.png,,,,,,,,,,,,,,,,,,,0,4,4,4,0,7,7,7,,,,,,,,,,,,,,j,14,B,A,27,0,Incorrect!,0.295598200000029,348.558395,None,348.558395,None,348.8750834,None,,,,,106,001,2023-10-06_15h45.15.476,colored_sorted,2021.2.3,59.99217702011724,
C:\Users\subject\Desktop\SVRT Experiments\SVRT Experiment 3\svrt_images\generated_images\results_problem_14,,,,,C:\Users\subject\Desktop\SVRT Experiments\SVRT Experiment 3\svrt_images\generated_images\results_problem_14\sample_0_0016.png,,,,,,,,,,,,,,,,,,,0,4,4,4,0,8,8,8,,,,,,,,,,,,,,j,14,B,B,27,1,Correct!,0.007595499999979438,349.9584156,None,349.9584156,None,349.9917855,None,,,,,106,001,2023-10-06_15h45.15.476,colored_sorted,2021.2.3,59.99217702011724,
C:\Users\subject\Desktop\SVRT Experiments\SVRT Experiment 3\svrt_images\generated_images\results_problem_14,,,,,C:\Users\subject\Desktop\SVRT Experiments\SVRT Experiment 3\svrt_images\generated_images\results_problem_14\sample_1_0004.png,,,,,,,,,,,,,,,,,,,0,4,4,4,0,9,9,9,,,,,,,,,,,,,,f,14,A,A,27,1,Correct!,3.0108316000000173,351.0751179,None,351.0751179,None,354.1085673,None,,,,,106,001,2023-10-06_15h45.15.476,colored_sorted,2021.2.3,59.99217702011724,
C:\Users\subject\Desktop\SVRT Experiments\SVRT Experiment 3\svrt_images\generated_images\results_problem_14,,,,,C:\Users\subject\Desktop\SVRT Experiments\SVRT Experiment 3\svrt_images\generated_images\results_problem_14\sample_0_0010.png,,,,,,,,,,,,,,,,,,,0,4,4,4,0,10,10,10,,,,,,,,,,,,,,j,14,B,B,27,1,Correct!,0.28540739999999687,355.2086306,None,355.2086306,None,355.5252808,None,,,,,106,001,2023-10-06_15h45.15.476,colored_sorted,2021.2.3,59.99217702011724,
C:\Users\subject\Desktop\SVRT Experiments\SVRT Experiment 3\svrt_images\generated_images\results_problem_14,,,,,C:\Users\subject\Desktop\SVRT Experiments\SVRT Experiment 3\svrt_images\generated_images\results_problem_14\sample_0_0000.png,,,,,,,,,,,,,,,,,,,0,4,4,4,0,11,11,11,,,,,,,,,,,,,,j,14,B,B,27,1,Correct!,0.24391729999996414,356.6420086,None,356.6420086,None,356.908678,None,,,,,106,001,2023-10-06_15h45.15.476,colored_sorted,2021.2.3,59.99217702011724,
C:\Users\subject\Desktop\SVRT Experiments\SVRT Experiment 3\svrt_images\generated_images\results_problem_14,,,,,C:\Users\subject\Desktop\SVRT Experiments\SVRT Experiment 3\svrt_images\generated_images\results_problem_14\sample_1_0015.png,,,,,,,,,,,,,,,,,,,0,4,4,4,0,12,12,12,,,,,,,,,,,,,,j,14,B,A,27,0,Incorrect!,0.22863789999996698,358.0253899,None,358.0253899,None,358.2754243,None,,,,,106,001,2023-10-06_15h45.15.476,colored_sorted,2021.2.3,59.99217702011724,
C:\Users\subject\Desktop\SVRT Experiments\SVRT Experiment 3\svrt_images\generated_images\results_problem_14,,,,,C:\Users\subject\Desktop\SVRT Experiments\SVRT Experiment 3\svrt_images\generated_images\results_problem_14\sample_1_0007.png,,,,,,,,,,,,,,,,,,,0,4,4,4,0,13,13,13,,,,,,,,,,,,,,j,14,B,A,27,0,Incorrect!,0.3011523999999781,359.408766,None,359.408766,None,359.75877230000003,None,,,,,106,001,2023-10-06_15h45.15.476,colored_sorted,2021.2.3,59.99217702011724,
C:\Users\subject\Desktop\SVRT Experiments\SVRT Experiment 3\svrt_images\generated_images\results_problem_14,,,,,C:\Users\subject\Desktop\SVRT Experiments\SVRT Experiment 3\svrt_images\generated_images\results_problem_14\sample_0_0012.png,,,,,,,,,,,,,,,,,,,0,4,4,4,0,14,14,14,,,,,,,,,,,,,,f,14,A,B,27,0,Incorrect!,0.36107999999995855,360.9088195,None,360.9088195,None,361.2921566,None,,,,,106,001,2023-10-06_15h45.15.476,colored_sorted,2021.2.3,59.99217702011724,
C:\Users\subject\Desktop\SVRT Experiments\SVRT Experiment 3\svrt_images\generated_images\results_problem_14,,,,,C:\Users\subject\Desktop\SVRT Experiments\SVRT Experiment 3\svrt_images\generated_images\results_problem_14\sample_0_0008.png,,,,,,,,,,,,,,,,,,,0,4,4,4,0,15,15,15,,,,,,,,,,,,,,f,14,A,B,27,0,Incorrect!,0.37974819999999454,362.4421519,None,362.4421519,None,362.8588721,None,,,,,106,001,2023-10-06_15h45.15.476,colored_sorted,2021.2.3,59.99217702011724,
C:\Users\subject\Desktop\SVRT Experiments\SVRT Experiment 3\svrt_images\generated_images\results_problem_14,,,,,C:\Users\subject\Desktop\SVRT Experiments\SVRT Experiment 3\svrt_images\generated_images\results_problem_14\sample_1_0003.png,,,,,,,,,,,,,,,,,,,0,4,4,4,0,16,16,16,,,,,,,,,,,,,,f,14,A,A,27,1,Correct!,0.0683313000000112,364.0255884,None,364.0255884,None,364.14224870000004,None,,,,,106,001,2023-10-06_15h45.15.476,colored_sorted,2021.2.3,59.99217702011724,
C:\Users\subject\Desktop\SVRT Experiments\SVRT Experiment 3\svrt_images\generated_images\results_problem_14,,,,,C:\Users\subject\Desktop\SVRT Experiments\SVRT Experiment 3\svrt_images\generated_images\results_problem_14\sample_1_0001.png,,,,,,,,,,,,,,,,,,,0,4,4,4,0,17,17,17,,,,,,,,,,,,,,f,14,A,A,27,1,Correct!,0.16823950000002696,365.3256095,None,365.3256095,None,365.54228090000004,None,,,,,106,001,2023-10-06_15h45.15.476,colored_sorted,2021.2.3,59.99217702011724,
C:\Users\subject\Desktop\SVRT Experiments\SVRT Experiment 3\svrt_images\generated_images\results_problem_14,,,,,C:\Users\subject\Desktop\SVRT Experiments\SVRT Experiment 3\svrt_images\generated_images\results_problem_14\sample_1_0014.png,,,,,,,,,,,,,,,,,,,0,4,4,4,0,18,18,18,,,,,,,,,,,,,,f,14,A,A,27,1,Correct!,0.13557079999998223,366.7423281,None,366.7423281,None,366.9256512,None,,,,,106,001,2023-10-06_15h45.15.476,colored_sorted,2021.2.3,59.99217702011724,
C:\Users\subject\Desktop\SVRT Experiments\SVRT Experiment 3\svrt_images\generated_images\results_problem_14,,,,,C:\Users\subject\Desktop\SVRT Experiments\SVRT Experiment 3\svrt_images\generated_images\results_problem_14\sample_1_0005.png,,,,,,,,,,,,,,,,,,,0,4,4,4,0,19,19,19,,,,,,,,,,,,,,f,14,A,A,27,1,Correct!,0.0561153999999533,368.125749,None,368.125749,None,368.2423815,None,,,,,106,001,2023-10-06_15h45.15.476,colored_sorted,2021.2.3,59.99217702011724,
C:\Users\subject\Desktop\SVRT Experiments\SVRT Experiment 3\svrt_images\generated_images\results_problem_14,,,,,C:\Users\subject\Desktop\SVRT Experiments\SVRT Experiment 3\svrt_images\generated_images\results_problem_14\sample_0_0005.png,,,,,,,,,,,,,,,,,,,0,4,4,4,0,20,20,20,,,,,,,,,,,,,,f,14,A,B,27,0,Incorrect!,0.010804399999983616,369.4590964,None,369.4590964,None,369.5257609,None,,,,,106,001,2023-10-06_15h45.15.476,colored_sorted,2021.2.3,59.99217702011724,
C:\Users\subject\Desktop\SVRT Experiments\SVRT Experiment 3\svrt_images\generated_images\results_problem_14,,,,,C:\Users\subject\Desktop\SVRT Experiments\SVRT Experiment 3\svrt_images\generated_images\results_problem_14\sample_0_0011.png,,,,,,,,,,,,,,,,,,,0,4,4,4,0,21,21,21,,,,,,,,,,,,,,f,14,A,B,27,0,Incorrect!,0.18937940000000708,370.7925209,None,370.7925209,None,371.009168,None,,,,,106,001,2023-10-06_15h45.15.476,colored_sorted,2021.2.3,59.99217702011724,
C:\Users\subject\Desktop\SVRT Experiments\SVRT Experiment 3\svrt_images\generated_images\results_problem_14,,,,,C:\Users\subject\Desktop\SVRT Experiments\SVRT Experiment 3\svrt_images\generated_images\results_problem_14\sample_1_0006.png,,,,,,,,,,,,,,,,,,,0,4,4,4,0,22,22,22,,,,,,,,,,,,,,f,14,A,A,27,1,Correct!,0.07535570000004554,372.2425203,None,372.2425203,None,372.3591827,None,,,,,106,001,2023-10-06_15h45.15.476,colored_sorted,2021.2.3,59.99217702011724,
C:\Users\subject\Desktop\SVRT Experiments\SVRT Experiment 3\svrt_images\generated_images\results_problem_14,,,,,C:\Users\subject\Desktop\SVRT Experiments\SVRT Experiment 3\svrt_images\generated_images\results_problem_14\sample_1_0000.png,,,,,,,,,,,,,,,,,,,0,4,4,4,0,23,23,23,,,,,,,,,,,,,,f,14,A,A,27,1,Correct!,0.18863859999999022,373.60922930000004,None,373.60922930000004,None,373.8259014,None,,,,,106,001,2023-10-06_15h45.15.476,colored_sorted,2021.2.3,59.99217702011724,
C:\Users\subject\Desktop\SVRT Experiments\SVRT Experiment 3\svrt_images\generated_images\results_problem_14,,,,,C:\Users\subject\Desktop\SVRT Experiments\SVRT Experiment 3\svrt_images\generated_images\results_problem_14\sample_1_0009.png,,,,,,,,,,,,,,,,,,,0,4,4,4,0,24,24,24,,,,,,,,,,,,,,j,14,B,A,27,0,Incorrect!,0.009236999999984619,375.09261330000004,None,375.09261330000004,None,375.1759473,None,,,,,106,001,2023-10-06_15h45.15.476,colored_sorted,2021.2.3,59.99217702011724,
C:\Users\subject\Desktop\SVRT Experiments\SVRT Experiment 3\svrt_images\generated_images\results_problem_14,,,,,C:\Users\subject\Desktop\SVRT Experiments\SVRT Experiment 3\svrt_images\generated_images\results_problem_14\sample_0_0014.png,,,,,,,,,,,,,,,,,,,0,4,4,4,0,25,25,25,,,,,,,,,,,,,,f,14,A,B,27,0,Incorrect!,0.114497799999981,376.4593219,None,376.4593219,None,376.60932360000004,None,,,,,106,001,2023-10-06_15h45.15.476,colored_sorted,2021.2.3,59.99217702011724,
C:\Users\subject\Desktop\SVRT Experiments\SVRT Experiment 3\svrt_images\generated_images\results_problem_14,,,,,C:\Users\subject\Desktop\SVRT Experiments\SVRT Experiment 3\svrt_images\generated_images\results_problem_14\sample_1_0012.png,,,,,,,,,,,,,,,,,,,0,4,4,4,0,26,26,26,,,,,,,,,,,,,,f,14,A,A,27,1,Correct!,0.6004040000000259,377.90937840000004,None,377.90937840000004,None,378.59272400000003,None,,,,,106,001,2023-10-06_15h45.15.476,colored_sorted,2021.2.3,59.99217702011724,
C:\Users\subject\Desktop\SVRT Experiments\SVRT Experiment 3\svrt_images\generated_images\results_problem_14,,,,,C:\Users\subject\Desktop\SVRT Experiments\SVRT Experiment 3\svrt_images\generated_images\results_problem_14\sample_0_0009.png,,,,,,,,,,,,,,,,,,,0,4,4,4,0,27,27,27,,,,,,,,,,,,,,f,14,A,B,27,0,Incorrect!,0.06502440000002707,379.8927777,None,379.8927777,None,379.99277490000003,None,,,,,106,001,2023-10-06_15h45.15.476,colored_sorted,2021.2.3,59.99217702011724,
C:\Users\subject\Desktop\SVRT Experiments\SVRT Experiment 3\svrt_images\generated_images\results_problem_14,,,,,C:\Users\subject\Desktop\SVRT Experiments\SVRT Experiment 3\svrt_images\generated_images\results_problem_14\sample_0_0002.png,,,,,,,,,,,,,,,,,,,0,4,4,4,0,28,28,28,,,,,,,,,,,,,,f,14,A,B,27,0,Incorrect!,0.08031199999999217,381.3094707,None,381.3094707,None,381.4094624,None,,,,,106,001,2023-10-06_15h45.15.476,colored_sorted,2021.2.3,59.99217702011724,
C:\Users\subject\Desktop\SVRT Experiments\SVRT Experiment 3\svrt_images\generated_images\results_problem_14,,,,,C:\Users\subject\Desktop\SVRT Experiments\SVRT Experiment 3\svrt_images\generated_images\results_problem_14\sample_0_0015.png,,,,,,,,,,,,,,,,,,,0,4,4,4,0,29,29,29,,,,,,,,,,,,,,f,14,A,B,27,0,Incorrect!,0.23087899999995898,382.7428805,None,382.7428805,None,383.00951810000004,None,,,,,106,001,2023-10-06_15h45.15.476,colored_sorted,2021.2.3,59.99217702011724,
C:\Users\subject\Desktop\SVRT Experiments\SVRT Experiment 3\svrt_images\generated_images\results_problem_14,,,,,C:\Users\subject\Desktop\SVRT Experiments\SVRT Experiment 3\svrt_images\generated_images\results_problem_14\sample_0_0001.png,,,,,,,,,,,,,,,,,,,0,4,4,4,0,30,30,30,,,,,,,,,,,,,,f,14,A,B,27,0,Incorrect!,0.09422159999996893,384.3595991,None,384.3595991,None,384.5429353,None,,,,,106,001,2023-10-06_15h45.15.476,colored_sorted,2021.2.3,59.99217702011724,
C:\Users\subject\Desktop\SVRT Experiments\SVRT Experiment 3\svrt_images\generated_images\results_problem_14,,,,,C:\Users\subject\Desktop\SVRT Experiments\SVRT Experiment 3\svrt_images\generated_images\results_problem_14\sample_1_0016.png,,,,,,,,,,,,,,,,,,,0,4,4,4,0,31,31,31,,,,,,,,,,,,,,j,14,B,A,27,0,Incorrect!,0.6087761,385.892981,None,385.892981,None,386.5930166,None,,,,,106,001,2023-10-06_15h45.15.476,colored_sorted,2021.2.3,59.99217702011724,
C:\Users\subject\Desktop\SVRT Experiments\SVRT Experiment 3\svrt_images\generated_images\results_problem_14,,,,,C:\Users\subject\Desktop\SVRT Experiments\SVRT Experiment 3\svrt_images\generated_images\results_problem_14\sample_1_0013.png,,,,,,,,,,,,,,,,,,,0,4,4,4,0,32,32,32,,,,,,,,,,,,,,j,14,B,A,27,0,Incorrect!,0.253383499999984,387.97637080000004,None,387.97637080000004,None,388.293045,None,,,,,106,001,2023-10-06_15h45.15.476,colored_sorted,2021.2.3,59.99217702011724,
C:\Users\subject\Desktop\SVRT Experiments\SVRT Experiment 3\svrt_images\generated_images\results_problem_14,,,,,C:\Users\subject\Desktop\SVRT Experiments\SVRT Experiment 3\svrt_images\generated_images\results_problem_14\sample_1_0011.png,,,,,,,,,,,,,,,,,,,0,4,4,4,0,33,33,33,,,,,,,,,,,,,,j,14,B,A,27,0,Incorrect!,0.8806417000000124,389.6931136,None,389.6931136,None,390.60978470000003,None,,,,,106,001,2023-10-06_15h45.15.476,colored_sorted,2021.2.3,59.99217702011724,
C:\Users\subject\Desktop\SVRT Experiments\SVRT Experiment 3\svrt_images\generated_images\results_problem_14,,,,,,,,,,,,,,,,,,,,,,,,0,4,4,4,,,,,,,,,,,,,,,,,,,,,,,,,,,,,,,,391.60981960000004,391.60981960000004,space,0.883917600000018,106,001,2023-10-06_15h45.15.476,colored_sorted,2021.2.3,59.99217702011724,
C:\Users\subject\Desktop\SVRT Experiments\SVRT Experiment 3\svrt_images\generated_images\results_problem_16,,,,,,C:\Users\subject\Desktop\SVRT Experiments\SVRT Experiment 3\svrt_images\generated_images\results_problem_16\sample_1_0016.png,,,,,,,,,,,,,,,,,,0,5,5,5,0,0,0,0,,,,,,,,,,,,,,f,16,A,A,27,1,Correct!,2.1578900999999746,392.559849,None,392.559849,None,394.7432544,None,,,,,106,001,2023-10-06_15h45.15.476,colored_sorted,2021.2.3,59.99217702011724,
C:\Users\subject\Desktop\SVRT Experiments\SVRT Experiment 3\svrt_images\generated_images\results_problem_16,,,,,,C:\Users\subject\Desktop\SVRT Experiments\SVRT Experiment 3\svrt_images\generated_images\results_problem_16\sample_0_0013.png,,,,,,,,,,,,,,,,,,0,5,5,5,0,1,1,1,,,,,,,,,,,,,,f,16,A,B,27,0,Incorrect!,0.6137382000000002,395.759964,None,395.759964,None,396.39388180000003,None,,,,,106,001,2023-10-06_15h45.15.476,colored_sorted,2021.2.3,59.99217702011724,
C:\Users\subject\Desktop\SVRT Experiments\SVRT Experiment 3\svrt_images\generated_images\results_problem_16,,,,,,C:\Users\subject\Desktop\SVRT Experiments\SVRT Experiment 3\svrt_images\generated_images\results_problem_16\sample_1_0009.png,,,,,,,,,,,,,,,,,,0,5,5,5,0,2,2,2,,,,,,,,,,,,,,f,16,A,A,27,1,Correct!,0.4516201999999794,397.4100098,None,397.4100098,None,397.8933544,None,,,,,106,001,2023-10-06_15h45.15.476,colored_sorted,2021.2.3,59.99217702011724,
C:\Users\subject\Desktop\SVRT Experiments\SVRT Experiment 3\svrt_images\generated_images\results_problem_16,,,,,,C:\Users\subject\Desktop\SVRT Experiments\SVRT Experiment 3\svrt_images\generated_images\results_problem_16\sample_1_0014.png,,,,,,,,,,,,,,,,,,0,5,5,5,0,3,3,3,,,,,,,,,,,,,,j,16,B,A,27,0,Incorrect!,0.43095390000002,398.9267506,None,398.9267506,None,399.37681710000004,None,,,,,106,001,2023-10-06_15h45.15.476,colored_sorted,2021.2.3,59.99217702011724,
C:\Users\subject\Desktop\SVRT Experiments\SVRT Experiment 3\svrt_images\generated_images\results_problem_16,,,,,,C:\Users\subject\Desktop\SVRT Experiments\SVRT Experiment 3\svrt_images\generated_images\results_problem_16\sample_0_0014.png,,,,,,,,,,,,,,,,,,0,5,5,5,0,4,4,4,,,,,,,,,,,,,,j,16,B,B,27,1,Correct!,0.2996404000000439,400.41006680000004,None,400.41006680000004,None,400.7267853,None,,,,,106,001,2023-10-06_15h45.15.476,colored_sorted,2021.2.3,59.99217702011724,
C:\Users\subject\Desktop\SVRT Experiments\SVRT Experiment 3\svrt_images\generated_images\results_problem_16,,,,,,C:\Users\subject\Desktop\SVRT Experiments\SVRT Experiment 3\svrt_images\generated_images\results_problem_16\sample_0_0004.png,,,,,,,,,,,,,,,,,,0,5,5,5,0,5,5,5,,,,,,,,,,,,,,j,16,B,B,27,1,Correct!,0.2608056999999917,401.7768308,None,401.7768308,None,402.06014170000003,None,,,,,106,001,2023-10-06_15h45.15.476,colored_sorted,2021.2.3,59.99217702011724,
C:\Users\subject\Desktop\SVRT Experiments\SVRT Experiment 3\svrt_images\generated_images\results_problem_16,,,,,,C:\Users\subject\Desktop\SVRT Experiments\SVRT Experiment 3\svrt_images\generated_images\results_problem_16\sample_1_0000.png,,,,,,,,,,,,,,,,,,0,5,5,5,0,6,6,6,,,,,,,,,,,,,,j,16,B,A,27,0,Incorrect!,0.4307986000000028,403.1268769,None,403.1268769,None,403.5768749,None,,,,,106,001,2023-10-06_15h45.15.476,colored_sorted,2021.2.3,59.99217702011724,
C:\Users\subject\Desktop\SVRT Experiments\SVRT Experiment 3\svrt_images\generated_images\results_problem_16,,,,,,C:\Users\subject\Desktop\SVRT Experiments\SVRT Experiment 3\svrt_images\generated_images\results_problem_16\sample_1_0007.png,,,,,,,,,,,,,,,,,,0,5,5,5,0,7,7,7,,,,,,,,,,,,,,j,16,B,A,27,0,Incorrect!,0.2820375000000013,404.64358450000003,None,404.64358450000003,None,404.9435882,None,,,,,106,001,2023-10-06_15h45.15.476,colored_sorted,2021.2.3,59.99217702011724,
C:\Users\subject\Desktop\SVRT Experiments\SVRT Experiment 3\svrt_images\generated_images\results_problem_16,,,,,,C:\Users\subject\Desktop\SVRT Experiments\SVRT Experiment 3\svrt_images\generated_images\results_problem_16\sample_0_0011.png,,,,,,,,,,,,,,,,,,0,5,5,5,0,8,8,8,,,,,,,,,,,,,,j,16,B,B,27,1,Correct!,0.25069469999999683,406.02697770000003,None,406.02697770000003,None,406.3103008,None,,,,,106,001,2023-10-06_15h45.15.476,colored_sorted,2021.2.3,59.99217702011724,
C:\Users\subject\Desktop\SVRT Experiments\SVRT Experiment 3\svrt_images\generated_images\results_problem_16,,,,,,C:\Users\subject\Desktop\SVRT Experiments\SVRT Experiment 3\svrt_images\generated_images\results_problem_16\sample_1_0010.png,,,,,,,,,,,,,,,,,,0,5,5,5,0,9,9,9,,,,,,,,,,,,,,f,16,A,A,27,1,Correct!,0.29193909999997913,407.3936713,None,407.3936713,None,407.7103269,None,,,,,106,001,2023-10-06_15h45.15.476,colored_sorted,2021.2.3,59.99217702011724,
C:\Users\subject\Desktop\SVRT Experiments\SVRT Experiment 3\svrt_images\generated_images\results_problem_16,,,,,,C:\Users\subject\Desktop\SVRT Experiments\SVRT Experiment 3\svrt_images\generated_images\results_problem_16\sample_0_0005.png,,,,,,,,,,,,,,,,,,0,5,5,5,0,10,10,10,,,,,,,,,,,,,,f,16,A,B,27,0,Incorrect!,0.2912549999999783,408.8103888,None,408.8103888,None,409.1270577,None,,,,,106,001,2023-10-06_15h45.15.476,colored_sorted,2021.2.3,59.99217702011724,
C:\Users\subject\Desktop\SVRT Experiments\SVRT Experiment 3\svrt_images\generated_images\results_problem_16,,,,,,C:\Users\subject\Desktop\SVRT Experiments\SVRT Experiment 3\svrt_images\generated_images\results_problem_16\sample_1_0012.png,,,,,,,,,,,,,,,,,,0,5,5,5,0,11,11,11,,,,,,,,,,,,,,f,16,A,A,27,1,Correct!,0.28186499999998205,410.2437678,None,410.2437678,None,410.54377220000003,None,,,,,106,001,2023-10-06_15h45.15.476,colored_sorted,2021.2.3,59.99217702011724,
C:\Users\subject\Desktop\SVRT Experiments\SVRT Experiment 3\svrt_images\generated_images\results_problem_16,,,,,,C:\Users\subject\Desktop\SVRT Experiments\SVRT Experiment 3\svrt_images\generated_images\results_problem_16\sample_0_0000.png,,,,,,,,,,,,,,,,,,0,5,5,5,0,12,12,12,,,,,,,,,,,,,,f,16,A,B,27,0,Incorrect!,0.20113959999997633,411.6604797,None,411.6604797,None,411.91044270000003,None,,,,,106,001,2023-10-06_15h45.15.476,colored_sorted,2021.2.3,59.99217702011724,
C:\Users\subject\Desktop\SVRT Experiments\SVRT Experiment 3\svrt_images\generated_images\results_problem_16,,,,,,C:\Users\subject\Desktop\SVRT Experiments\SVRT Experiment 3\svrt_images\generated_images\results_problem_16\sample_0_0006.png,,,,,,,,,,,,,,,,,,0,5,5,5,0,13,13,13,,,,,,,,,,,,,,j,16,B,B,27,1,Correct!,0.08909030000000939,413.0605289,None,413.0605289,None,413.1772141,None,,,,,106,001,2023-10-06_15h45.15.476,colored_sorted,2021.2.3,59.99217702011724,
C:\Users\subject\Desktop\SVRT Experiments\SVRT Experiment 3\svrt_images\generated_images\results_problem_16,,,,,,C:\Users\subject\Desktop\SVRT Experiments\SVRT Experiment 3\svrt_images\generated_images\results_problem_16\sample_1_0008.png,,,,,,,,,,,,,,,,,,0,5,5,5,0,14,14,14,,,,,,,,,,,,,,j,16,B,A,27,0,Incorrect!,0.0624164000000178,414.3271957,None,414.3271957,None,414.4105664,None,,,,,106,001,2023-10-06_15h45.15.476,colored_sorted,2021.2.3,59.99217702011724,
C:\Users\subject\Desktop\SVRT Experiments\SVRT Experiment 3\svrt_images\generated_images\results_problem_16,,,,,,C:\Users\subject\Desktop\SVRT Experiments\SVRT Experiment 3\svrt_images\generated_images\results_problem_16\sample_0_0007.png,,,,,,,,,,,,,,,,,,0,5,5,5,0,15,15,15,,,,,,,,,,,,,,j,16,B,B,27,1,Correct!,0.21299469999996745,415.5606093,None,415.5606093,None,415.8106121,None,,,,,106,001,2023-10-06_15h45.15.476,colored_sorted,2021.2.3,59.99217702011724,
C:\Users\subject\Desktop\SVRT Experiments\SVRT Experiment 3\svrt_images\generated_images\results_problem_16,,,,,,C:\Users\subject\Desktop\SVRT Experiments\SVRT Experiment 3\svrt_images\generated_images\results_problem_16\sample_1_0004.png,,,,,,,,,,,,,,,,,,0,5,5,5,0,16,16,16,,,,,,,,,,,,,,j,16,B,A,27,0,Incorrect!,0.26026319999999714,416.97732540000004,None,416.97732540000004,None,417.2606558,None,,,,,106,001,2023-10-06_15h45.15.476,colored_sorted,2021.2.3,59.99217702011724,
C:\Users\subject\Desktop\SVRT Experiments\SVRT Experiment 3\svrt_images\generated_images\results_problem_16,,,,,,C:\Users\subject\Desktop\SVRT Experiments\SVRT Experiment 3\svrt_images\generated_images\results_problem_16\sample_0_0008.png,,,,,,,,,,,,,,,,,,0,5,5,5,0,17,17,17,,,,,,,,,,,,,,j,16,B,B,27,1,Correct!,0.17747969999999214,418.44403140000003,None,418.44403140000003,None,418.6607017,None,,,,,106,001,2023-10-06_15h45.15.476,colored_sorted,2021.2.3,59.99217702011724,
C:\Users\subject\Desktop\SVRT Experiments\SVRT Experiment 3\svrt_images\generated_images\results_problem_16,,,,,,C:\Users\subject\Desktop\SVRT Experiments\SVRT Experiment 3\svrt_images\generated_images\results_problem_16\sample_0_0002.png,,,,,,,,,,,,,,,,,,0,5,5,5,0,18,18,18,,,,,,,,,,,,,,j,16,B,B,27,1,Correct!,0.025470000000041182,419.84408310000003,None,419.84408310000003,None,419.8940777,None,,,,,106,001,2023-10-06_15h45.15.476,colored_sorted,2021.2.3,59.99217702011724,
C:\Users\subject\Desktop\SVRT Experiments\SVRT Experiment 3\svrt_images\generated_images\results_problem_16,,,,,,C:\Users\subject\Desktop\SVRT Experiments\SVRT Experiment 3\svrt_images\generated_images\results_problem_16\sample_0_0015.png,,,,,,,,,,,,,,,,,,0,5,5,5,0,19,19,19,,,,,,,,,,,,,,j,16,B,B,27,1,Correct!,0.41543389999998226,421.09412130000004,None,421.09412130000004,None,421.560802,None,,,,,106,001,2023-10-06_15h45.15.476,colored_sorted,2021.2.3,59.99217702011724,
C:\Users\subject\Desktop\SVRT Experiments\SVRT Experiment 3\svrt_images\generated_images\results_problem_16,,,,,,C:\Users\subject\Desktop\SVRT Experiments\SVRT Experiment 3\svrt_images\generated_images\results_problem_16\sample_0_0001.png,,,,,,,,,,,,,,,,,,0,5,5,5,0,20,20,20,,,,,,,,,,,,,,j,16,B,B,27,1,Correct!,0.6280006999999728,422.7775219,None,422.7775219,None,423.4441799,None,,,,,106,001,2023-10-06_15h45.15.476,colored_sorted,2021.2.3,59.99217702011724,
C:\Users\subject\Desktop\SVRT Experiments\SVRT Experiment 3\svrt_images\generated_images\results_problem_16,,,,,,C:\Users\subject\Desktop\SVRT Experiments\SVRT Experiment 3\svrt_images\generated_images\results_problem_16\sample_0_0016.png,,,,,,,,,,,,,,,,,,0,5,5,5,0,21,21,21,,,,,,,,,,,,,,j,16,B,B,27,1,Correct!,0.11197390000000951,424.6775753,None,424.6775753,None,424.8442465,None,,,,,106,001,2023-10-06_15h45.15.476,colored_sorted,2021.2.3,59.99217702011724,
C:\Users\subject\Desktop\SVRT Experiments\SVRT Experiment 3\svrt_images\generated_images\results_problem_16,,,,,,C:\Users\subject\Desktop\SVRT Experiments\SVRT Experiment 3\svrt_images\generated_images\results_problem_16\sample_1_0005.png,,,,,,,,,,,,,,,,,,0,5,5,5,0,22,22,22,,,,,,,,,,,,,,j,16,B,A,27,0,Incorrect!,0.031215499999973417,426.09428790000004,None,426.09428790000004,None,426.1609366,None,,,,,106,001,2023-10-06_15h45.15.476,colored_sorted,2021.2.3,59.99217702011724,
C:\Users\subject\Desktop\SVRT Experiments\SVRT Experiment 3\svrt_images\generated_images\results_problem_16,,,,,,C:\Users\subject\Desktop\SVRT Experiments\SVRT Experiment 3\svrt_images\generated_images\results_problem_16\sample_1_0015.png,,,,,,,,,,,,,,,,,,0,5,5,5,0,23,23,23,,,,,,,,,,,,,,j,16,B,A,27,0,Incorrect!,0.06649989999999661,427.41100190000003,None,427.41100190000003,None,427.5276589,None,,,,,106,001,2023-10-06_15h45.15.476,colored_sorted,2021.2.3,59.99217702011724,
C:\Users\subject\Desktop\SVRT Experiments\SVRT Experiment 3\svrt_images\generated_images\results_problem_16,,,,,,C:\Users\subject\Desktop\SVRT Experiments\SVRT Experiment 3\svrt_images\generated_images\results_problem_16\sample_1_0011.png,,,,,,,,,,,,,,,,,,0,5,5,5,0,24,24,24,,,,,,,,,,,,,,j,16,B,A,27,0,Incorrect!,0.2590963999999758,428.7943752,None,428.7943752,None,429.0776962,None,,,,,106,001,2023-10-06_15h45.15.476,colored_sorted,2021.2.3,59.99217702011724,
C:\Users\subject\Desktop\SVRT Experiments\SVRT Experiment 3\svrt_images\generated_images\results_problem_16,,,,,,C:\Users\subject\Desktop\SVRT Experiments\SVRT Experiment 3\svrt_images\generated_images\results_problem_16\sample_1_0003.png,,,,,,,,,,,,,,,,,,0,5,5,5,0,25,25,25,,,,,,,,,,,,,,f,16,A,A,27,1,Correct!,0.37240949999994655,430.36109250000004,None,430.36109250000004,None,430.777766,None,,,,,106,001,2023-10-06_15h45.15.476,colored_sorted,2021.2.3,59.99217702011724,
C:\Users\subject\Desktop\SVRT Experiments\SVRT Experiment 3\svrt_images\generated_images\results_problem_16,,,,,,C:\Users\subject\Desktop\SVRT Experiments\SVRT Experiment 3\svrt_images\generated_images\results_problem_16\sample_1_0001.png,,,,,,,,,,,,,,,,,,0,5,5,5,0,26,26,26,,,,,,,,,,,,,,j,16,B,A,27,0,Incorrect!,0.39168770000003406,432.0778177,None,432.0778177,None,432.4944926,None,,,,,106,001,2023-10-06_15h45.15.476,colored_sorted,2021.2.3,59.99217702011724,
C:\Users\subject\Desktop\SVRT Experiments\SVRT Experiment 3\svrt_images\generated_images\results_problem_16,,,,,,C:\Users\subject\Desktop\SVRT Experiments\SVRT Experiment 3\svrt_images\generated_images\results_problem_16\sample_1_0013.png,,,,,,,,,,,,,,,,,,0,5,5,5,0,27,27,27,,,,,,,,,,,,,,f,16,A,A,27,1,Correct!,0.010956500000020242,433.794581,None,433.794581,None,433.8778846,None,,,,,106,001,2023-10-06_15h45.15.476,colored_sorted,2021.2.3,59.99217702011724,
C:\Users\subject\Desktop\SVRT Experiments\SVRT Experiment 3\svrt_images\generated_images\results_problem_16,,,,,,C:\Users\subject\Desktop\SVRT Experiments\SVRT Experiment 3\svrt_images\generated_images\results_problem_16\sample_1_0002.png,,,,,,,,,,,,,,,,,,0,5,5,5,0,28,28,28,,,,,,,,,,,,,,f,16,A,A,27,1,Correct!,0.28157199999998284,435.2279203,None,435.2279203,None,435.5779265,None,,,,,106,001,2023-10-06_15h45.15.476,colored_sorted,2021.2.3,59.99217702011724,
C:\Users\subject\Desktop\SVRT Experiments\SVRT Experiment 3\svrt_images\generated_images\results_problem_16,,,,,,C:\Users\subject\Desktop\SVRT Experiments\SVRT Experiment 3\svrt_images\generated_images\results_problem_16\sample_1_0006.png,,,,,,,,,,,,,,,,,,0,5,5,5,0,29,29,29,,,,,,,,,,,,,,j,16,B,A,27,0,Incorrect!,0.3901457999999707,436.911308,None,436.911308,None,437.3446511,None,,,,,106,001,2023-10-06_15h45.15.476,colored_sorted,2021.2.3,59.99217702011724,
C:\Users\subject\Desktop\SVRT Experiments\SVRT Experiment 3\svrt_images\generated_images\results_problem_16,,,,,,C:\Users\subject\Desktop\SVRT Experiments\SVRT Experiment 3\svrt_images\generated_images\results_problem_16\sample_0_0003.png,,,,,,,,,,,,,,,,,,0,5,5,5,0,30,30,30,,,,,,,,,,,,,,j,16,B,B,27,1,Correct!,0.36676760000000286,438.69469860000004,None,438.69469860000004,None,439.1280395,None,,,,,106,001,2023-10-06_15h45.15.476,colored_sorted,2021.2.3,59.99217702011724,
C:\Users\subject\Desktop\SVRT Experiments\SVRT Experiment 3\svrt_images\generated_images\results_problem_16,,,,,,C:\Users\subject\Desktop\SVRT Experiments\SVRT Experiment 3\svrt_images\generated_images\results_problem_16\sample_0_0009.png,,,,,,,,,,,,,,,,,,0,5,5,5,0,31,31,31,,,,,,,,,,,,,,f,16,A,B,27,0,Incorrect!,0.6313338999999587,440.4780925,None,440.4780925,None,441.16144240000006,None,,,,,106,001,2023-10-06_15h45.15.476,colored_sorted,2021.2.3,59.99217702011724,
C:\Users\subject\Desktop\SVRT Experiments\SVRT Experiment 3\svrt_images\generated_images\results_problem_16,,,,,,C:\Users\subject\Desktop\SVRT Experiments\SVRT Experiment 3\svrt_images\generated_images\results_problem_16\sample_0_0010.png,,,,,,,,,,,,,,,,,,0,5,5,5,0,32,32,32,,,,,,,,,,,,,,j,16,B,B,27,1,Correct!,0.004599600000005921,442.5448265,None,442.5448265,None,442.6614918,None,,,,,106,001,2023-10-06_15h45.15.476,colored_sorted,2021.2.3,59.99217702011724,
C:\Users\subject\Desktop\SVRT Experiments\SVRT Experiment 3\svrt_images\generated_images\results_problem_16,,,,,,C:\Users\subject\Desktop\SVRT Experiments\SVRT Experiment 3\svrt_images\generated_images\results_problem_16\sample_0_0012.png,,,,,,,,,,,,,,,,,,0,5,5,5,0,33,33,33,,,,,,,,,,,,,,j,16,B,B,27,1,Correct!,0.3358372000000145,444.0615494,None,444.0615494,None,444.47818430000007,None,,,,,106,001,2023-10-06_15h45.15.476,colored_sorted,2021.2.3,59.99217702011724,
C:\Users\subject\Desktop\SVRT Experiments\SVRT Experiment 3\svrt_images\generated_images\results_problem_16,,,,,,,,,,,,,,,,,,,,,,,,0,5,5,5,,,,,,,,,,,,,,,,,,,,,,,,,,,,,,,,445.47824090000006,445.47824090000006,space,0.9911539999999377,106,001,2023-10-06_15h45.15.476,colored_sorted,2021.2.3,59.99217702011724,
C:\Users\subject\Desktop\SVRT Experiments\SVRT Experiment 3\svrt_images\generated_images\results_problem_5,,,,,,,C:\Users\subject\Desktop\SVRT Experiments\SVRT Experiment 3\svrt_images\generated_images\results_problem_5\sample_0_0013.png,,,,,,,,,,,,,,,,,0,6,6,6,0,0,0,0,,,,,,,,,,,,,,j,5,B,B,27,1,Correct!,1.2530917999999929,446.52828120000004,None,446.52828120000004,None,447.81166500000006,None,,,,,106,001,2023-10-06_15h45.15.476,colored_sorted,2021.2.3,59.99217702011724,
C:\Users\subject\Desktop\SVRT Experiments\SVRT Experiment 3\svrt_images\generated_images\results_problem_5,,,,,,,C:\Users\subject\Desktop\SVRT Experiments\SVRT Experiment 3\svrt_images\generated_images\results_problem_5\sample_0_0007.png,,,,,,,,,,,,,,,,,0,6,6,6,0,1,1,1,,,,,,,,,,,,,,j,5,B,B,27,1,Correct!,0.5850100000000111,448.82836510000004,None,448.82836510000004,None,449.4450511,None,,,,,106,001,2023-10-06_15h45.15.476,colored_sorted,2021.2.3,59.99217702011724,
