folder,results_problem_13,results_problem_6,results_problem_17,results_problem_10,results_problem_14,results_problem_16,results_problem_5,results_problem_3,results_problem_19,results_problem_7,results_problem_2,results_problem_23,results_problem_12,results_problem_20,results_problem_11,results_problem_22,results_problem_21,results_problem_1,results_problem_9,results_problem_18,results_problem_15,results_problem_4,results_problem_8,categories.thisRepN,categories.thisTrialN,categories.thisN,categories.thisIndex,trials.thisRepN,trials.thisTrialN,trials.thisN,trials.thisIndex,consent_text.started,consent_kb.started,consent_kb.keys,consent_kb.rt,Gender.keys,Gender.rt,Age,instructions_text.started,instructions_text.stopped,instructions_kb.keys,instructions_kb.rt,instructions_kb.started,instructions_kb.stopped,trial_kb.keys,current_problem_num,category_resp,answer,seed,accuracy,feedback,trial_kb.rt,trial_kb.started,trial_kb.stopped,trial_image.started,trial_image.stopped,feedback_text.started,feedback_text.stopped,new_problem_kb.started,new_problem_text.started,new_problem_kb.keys,new_problem_kb.rt,Participant #,session,date,expName,psychopyVersion,frameRate,
,,,,,,,,,,,,,,,,,,,,,,,,,,,,,,,,25.3194481000246,25.3194481000246,y,861.7449778000009,,,,,,,,,,,,,,,,,,,,,,,,,,,,107,001,2023-10-09_13h26.25.156,uncolored_shuffled,2021.2.3,60.00585657078973,
,,,,,,,,,,,,,,,,,,,,,,,,,,,,,,,,,,,,w,6.040747299994109,,,,,,,,,,,,,,,,,,,,,,,,,,107,001,2023-10-09_13h26.25.156,uncolored_shuffled,2021.2.3,60.00585657078973,
,,,,,,,,,,,,,,,,,,,,,,,,,,,,,,,,,,,,,,17,916.0187217000057,None,space,17.941072899993742,916.0187217000057,None,,,,,,,,,,,,,,,,,,,107,001,2023-10-09_13h26.25.156,uncolored_shuffled,2021.2.3,60.00585657078973,
C:\Users\subject\Desktop\SVRT Experiments\SVRT Experiment 3\svrt_images\generated_images\results_problem_13,C:\Users\subject\Desktop\SVRT Experiments\SVRT Experiment 3\svrt_images\generated_images\results_problem_13\sample_0_0004.png,,,,,,,,,,,,,,,,,,,,,,,0,0,0,0,0,0,0,0,,,,,,,,,,,,,,f,13,A,B,27,0,Incorrect!,10.886652499990305,934.0011420000228,None,934.0011420000228,None,944.9338515000127,None,,,,,107,001,2023-10-09_13h26.25.156,uncolored_shuffled,2021.2.3,60.00585657078973,
C:\Users\subject\Desktop\SVRT Experiments\SVRT Experiment 3\svrt_images\generated_images\results_problem_13,C:\Users\subject\Desktop\SVRT Experiments\SVRT Experiment 3\svrt_images\generated_images\results_problem_13\sample_0_0001.png,,,,,,,,,,,,,,,,,,,,,,,0,0,0,0,0,1,1,1,,,,,,,,,,,,,,j,13,B,B,27,1,Correct!,10.905361599987373,945.9504510000115,None,945.9504510000115,None,956.8831504000118,None,,,,,107,001,2023-10-09_13h26.25.156,uncolored_shuffled,2021.2.3,60.00585657078973,
C:\Users\subject\Desktop\SVRT Experiments\SVRT Experiment 3\svrt_images\generated_images\results_problem_13,C:\Users\subject\Desktop\SVRT Experiments\SVRT Experiment 3\svrt_images\generated_images\results_problem_13\sample_0_0003.png,,,,,,,,,,,,,,,,,,,,,,,0,0,0,0,0,2,2,2,,,,,,,,,,,,,,j,13,B,B,27,1,Correct!,4.251433099998394,957.9164289000037,None,957.9164289000037,None,962.1995226000145,None,,,,,107,001,2023-10-09_13h26.25.156,uncolored_shuffled,2021.2.3,60.00585657078973,
C:\Users\subject\Desktop\SVRT Experiments\SVRT Experiment 3\svrt_images\generated_images\results_problem_13,C:\Users\subject\Desktop\SVRT Experiments\SVRT Experiment 3\svrt_images\generated_images\results_problem_13\sample_0_0009.png,,,,,,,,,,,,,,,,,,,,,,,0,0,0,0,0,3,3,3,,,,,,,,,,,,,,j,13,B,B,27,1,Correct!,0.6630701000103727,963.2327384000237,None,963.2327384000237,None,963.916023800004,None,,,,,107,001,2023-10-09_13h26.25.156,uncolored_shuffled,2021.2.3,60.00585657078973,
C:\Users\subject\Desktop\SVRT Experiments\SVRT Experiment 3\svrt_images\generated_images\results_problem_13,C:\Users\subject\Desktop\SVRT Experiments\SVRT Experiment 3\svrt_images\generated_images\results_problem_13\sample_1_0000.png,,,,,,,,,,,,,,,,,,,,,,,0,0,0,0,0,4,4,4,,,,,,,,,,,,,,j,13,B,A,27,0,Incorrect!,0.370073300000513,964.9659178000002,None,964.9659178000002,None,965.3658915999986,None,,,,,107,001,2023-10-09_13h26.25.156,uncolored_shuffled,2021.2.3,60.00585657078973,
C:\Users\subject\Desktop\SVRT Experiments\SVRT Experiment 3\svrt_images\generated_images\results_problem_13,C:\Users\subject\Desktop\SVRT Experiments\SVRT Experiment 3\svrt_images\generated_images\results_problem_13\sample_0_0005.png,,,,,,,,,,,,,,,,,,,,,,,0,0,0,0,0,5,5,5,,,,,,,,,,,,,,j,13,B,B,27,1,Correct!,2.4400324000162072,966.4158272000204,None,966.4158272000204,None,968.8819447999995,None,,,,,107,001,2023-10-09_13h26.25.156,uncolored_shuffled,2021.2.3,60.00585657078973,
C:\Users\subject\Desktop\SVRT Experiments\SVRT Experiment 3\svrt_images\generated_images\results_problem_13,C:\Users\subject\Desktop\SVRT Experiments\SVRT Experiment 3\svrt_images\generated_images\results_problem_13\sample_1_0003.png,,,,,,,,,,,,,,,,,,,,,,,0,0,0,0,0,6,6,6,,,,,,,,,,,,,,f,13,A,A,27,1,Correct!,7.116090299998177,969.9318915000185,None,969.9318915000185,None,977.0647537000186,None,,,,,107,001,2023-10-09_13h26.25.156,uncolored_shuffled,2021.2.3,60.00585657078973,
C:\Users\subject\Desktop\SVRT Experiments\SVRT Experiment 3\svrt_images\generated_images\results_problem_13,C:\Users\subject\Desktop\SVRT Experiments\SVRT Experiment 3\svrt_images\generated_images\results_problem_13\sample_0_0015.png,,,,,,,,,,,,,,,,,,,,,,,0,0,0,0,0,7,7,7,,,,,,,,,,,,,,j,13,B,B,27,1,Correct!,1.8926677000126801,978.1313502000121,None,978.1313502000121,None,980.047804700007,None,,,,,107,001,2023-10-09_13h26.25.156,uncolored_shuffled,2021.2.3,60.00585657078973,
C:\Users\subject\Desktop\SVRT Experiments\SVRT Experiment 3\svrt_images\generated_images\results_problem_13,C:\Users\subject\Desktop\SVRT Experiments\SVRT Experiment 3\svrt_images\generated_images\results_problem_13\sample_1_0006.png,,,,,,,,,,,,,,,,,,,,,,,0,0,0,0,0,8,8,8,,,,,,,,,,,,,,j,13,B,A,27,0,Incorrect!,1.0221238999802154,981.097748500004,None,981.097748500004,None,982.1478689000069,None,,,,,107,001,2023-10-09_13h26.25.156,uncolored_shuffled,2021.2.3,60.00585657078973,
C:\Users\subject\Desktop\SVRT Experiments\SVRT Experiment 3\svrt_images\generated_images\results_problem_13,C:\Users\subject\Desktop\SVRT Experiments\SVRT Experiment 3\svrt_images\generated_images\results_problem_13\sample_1_0001.png,,,,,,,,,,,,,,,,,,,,,,,0,0,0,0,0,9,9,9,,,,,,,,,,,,,,j,13,B,A,27,0,Incorrect!,0.8573487999965437,983.2144713000162,None,983.2144713000162,None,984.0977448000049,None,,,,,107,001,2023-10-09_13h26.25.156,uncolored_shuffled,2021.2.3,60.00585657078973,
C:\Users\subject\Desktop\SVRT Experiments\SVRT Experiment 3\svrt_images\generated_images\results_problem_13,C:\Users\subject\Desktop\SVRT Experiments\SVRT Experiment 3\svrt_images\generated_images\results_problem_13\sample_0_0002.png,,,,,,,,,,,,,,,,,,,,,,,0,0,0,0,0,10,10,10,,,,,,,,,,,,,,f,13,A,B,27,0,Incorrect!,0.4275214000081178,985.1644653000112,None,985.1644653000112,None,985.6143292000052,None,,,,,107,001,2023-10-09_13h26.25.156,uncolored_shuffled,2021.2.3,60.00585657078973,
C:\Users\subject\Desktop\SVRT Experiments\SVRT Experiment 3\svrt_images\generated_images\results_problem_13,C:\Users\subject\Desktop\SVRT Experiments\SVRT Experiment 3\svrt_images\generated_images\results_problem_13\sample_1_0012.png,,,,,,,,,,,,,,,,,,,,,,,0,0,0,0,0,11,11,11,,,,,,,,,,,,,,f,13,A,A,27,1,Correct!,0.43038229999365285,986.6975944000005,None,986.6975944000005,None,987.1476655000006,None,,,,,107,001,2023-10-09_13h26.25.156,uncolored_shuffled,2021.2.3,60.00585657078973,
C:\Users\subject\Desktop\SVRT Experiments\SVRT Experiment 3\svrt_images\generated_images\results_problem_13,C:\Users\subject\Desktop\SVRT Experiments\SVRT Experiment 3\svrt_images\generated_images\results_problem_13\sample_0_0013.png,,,,,,,,,,,,,,,,,,,,,,,0,0,0,0,0,12,12,12,,,,,,,,,,,,,,j,13,B,B,27,1,Correct!,1.5844034999900032,988.2475306999986,None,988.2475306999986,None,989.8638952000183,None,,,,,107,001,2023-10-09_13h26.25.156,uncolored_shuffled,2021.2.3,60.00585657078973,
C:\Users\subject\Desktop\SVRT Experiments\SVRT Experiment 3\svrt_images\generated_images\results_problem_13,C:\Users\subject\Desktop\SVRT Experiments\SVRT Experiment 3\svrt_images\generated_images\results_problem_13\sample_1_0004.png,,,,,,,,,,,,,,,,,,,,,,,0,0,0,0,0,13,13,13,,,,,,,,,,,,,,f,13,A,A,27,1,Correct!,0.5321356999920681,990.9638328000146,None,990.9638328000146,None,991.5139905000106,None,,,,,107,001,2023-10-09_13h26.25.156,uncolored_shuffled,2021.2.3,60.00585657078973,
C:\Users\subject\Desktop\SVRT Experiments\SVRT Experiment 3\svrt_images\generated_images\results_problem_13,C:\Users\subject\Desktop\SVRT Experiments\SVRT Experiment 3\svrt_images\generated_images\results_problem_13\sample_1_0010.png,,,,,,,,,,,,,,,,,,,,,,,0,0,0,0,0,14,14,14,,,,,,,,,,,,,,j,13,B,A,27,0,Incorrect!,0.48210609998204745,992.6138738000009,None,992.6138738000009,None,993.1305745000136,None,,,,,107,001,2023-10-09_13h26.25.156,uncolored_shuffled,2021.2.3,60.00585657078973,
C:\Users\subject\Desktop\SVRT Experiments\SVRT Experiment 3\svrt_images\generated_images\results_problem_13,C:\Users\subject\Desktop\SVRT Experiments\SVRT Experiment 3\svrt_images\generated_images\results_problem_13\sample_1_0008.png,,,,,,,,,,,,,,,,,,,,,,,0,0,0,0,0,15,15,15,,,,,,,,,,,,,,j,13,B,A,27,0,Incorrect!,0.33679770000162534,994.2471595000243,None,994.2471595000243,None,994.6304687000229,None,,,,,107,001,2023-10-09_13h26.25.156,uncolored_shuffled,2021.2.3,60.00585657078973,
C:\Users\subject\Desktop\SVRT Experiments\SVRT Experiment 3\svrt_images\generated_images\results_problem_13,C:\Users\subject\Desktop\SVRT Experiments\SVRT Experiment 3\svrt_images\generated_images\results_problem_13\sample_0_0008.png,,,,,,,,,,,,,,,,,,,,,,,0,0,0,0,0,16,16,16,,,,,,,,,,,,,,f,13,A,B,27,0,Incorrect!,0.5489062999840826,995.7470761000004,None,995.7470761000004,None,996.3303925000073,None,,,,,107,001,2023-10-09_13h26.25.156,uncolored_shuffled,2021.2.3,60.00585657078973,
C:\Users\subject\Desktop\SVRT Experiments\SVRT Experiment 3\svrt_images\generated_images\results_problem_13,C:\Users\subject\Desktop\SVRT Experiments\SVRT Experiment 3\svrt_images\generated_images\results_problem_13\sample_0_0014.png,,,,,,,,,,,,,,,,,,,,,,,0,0,0,0,0,17,17,17,,,,,,,,,,,,,,f,13,A,B,27,0,Incorrect!,0.7043737999920268,997.4636175000051,None,997.4636175000051,None,998.2137428999995,None,,,,,107,001,2023-10-09_13h26.25.156,uncolored_shuffled,2021.2.3,60.00585657078973,
C:\Users\subject\Desktop\SVRT Experiments\SVRT Experiment 3\svrt_images\generated_images\results_problem_13,C:\Users\subject\Desktop\SVRT Experiments\SVRT Experiment 3\svrt_images\generated_images\results_problem_13\sample_1_0007.png,,,,,,,,,,,,,,,,,,,,,,,0,0,0,0,0,18,18,18,,,,,,,,,,,,,,j,13,B,A,27,0,Incorrect!,0.4524931999912951,999.3635699000151,None,999.3635699000151,None,999.8468252000166,None,,,,,107,001,2023-10-09_13h26.25.156,uncolored_shuffled,2021.2.3,60.00585657078973,
C:\Users\subject\Desktop\SVRT Experiments\SVRT Experiment 3\svrt_images\generated_images\results_problem_13,C:\Users\subject\Desktop\SVRT Experiments\SVRT Experiment 3\svrt_images\generated_images\results_problem_13\sample_0_0000.png,,,,,,,,,,,,,,,,,,,,,,,0,0,0,0,0,19,19,19,,,,,,,,,,,,,,j,13,B,B,27,1,Correct!,0.3232535000133794,1000.9967589000007,None,1000.9967589000007,None,1001.3467824000109,None,,,,,107,001,2023-10-09_13h26.25.156,uncolored_shuffled,2021.2.3,60.00585657078973,
C:\Users\subject\Desktop\SVRT Experiments\SVRT Experiment 3\svrt_images\generated_images\results_problem_13,C:\Users\subject\Desktop\SVRT Experiments\SVRT Experiment 3\svrt_images\generated_images\results_problem_13\sample_1_0016.png,,,,,,,,,,,,,,,,,,,,,,,0,0,0,0,0,20,20,20,,,,,,,,,,,,,,j,13,B,A,27,0,Incorrect!,0.4073143000132404,1002.4966714000038,None,1002.4966714000038,None,1002.9467038000003,None,,,,,107,001,2023-10-09_13h26.25.156,uncolored_shuffled,2021.2.3,60.00585657078973,
C:\Users\subject\Desktop\SVRT Experiments\SVRT Experiment 3\svrt_images\generated_images\results_problem_13,C:\Users\subject\Desktop\SVRT Experiments\SVRT Experiment 3\svrt_images\generated_images\results_problem_13\sample_1_0014.png,,,,,,,,,,,,,,,,,,,,,,,0,0,0,0,0,21,21,21,,,,,,,,,,,,,,f,13,A,A,27,1,Correct!,0.3908051000034902,1004.1132340000186,None,1004.1132340000186,None,1004.5298860000039,None,,,,,107,001,2023-10-09_13h26.25.156,uncolored_shuffled,2021.2.3,60.00585657078973,
C:\Users\subject\Desktop\SVRT Experiments\SVRT Experiment 3\svrt_images\generated_images\results_problem_13,C:\Users\subject\Desktop\SVRT Experiments\SVRT Experiment 3\svrt_images\generated_images\results_problem_13\sample_1_0005.png,,,,,,,,,,,,,,,,,,,,,,,0,0,0,0,0,22,22,22,,,,,,,,,,,,,,j,13,B,A,27,0,Incorrect!,0.43881679998594336,1005.7131374000164,None,1005.7131374000164,None,1006.1797806000104,None,,,,,107,001,2023-10-09_13h26.25.156,uncolored_shuffled,2021.2.3,60.00585657078973,
C:\Users\subject\Desktop\SVRT Experiments\SVRT Experiment 3\svrt_images\generated_images\results_problem_13,C:\Users\subject\Desktop\SVRT Experiments\SVRT Experiment 3\svrt_images\generated_images\results_problem_13\sample_1_0002.png,,,,,,,,,,,,,,,,,,,,,,,0,0,0,0,0,23,23,23,,,,,,,,,,,,,,f,13,A,A,27,1,Correct!,0.372941899986472,1007.3630549000227,None,1007.3630549000227,None,1007.779674200021,None,,,,,107,001,2023-10-09_13h26.25.156,uncolored_shuffled,2021.2.3,60.00585657078973,
C:\Users\subject\Desktop\SVRT Experiments\SVRT Experiment 3\svrt_images\generated_images\results_problem_13,C:\Users\subject\Desktop\SVRT Experiments\SVRT Experiment 3\svrt_images\generated_images\results_problem_13\sample_0_0010.png,,,,,,,,,,,,,,,,,,,,,,,0,0,0,0,0,24,24,24,,,,,,,,,,,,,,f,13,A,B,27,0,Incorrect!,0.964167300000554,1008.9796554000059,None,1008.9796554000059,None,1009.9962321000057,None,,,,,107,001,2023-10-09_13h26.25.156,uncolored_shuffled,2021.2.3,60.00585657078973,
C:\Users\subject\Desktop\SVRT Experiments\SVRT Experiment 3\svrt_images\generated_images\results_problem_13,C:\Users\subject\Desktop\SVRT Experiments\SVRT Experiment 3\svrt_images\generated_images\results_problem_13\sample_1_0015.png,,,,,,,,,,,,,,,,,,,,,,,0,0,0,0,0,25,25,25,,,,,,,,,,,,,,j,13,B,A,27,0,Incorrect!,0.47591019998071715,1011.1961515000148,None,1011.1961515000148,None,1011.7127885000082,None,,,,,107,001,2023-10-09_13h26.25.156,uncolored_shuffled,2021.2.3,60.00585657078973,
C:\Users\subject\Desktop\SVRT Experiments\SVRT Experiment 3\svrt_images\generated_images\results_problem_13,C:\Users\subject\Desktop\SVRT Experiments\SVRT Experiment 3\svrt_images\generated_images\results_problem_13\sample_0_0007.png,,,,,,,,,,,,,,,,,,,,,,,0,0,0,0,0,26,26,26,,,,,,,,,,,,,,j,13,B,B,27,1,Correct!,0.32662159999017604,1012.9293863000057,None,1012.9293863000057,None,1013.2960294000222,None,,,,,107,001,2023-10-09_13h26.25.156,uncolored_shuffled,2021.2.3,60.00585657078973,
C:\Users\subject\Desktop\SVRT Experiments\SVRT Experiment 3\svrt_images\generated_images\results_problem_13,C:\Users\subject\Desktop\SVRT Experiments\SVRT Experiment 3\svrt_images\generated_images\results_problem_13\sample_1_0009.png,,,,,,,,,,,,,,,,,,,,,,,0,0,0,0,0,27,27,27,,,,,,,,,,,,,,f,13,A,A,27,1,Correct!,0.6953773999994155,1014.5126283999998,None,1014.5126283999998,None,1015.2292425000051,None,,,,,107,001,2023-10-09_13h26.25.156,uncolored_shuffled,2021.2.3,60.00585657078973,
C:\Users\subject\Desktop\SVRT Experiments\SVRT Experiment 3\svrt_images\generated_images\results_problem_13,C:\Users\subject\Desktop\SVRT Experiments\SVRT Experiment 3\svrt_images\generated_images\results_problem_13\sample_0_0016.png,,,,,,,,,,,,,,,,,,,,,,,0,0,0,0,0,28,28,28,,,,,,,,,,,,,,j,13,B,B,27,1,Correct!,0.6335380999953486,1016.4624862000055,None,1016.4624862000055,None,1017.145792299998,None,,,,,107,001,2023-10-09_13h26.25.156,uncolored_shuffled,2021.2.3,60.00585657078973,
C:\Users\subject\Desktop\SVRT Experiments\SVRT Experiment 3\svrt_images\generated_images\results_problem_13,C:\Users\subject\Desktop\SVRT Experiments\SVRT Experiment 3\svrt_images\generated_images\results_problem_13\sample_0_0006.png,,,,,,,,,,,,,,,,,,,,,,,0,0,0,0,0,29,29,29,,,,,,,,,,,,,,f,13,A,B,27,0,Incorrect!,6.364904000016395,1018.3790613000165,None,1018.3790613000165,None,1024.7953421999991,None,,,,,107,001,2023-10-09_13h26.25.156,uncolored_shuffled,2021.2.3,60.00585657078973,
C:\Users\subject\Desktop\SVRT Experiments\SVRT Experiment 3\svrt_images\generated_images\results_problem_13,C:\Users\subject\Desktop\SVRT Experiments\SVRT Experiment 3\svrt_images\generated_images\results_problem_13\sample_0_0012.png,,,,,,,,,,,,,,,,,,,,,,,0,0,0,0,0,30,30,30,,,,,,,,,,,,,,j,13,B,B,27,1,Correct!,0.3786682999925688,1026.0452624000027,None,1026.0452624000027,None,1026.4619050000038,None,,,,,107,001,2023-10-09_13h26.25.156,uncolored_shuffled,2021.2.3,60.00585657078973,
C:\Users\subject\Desktop\SVRT Experiments\SVRT Experiment 3\svrt_images\generated_images\results_problem_13,C:\Users\subject\Desktop\SVRT Experiments\SVRT Experiment 3\svrt_images\generated_images\results_problem_13\sample_0_0011.png,,,,,,,,,,,,,,,,,,,,,,,0,0,0,0,0,31,31,31,,,,,,,,,,,,,,j,13,B,B,27,1,Correct!,1.1441604999999981,1027.7118352000252,None,1027.7118352000252,None,1028.9284252000216,None,,,,,107,001,2023-10-09_13h26.25.156,uncolored_shuffled,2021.2.3,60.00585657078973,
C:\Users\subject\Desktop\SVRT Experiments\SVRT Experiment 3\svrt_images\generated_images\results_problem_13,C:\Users\subject\Desktop\SVRT Experiments\SVRT Experiment 3\svrt_images\generated_images\results_problem_13\sample_1_0011.png,,,,,,,,,,,,,,,,,,,,,,,0,0,0,0,0,32,32,32,,,,,,,,,,,,,,f,13,A,A,27,1,Correct!,2.54975619999459,1030.1783621000068,None,1030.1783621000068,None,1032.7448816999968,None,,,,,107,001,2023-10-09_13h26.25.156,uncolored_shuffled,2021.2.3,60.00585657078973,
C:\Users\subject\Desktop\SVRT Experiments\SVRT Experiment 3\svrt_images\generated_images\results_problem_13,C:\Users\subject\Desktop\SVRT Experiments\SVRT Experiment 3\svrt_images\generated_images\results_problem_13\sample_1_0013.png,,,,,,,,,,,,,,,,,,,,,,,0,0,0,0,0,33,33,33,,,,,,,,,,,,,,j,13,B,A,27,0,Incorrect!,1.5318639000179246,1034.0281450000184,None,1034.0281450000184,None,1035.5947425000195,None,,,,,107,001,2023-10-09_13h26.25.156,uncolored_shuffled,2021.2.3,60.00585657078973,
C:\Users\subject\Desktop\SVRT Experiments\SVRT Experiment 3\svrt_images\generated_images\results_problem_13,,,,,,,,,,,,,,,,,,,,,,,,0,0,0,0,,,,,,,,,,,,,,,,,,,,,,,,,,,,,,,,1036.5946497000114,1036.5946497000114,space,2.6454161000146996,107,001,2023-10-09_13h26.25.156,uncolored_shuffled,2021.2.3,60.00585657078973,
C:\Users\subject\Desktop\SVRT Experiments\SVRT Experiment 3\svrt_images\generated_images\results_problem_6,,C:\Users\subject\Desktop\SVRT Experiments\SVRT Experiment 3\svrt_images\generated_images\results_problem_6\sample_1_0015.png,,,,,,,,,,,,,,,,,,,,,,0,1,1,1,0,0,0,0,,,,,,,,,,,,,,f,6,A,A,27,1,Correct!,2.874723399989307,1039.2612134000228,None,1039.2612134000228,None,1042.1612197000068,None,,,,,107,001,2023-10-09_13h26.25.156,uncolored_shuffled,2021.2.3,60.00585657078973,
C:\Users\subject\Desktop\SVRT Experiments\SVRT Experiment 3\svrt_images\generated_images\results_problem_6,,C:\Users\subject\Desktop\SVRT Experiments\SVRT Experiment 3\svrt_images\generated_images\results_problem_6\sample_1_0014.png,,,,,,,,,,,,,,,,,,,,,,0,1,1,1,0,1,1,1,,,,,,,,,,,,,,f,6,A,A,27,1,Correct!,0.46219859999837354,1043.1779023999989,None,1043.1779023999989,None,1043.661219200003,None,,,,,107,001,2023-10-09_13h26.25.156,uncolored_shuffled,2021.2.3,60.00585657078973,
C:\Users\subject\Desktop\SVRT Experiments\SVRT Experiment 3\svrt_images\generated_images\results_problem_6,,C:\Users\subject\Desktop\SVRT Experiments\SVRT Experiment 3\svrt_images\generated_images\results_problem_6\sample_0_0012.png,,,,,,,,,,,,,,,,,,,,,,0,1,1,1,0,2,2,2,,,,,,,,,,,,,,j,6,B,B,27,1,Correct!,0.46633930000825785,1044.677818199998,None,1044.677818199998,None,1045.1611705000105,None,,,,,107,001,2023-10-09_13h26.25.156,uncolored_shuffled,2021.2.3,60.00585657078973,
C:\Users\subject\Desktop\SVRT Experiments\SVRT Experiment 3\svrt_images\generated_images\results_problem_6,,C:\Users\subject\Desktop\SVRT Experiments\SVRT Experiment 3\svrt_images\generated_images\results_problem_6\sample_0_0005.png,,,,,,,,,,,,,,,,,,,,,,0,1,1,1,0,3,3,3,,,,,,,,,,,,,,f,6,A,B,27,0,Incorrect!,0.43762949999654666,1046.1944344000076,None,1046.1944344000076,None,1046.66107870001,None,,,,,107,001,2023-10-09_13h26.25.156,uncolored_shuffled,2021.2.3,60.00585657078973,
C:\Users\subject\Desktop\SVRT Experiments\SVRT Experiment 3\svrt_images\generated_images\results_problem_6,,C:\Users\subject\Desktop\SVRT Experiments\SVRT Experiment 3\svrt_images\generated_images\results_problem_6\sample_0_0015.png,,,,,,,,,,,,,,,,,,,,,,0,1,1,1,0,4,4,4,,,,,,,,,,,,,,j,6,B,B,27,1,Correct!,1.9934035000042059,1047.6944021000236,None,1047.6944021000236,None,1049.7105825000035,None,,,,,107,001,2023-10-09_13h26.25.156,uncolored_shuffled,2021.2.3,60.00585657078973,
C:\Users\subject\Desktop\SVRT Experiments\SVRT Experiment 3\svrt_images\generated_images\results_problem_6,,C:\Users\subject\Desktop\SVRT Experiments\SVRT Experiment 3\svrt_images\generated_images\results_problem_6\sample_0_0014.png,,,,,,,,,,,,,,,,,,,,,,0,1,1,1,0,5,5,5,,,,,,,,,,,,,,j,6,B,B,27,1,Correct!,0.3520089999947231,1050.743920000008,None,1050.743920000008,None,1051.1271688000124,None,,,,,107,001,2023-10-09_13h26.25.156,uncolored_shuffled,2021.2.3,60.00585657078973,
C:\Users\subject\Desktop\SVRT Experiments\SVRT Experiment 3\svrt_images\generated_images\results_problem_6,,C:\Users\subject\Desktop\SVRT Experiments\SVRT Experiment 3\svrt_images\generated_images\results_problem_6\sample_0_0006.png,,,,,,,,,,,,,,,,,,,,,,0,1,1,1,0,6,6,6,,,,,,,,,,,,,,j,6,B,B,27,1,Correct!,0.3746034000068903,1052.1774799000123,None,1052.1774799000123,None,1052.5773469000123,None,,,,,107,001,2023-10-09_13h26.25.156,uncolored_shuffled,2021.2.3,60.00585657078973,
C:\Users\subject\Desktop\SVRT Experiments\SVRT Experiment 3\svrt_images\generated_images\results_problem_6,,C:\Users\subject\Desktop\SVRT Experiments\SVRT Experiment 3\svrt_images\generated_images\results_problem_6\sample_1_0002.png,,,,,,,,,,,,,,,,,,,,,,0,1,1,1,0,7,7,7,,,,,,,,,,,,,,j,6,B,A,27,0,Incorrect!,3.996073399990564,1053.64395290002,None,1053.64395290002,None,1057.660086000018,None,,,,,107,001,2023-10-09_13h26.25.156,uncolored_shuffled,2021.2.3,60.00585657078973,
C:\Users\subject\Desktop\SVRT Experiments\SVRT Experiment 3\svrt_images\generated_images\results_problem_6,,C:\Users\subject\Desktop\SVRT Experiments\SVRT Experiment 3\svrt_images\generated_images\results_problem_6\sample_1_0001.png,,,,,,,,,,,,,,,,,,,,,,0,1,1,1,0,8,8,8,,,,,,,,,,,,,,f,6,A,A,27,1,Correct!,1.5379613999975845,1058.7100306000211,None,1058.7100306000211,None,1060.276595000003,None,,,,,107,001,2023-10-09_13h26.25.156,uncolored_shuffled,2021.2.3,60.00585657078973,
C:\Users\subject\Desktop\SVRT Experiments\SVRT Experiment 3\svrt_images\generated_images\results_problem_6,,C:\Users\subject\Desktop\SVRT Experiments\SVRT Experiment 3\svrt_images\generated_images\results_problem_6\sample_0_0008.png,,,,,,,,,,,,,,,,,,,,,,0,1,1,1,0,9,9,9,,,,,,,,,,,,,,f,6,A,B,27,0,Incorrect!,1.5447451999934856,1061.3432044000074,None,1061.3432044000074,None,1062.9097829000093,None,,,,,107,001,2023-10-09_13h26.25.156,uncolored_shuffled,2021.2.3,60.00585657078973,
C:\Users\subject\Desktop\SVRT Experiments\SVRT Experiment 3\svrt_images\generated_images\results_problem_6,,C:\Users\subject\Desktop\SVRT Experiments\SVRT Experiment 3\svrt_images\generated_images\results_problem_6\sample_1_0005.png,,,,,,,,,,,,,,,,,,,,,,0,1,1,1,0,10,10,10,,,,,,,,,,,,,,j,6,B,A,27,0,Incorrect!,1.183656700013671,1063.9763887000154,None,1063.9763887000154,None,1065.1929764000233,None,,,,,107,001,2023-10-09_13h26.25.156,uncolored_shuffled,2021.2.3,60.00585657078973,
C:\Users\subject\Desktop\SVRT Experiments\SVRT Experiment 3\svrt_images\generated_images\results_problem_6,,C:\Users\subject\Desktop\SVRT Experiments\SVRT Experiment 3\svrt_images\generated_images\results_problem_6\sample_0_0013.png,,,,,,,,,,,,,,,,,,,,,,0,1,1,1,0,11,11,11,,,,,,,,,,,,,,j,6,B,B,27,1,Correct!,0.8999082999944221,1066.2762416000187,None,1066.2762416000187,None,1067.1928549000004,None,,,,,107,001,2023-10-09_13h26.25.156,uncolored_shuffled,2021.2.3,60.00585657078973,
C:\Users\subject\Desktop\SVRT Experiments\SVRT Experiment 3\svrt_images\generated_images\results_problem_6,,C:\Users\subject\Desktop\SVRT Experiments\SVRT Experiment 3\svrt_images\generated_images\results_problem_6\sample_0_0004.png,,,,,,,,,,,,,,,,,,,,,,0,1,1,1,0,12,12,12,,,,,,,,,,,,,,j,6,B,B,27,1,Correct!,0.7879607000213582,1068.2759577000106,None,1068.2759577000106,None,1069.0927523999999,None,,,,,107,001,2023-10-09_13h26.25.156,uncolored_shuffled,2021.2.3,60.00585657078973,
C:\Users\subject\Desktop\SVRT Experiments\SVRT Experiment 3\svrt_images\generated_images\results_problem_6,,C:\Users\subject\Desktop\SVRT Experiments\SVRT Experiment 3\svrt_images\generated_images\results_problem_6\sample_1_0006.png,,,,,,,,,,,,,,,,,,,,,,0,1,1,1,0,13,13,13,,,,,,,,,,,,,,j,6,B,A,27,0,Incorrect!,0.7114392000075895,1070.192677300016,None,1070.192677300016,None,1070.9259819000144,None,,,,,107,001,2023-10-09_13h26.25.156,uncolored_shuffled,2021.2.3,60.00585657078973,
C:\Users\subject\Desktop\SVRT Experiments\SVRT Experiment 3\svrt_images\generated_images\results_problem_6,,C:\Users\subject\Desktop\SVRT Experiments\SVRT Experiment 3\svrt_images\generated_images\results_problem_6\sample_1_0003.png,,,,,,,,,,,,,,,,,,,,,,0,1,1,1,0,14,14,14,,,,,,,,,,,,,,f,6,A,A,27,1,Correct!,0.846103599993512,1072.0259155000094,None,1072.0259155000094,None,1072.8925201000238,None,,,,,107,001,2023-10-09_13h26.25.156,uncolored_shuffled,2021.2.3,60.00585657078973,
C:\Users\subject\Desktop\SVRT Experiments\SVRT Experiment 3\svrt_images\generated_images\results_problem_6,,C:\Users\subject\Desktop\SVRT Experiments\SVRT Experiment 3\svrt_images\generated_images\results_problem_6\sample_0_0010.png,,,,,,,,,,,,,,,,,,,,,,0,1,1,1,0,15,15,15,,,,,,,,,,,,,,j,6,B,B,27,1,Correct!,1.1989326000039,1074.009147100005,None,1074.009147100005,None,1075.225730700011,None,,,,,107,001,2023-10-09_13h26.25.156,uncolored_shuffled,2021.2.3,60.00585657078973,
C:\Users\subject\Desktop\SVRT Experiments\SVRT Experiment 3\svrt_images\generated_images\results_problem_6,,C:\Users\subject\Desktop\SVRT Experiments\SVRT Experiment 3\svrt_images\generated_images\results_problem_6\sample_0_0016.png,,,,,,,,,,,,,,,,,,,,,,0,1,1,1,0,16,16,16,,,,,,,,,,,,,,f,6,A,B,27,0,Incorrect!,14.833611099980772,1076.3423359000008,None,1076.3423359000008,None,1091.2247793000133,None,,,,,107,001,2023-10-09_13h26.25.156,uncolored_shuffled,2021.2.3,60.00585657078973,
C:\Users\subject\Desktop\SVRT Experiments\SVRT Experiment 3\svrt_images\generated_images\results_problem_6,,C:\Users\subject\Desktop\SVRT Experiments\SVRT Experiment 3\svrt_images\generated_images\results_problem_6\sample_1_0000.png,,,,,,,,,,,,,,,,,,,,,,0,1,1,1,0,17,17,17,,,,,,,,,,,,,,f,6,A,A,27,1,Correct!,2.578010600002017,1092.3580496000068,None,1092.3580496000068,None,1094.9746126000246,None,,,,,107,001,2023-10-09_13h26.25.156,uncolored_shuffled,2021.2.3,60.00585657078973,
C:\Users\subject\Desktop\SVRT Experiments\SVRT Experiment 3\svrt_images\generated_images\results_problem_6,,C:\Users\subject\Desktop\SVRT Experiments\SVRT Experiment 3\svrt_images\generated_images\results_problem_6\sample_0_0011.png,,,,,,,,,,,,,,,,,,,,,,0,1,1,1,0,18,18,18,,,,,,,,,,,,,,j,6,B,B,27,1,Correct!,0.9081692000036128,1096.1078592000122,None,1096.1078592000122,None,1097.05778990002,None,,,,,107,001,2023-10-09_13h26.25.156,uncolored_shuffled,2021.2.3,60.00585657078973,
C:\Users\subject\Desktop\SVRT Experiments\SVRT Experiment 3\svrt_images\generated_images\results_problem_6,,C:\Users\subject\Desktop\SVRT Experiments\SVRT Experiment 3\svrt_images\generated_images\results_problem_6\sample_0_0000.png,,,,,,,,,,,,,,,,,,,,,,0,1,1,1,0,19,19,19,,,,,,,,,,,,,,j,6,B,B,27,1,Correct!,0.5202896000118926,1098.2077710000158,None,1098.2077710000158,None,1098.7577011999965,None,,,,,107,001,2023-10-09_13h26.25.156,uncolored_shuffled,2021.2.3,60.00585657078973,
C:\Users\subject\Desktop\SVRT Experiments\SVRT Experiment 3\svrt_images\generated_images\results_problem_6,,C:\Users\subject\Desktop\SVRT Experiments\SVRT Experiment 3\svrt_images\generated_images\results_problem_6\sample_0_0002.png,,,,,,,,,,,,,,,,,,,,,,0,1,1,1,0,20,20,20,,,,,,,,,,,,,,f,6,A,B,27,0,Incorrect!,0.8516973000077996,1099.9242994000087,None,1099.9242994000087,None,1100.8075697000022,None,,,,,107,001,2023-10-09_13h26.25.156,uncolored_shuffled,2021.2.3,60.00585657078973,
C:\Users\subject\Desktop\SVRT Experiments\SVRT Experiment 3\svrt_images\generated_images\results_problem_6,,C:\Users\subject\Desktop\SVRT Experiments\SVRT Experiment 3\svrt_images\generated_images\results_problem_6\sample_1_0004.png,,,,,,,,,,,,,,,,,,,,,,0,1,1,1,0,21,21,21,,,,,,,,,,,,,,j,6,B,A,27,0,Incorrect!,0.3059056999918539,1101.9741766000225,None,1101.9741766000225,None,1102.3408276000118,None,,,,,107,001,2023-10-09_13h26.25.156,uncolored_shuffled,2021.2.3,60.00585657078973,
C:\Users\subject\Desktop\SVRT Experiments\SVRT Experiment 3\svrt_images\generated_images\results_problem_6,,C:\Users\subject\Desktop\SVRT Experiments\SVRT Experiment 3\svrt_images\generated_images\results_problem_6\sample_1_0009.png,,,,,,,,,,,,,,,,,,,,,,0,1,1,1,0,22,22,22,,,,,,,,,,,,,,f,6,A,A,27,1,Correct!,0.24480050001875497,1103.5072494000196,None,1103.5072494000196,None,1103.7740835000004,None,,,,,107,001,2023-10-09_13h26.25.156,uncolored_shuffled,2021.2.3,60.00585657078973,
C:\Users\subject\Desktop\SVRT Experiments\SVRT Experiment 3\svrt_images\generated_images\results_problem_6,,C:\Users\subject\Desktop\SVRT Experiments\SVRT Experiment 3\svrt_images\generated_images\results_problem_6\sample_0_0003.png,,,,,,,,,,,,,,,,,,,,,,0,1,1,1,0,23,23,23,,,,,,,,,,,,,,f,6,A,B,27,0,Incorrect!,0.31471100001363084,1104.9573338000046,None,1104.9573338000046,None,1105.3240027000138,None,,,,,107,001,2023-10-09_13h26.25.156,uncolored_shuffled,2021.2.3,60.00585657078973,
C:\Users\subject\Desktop\SVRT Experiments\SVRT Experiment 3\svrt_images\generated_images\results_problem_6,,C:\Users\subject\Desktop\SVRT Experiments\SVRT Experiment 3\svrt_images\generated_images\results_problem_6\sample_1_0013.png,,,,,,,,,,,,,,,,,,,,,,0,1,1,1,0,24,24,24,,,,,,,,,,,,,,j,6,B,A,27,0,Incorrect!,0.5881400000071153,1106.5239031000237,None,1106.5239031000237,None,1107.1405263000051,None,,,,,107,001,2023-10-09_13h26.25.156,uncolored_shuffled,2021.2.3,60.00585657078973,
C:\Users\subject\Desktop\SVRT Experiments\SVRT Experiment 3\svrt_images\generated_images\results_problem_6,,C:\Users\subject\Desktop\SVRT Experiments\SVRT Experiment 3\svrt_images\generated_images\results_problem_6\sample_0_0001.png,,,,,,,,,,,,,,,,,,,,,,0,1,1,1,0,25,25,25,,,,,,,,,,,,,,f,6,A,B,27,0,Incorrect!,0.4195979000069201,1108.3405047999986,None,1108.3405047999986,None,1108.8070932000119,None,,,,,107,001,2023-10-09_13h26.25.156,uncolored_shuffled,2021.2.3,60.00585657078973,
C:\Users\subject\Desktop\SVRT Experiments\SVRT Experiment 3\svrt_images\generated_images\results_problem_6,,C:\Users\subject\Desktop\SVRT Experiments\SVRT Experiment 3\svrt_images\generated_images\results_problem_6\sample_1_0016.png,,,,,,,,,,,,,,,,,,,,,,0,1,1,1,0,26,26,26,,,,,,,,,,,,,,f,6,A,A,27,1,Correct!,0.272334100009175,1110.0237018000043,None,1110.0237018000043,None,1110.3403541000152,None,,,,,107,001,2023-10-09_13h26.25.156,uncolored_shuffled,2021.2.3,60.00585657078973,
C:\Users\subject\Desktop\SVRT Experiments\SVRT Experiment 3\svrt_images\generated_images\results_problem_6,,C:\Users\subject\Desktop\SVRT Experiments\SVRT Experiment 3\svrt_images\generated_images\results_problem_6\sample_1_0011.png,,,,,,,,,,,,,,,,,,,,,,0,1,1,1,0,27,27,27,,,,,,,,,,,,,,j,6,B,A,27,0,Incorrect!,0.25917049997951835,1111.5569590000086,None,1111.5569590000086,None,1111.8402635000239,None,,,,,107,001,2023-10-09_13h26.25.156,uncolored_shuffled,2021.2.3,60.00585657078973,
C:\Users\subject\Desktop\SVRT Experiments\SVRT Experiment 3\svrt_images\generated_images\results_problem_6,,C:\Users\subject\Desktop\SVRT Experiments\SVRT Experiment 3\svrt_images\generated_images\results_problem_6\sample_1_0012.png,,,,,,,,,,,,,,,,,,,,,,0,1,1,1,0,28,28,28,,,,,,,,,,,,,,j,6,B,A,27,0,Incorrect!,0.26253729997552,1113.0735215000168,None,1113.0735215000168,None,1113.3568478000234,None,,,,,107,001,2023-10-09_13h26.25.156,uncolored_shuffled,2021.2.3,60.00585657078973,
C:\Users\subject\Desktop\SVRT Experiments\SVRT Experiment 3\svrt_images\generated_images\results_problem_6,,C:\Users\subject\Desktop\SVRT Experiments\SVRT Experiment 3\svrt_images\generated_images\results_problem_6\sample_1_0008.png,,,,,,,,,,,,,,,,,,,,,,0,1,1,1,0,29,29,29,,,,,,,,,,,,,,f,6,A,A,27,1,Correct!,0.29728649999015033,1114.6067594000197,None,1114.6067594000197,None,1114.9567465000146,None,,,,,107,001,2023-10-09_13h26.25.156,uncolored_shuffled,2021.2.3,60.00585657078973,
C:\Users\subject\Desktop\SVRT Experiments\SVRT Experiment 3\svrt_images\generated_images\results_problem_6,,C:\Users\subject\Desktop\SVRT Experiments\SVRT Experiment 3\svrt_images\generated_images\results_problem_6\sample_0_0009.png,,,,,,,,,,,,,,,,,,,,,,0,1,1,1,0,30,30,30,,,,,,,,,,,,,,f,6,A,B,27,0,Incorrect!,0.4253716000239365,1116.2066714000248,None,1116.2066714000248,None,1116.6899698000052,None,,,,,107,001,2023-10-09_13h26.25.156,uncolored_shuffled,2021.2.3,60.00585657078973,
C:\Users\subject\Desktop\SVRT Experiments\SVRT Experiment 3\svrt_images\generated_images\results_problem_6,,C:\Users\subject\Desktop\SVRT Experiments\SVRT Experiment 3\svrt_images\generated_images\results_problem_6\sample_1_0007.png,,,,,,,,,,,,,,,,,,,,,,0,1,1,1,0,31,31,31,,,,,,,,,,,,,,j,6,B,A,27,0,Incorrect!,0.3080737999989651,1117.9398971000046,None,1117.9398971000046,None,1118.2898788000166,None,,,,,107,001,2023-10-09_13h26.25.156,uncolored_shuffled,2021.2.3,60.00585657078973,
C:\Users\subject\Desktop\SVRT Experiments\SVRT Experiment 3\svrt_images\generated_images\results_problem_6,,C:\Users\subject\Desktop\SVRT Experiments\SVRT Experiment 3\svrt_images\generated_images\results_problem_6\sample_0_0007.png,,,,,,,,,,,,,,,,,,,,,,0,1,1,1,0,32,32,32,,,,,,,,,,,,,,j,6,B,B,27,1,Correct!,0.1155420999857597,1119.5564824000176,None,1119.5564824000176,None,1119.7397887000116,None,,,,,107,001,2023-10-09_13h26.25.156,uncolored_shuffled,2021.2.3,60.00585657078973,
C:\Users\subject\Desktop\SVRT Experiments\SVRT Experiment 3\svrt_images\generated_images\results_problem_6,,C:\Users\subject\Desktop\SVRT Experiments\SVRT Experiment 3\svrt_images\generated_images\results_problem_6\sample_1_0010.png,,,,,,,,,,,,,,,,,,,,,,0,1,1,1,0,33,33,33,,,,,,,,,,,,,,j,6,B,A,27,0,Incorrect!,0.4248581000138074,1121.0230545000231,None,1121.0230545000231,None,1121.539678800007,None,,,,,107,001,2023-10-09_13h26.25.156,uncolored_shuffled,2021.2.3,60.00585657078973,
C:\Users\subject\Desktop\SVRT Experiments\SVRT Experiment 3\svrt_images\generated_images\results_problem_6,,,,,,,,,,,,,,,,,,,,,,,,0,1,1,1,,,,,,,,,,,,,,,,,,,,,,,,,,,,,,,,1122.5396520000068,1122.5396520000068,space,2.1404577999783214,107,001,2023-10-09_13h26.25.156,uncolored_shuffled,2021.2.3,60.00585657078973,
C:\Users\subject\Desktop\SVRT Experiments\SVRT Experiment 3\svrt_images\generated_images\results_problem_17,,,C:\Users\subject\Desktop\SVRT Experiments\SVRT Experiment 3\svrt_images\generated_images\results_problem_17\sample_1_0010.png,,,,,,,,,,,,,,,,,,,,,0,2,2,2,0,0,0,0,,,,,,,,,,,,,,f,17,A,A,27,1,Correct!,9.461723300017184,1124.706168500008,None,1124.706168500008,None,1134.1889410000003,None,,,,,107,001,2023-10-09_13h26.25.156,uncolored_shuffled,2021.2.3,60.00585657078973,
C:\Users\subject\Desktop\SVRT Experiments\SVRT Experiment 3\svrt_images\generated_images\results_problem_17,,,C:\Users\subject\Desktop\SVRT Experiments\SVRT Experiment 3\svrt_images\generated_images\results_problem_17\sample_0_0016.png,,,,,,,,,,,,,,,,,,,,,0,2,2,2,0,1,1,1,,,,,,,,,,,,,,f,17,A,B,27,0,Incorrect!,0.40251240000361577,1135.2055628000235,None,1135.2055628000235,None,1135.638858500024,None,,,,,107,001,2023-10-09_13h26.25.156,uncolored_shuffled,2021.2.3,60.00585657078973,
C:\Users\subject\Desktop\SVRT Experiments\SVRT Experiment 3\svrt_images\generated_images\results_problem_17,,,C:\Users\subject\Desktop\SVRT Experiments\SVRT Experiment 3\svrt_images\generated_images\results_problem_17\sample_1_0009.png,,,,,,,,,,,,,,,,,,,,,0,2,2,2,0,2,2,2,,,,,,,,,,,,,,f,17,A,A,27,1,Correct!,0.7125355999742169,1136.6555250000092,None,1136.6555250000092,None,1137.3887710999988,None,,,,,107,001,2023-10-09_13h26.25.156,uncolored_shuffled,2021.2.3,60.00585657078973,
C:\Users\subject\Desktop\SVRT Experiments\SVRT Experiment 3\svrt_images\generated_images\results_problem_17,,,C:\Users\subject\Desktop\SVRT Experiments\SVRT Experiment 3\svrt_images\generated_images\results_problem_17\sample_0_0011.png,,,,,,,,,,,,,,,,,,,,,0,2,2,2,0,3,3,3,,,,,,,,,,,,,,j,17,B,B,27,1,Correct!,0.2265293000091333,1138.4053810000187,None,1138.4053810000187,None,1138.6553608000104,None,,,,,107,001,2023-10-09_13h26.25.156,uncolored_shuffled,2021.2.3,60.00585657078973,
C:\Users\subject\Desktop\SVRT Experiments\SVRT Experiment 3\svrt_images\generated_images\results_problem_17,,,C:\Users\subject\Desktop\SVRT Experiments\SVRT Experiment 3\svrt_images\generated_images\results_problem_17\sample_1_0002.png,,,,,,,,,,,,,,,,,,,,,0,2,2,2,0,4,4,4,,,,,,,,,,,,,,j,17,B,A,27,0,Incorrect!,0.06318460000329651,1139.688799800002,None,1139.688799800002,None,1139.772124900017,None,,,,,107,001,2023-10-09_13h26.25.156,uncolored_shuffled,2021.2.3,60.00585657078973,
C:\Users\subject\Desktop\SVRT Experiments\SVRT Experiment 3\svrt_images\generated_images\results_problem_17,,,C:\Users\subject\Desktop\SVRT Experiments\SVRT Experiment 3\svrt_images\generated_images\results_problem_17\sample_0_0010.png,,,,,,,,,,,,,,,,,,,,,0,2,2,2,0,5,5,5,,,,,,,,,,,,,,j,17,B,B,27,1,Correct!,0.4820209000026807,1140.822064900014,None,1140.822064900014,None,1141.322034300014,None,,,,,107,001,2023-10-09_13h26.25.156,uncolored_shuffled,2021.2.3,60.00585657078973,
C:\Users\subject\Desktop\SVRT Experiments\SVRT Experiment 3\svrt_images\generated_images\results_problem_17,,,C:\Users\subject\Desktop\SVRT Experiments\SVRT Experiment 3\svrt_images\generated_images\results_problem_17\sample_1_0013.png,,,,,,,,,,,,,,,,,,,,,0,2,2,2,0,6,6,6,,,,,,,,,,,,,,f,17,A,A,27,1,Correct!,0.5160554000176489,1142.3720204000128,None,1142.3720204000128,None,1142.905324899999,None,,,,,107,001,2023-10-09_13h26.25.156,uncolored_shuffled,2021.2.3,60.00585657078973,
C:\Users\subject\Desktop\SVRT Experiments\SVRT Experiment 3\svrt_images\generated_images\results_problem_17,,,C:\Users\subject\Desktop\SVRT Experiments\SVRT Experiment 3\svrt_images\generated_images\results_problem_17\sample_0_0015.png,,,,,,,,,,,,,,,,,,,,,0,2,2,2,0,7,7,7,,,,,,,,,,,,,,j,17,B,B,27,1,Correct!,0.3081545000022743,1143.971934400004,None,1143.971934400004,None,1144.305199800001,None,,,,,107,001,2023-10-09_13h26.25.156,uncolored_shuffled,2021.2.3,60.00585657078973,
C:\Users\subject\Desktop\SVRT Experiments\SVRT Experiment 3\svrt_images\generated_images\results_problem_17,,,C:\Users\subject\Desktop\SVRT Experiments\SVRT Experiment 3\svrt_images\generated_images\results_problem_17\sample_1_0014.png,,,,,,,,,,,,,,,,,,,,,0,2,2,2,0,8,8,8,,,,,,,,,,,,,,f,17,A,A,27,1,Correct!,0.25156540001626126,1145.3725505000039,None,1145.3725505000039,None,1145.6551436000154,None,,,,,107,001,2023-10-09_13h26.25.156,uncolored_shuffled,2021.2.3,60.00585657078973,
C:\Users\subject\Desktop\SVRT Experiments\SVRT Experiment 3\svrt_images\generated_images\results_problem_17,,,C:\Users\subject\Desktop\SVRT Experiments\SVRT Experiment 3\svrt_images\generated_images\results_problem_17\sample_0_0000.png,,,,,,,,,,,,,,,,,,,,,0,2,2,2,0,9,9,9,,,,,,,,,,,,,,j,17,B,B,27,1,Correct!,0.2625613999844063,1146.721573500021,None,1146.721573500021,None,1147.0048936000094,None,,,,,107,001,2023-10-09_13h26.25.156,uncolored_shuffled,2021.2.3,60.00585657078973,
C:\Users\subject\Desktop\SVRT Experiments\SVRT Experiment 3\svrt_images\generated_images\results_problem_17,,,C:\Users\subject\Desktop\SVRT Experiments\SVRT Experiment 3\svrt_images\generated_images\results_problem_17\sample_1_0006.png,,,,,,,,,,,,,,,,,,,,,0,2,2,2,0,10,10,10,,,,,,,,,,,,,,f,17,A,A,27,1,Correct!,0.28842850000364706,1148.0715003000223,None,1148.0715003000223,None,1148.3881436000229,None,,,,,107,001,2023-10-09_13h26.25.156,uncolored_shuffled,2021.2.3,60.00585657078973,
C:\Users\subject\Desktop\SVRT Experiments\SVRT Experiment 3\svrt_images\generated_images\results_problem_17,,,C:\Users\subject\Desktop\SVRT Experiments\SVRT Experiment 3\svrt_images\generated_images\results_problem_17\sample_0_0005.png,,,,,,,,,,,,,,,,,,,,,0,2,2,2,0,11,11,11,,,,,,,,,,,,,,j,17,B,B,27,1,Correct!,0.2646727999963332,1149.471410099999,None,1149.471410099999,None,1149.7547256000107,None,,,,,107,001,2023-10-09_13h26.25.156,uncolored_shuffled,2021.2.3,60.00585657078973,
C:\Users\subject\Desktop\SVRT Experiments\SVRT Experiment 3\svrt_images\generated_images\results_problem_17,,,C:\Users\subject\Desktop\SVRT Experiments\SVRT Experiment 3\svrt_images\generated_images\results_problem_17\sample_0_0006.png,,,,,,,,,,,,,,,,,,,,,0,2,2,2,0,12,12,12,,,,,,,,,,,,,,,,,,,,,,,,,,,,1150.7546831000072,1150.7546831000072,space,0.9652980000246316,107,001,2023-10-09_13h26.25.156,uncolored_shuffled,2021.2.3,60.00585657078973,
C:\Users\subject\Desktop\SVRT Experiments\SVRT Experiment 3\svrt_images\generated_images\results_problem_10,,,C:\Users\subject\Desktop\SVRT Experiments\SVRT Experiment 3\svrt_images\generated_images\results_problem_17\sample_0_0006.png,C:\Users\subject\Desktop\SVRT Experiments\SVRT Experiment 3\svrt_images\generated_images\results_problem_10\sample_0_0013.png,,,,,,,,,,,,,,,,,,,,0,3,3,3,0,0,0,0,,,,,,,,,,,,,,f,10,A,B,27,0,Incorrect!,1.0219535999931395,1151.7379635000252,None,1151.7379635000252,None,1152.7878744000045,None,,,,,107,001,2023-10-09_13h26.25.156,uncolored_shuffled,2021.2.3,60.00585657078973,
C:\Users\subject\Desktop\SVRT Experiments\SVRT Experiment 3\svrt_images\generated_images\results_problem_10,,,C:\Users\subject\Desktop\SVRT Experiments\SVRT Experiment 3\svrt_images\generated_images\results_problem_17\sample_0_0006.png,C:\Users\subject\Desktop\SVRT Experiments\SVRT Experiment 3\svrt_images\generated_images\results_problem_10\sample_1_0009.png,,,,,,,,,,,,,,,,,,,,0,3,3,3,0,1,1,1,,,,,,,,,,,,,,f,10,A,A,27,1,Correct!,1.051518499996746,1153.8044962999993,None,1153.8044962999993,None,1154.8878023000143,None,,,,,107,001,2023-10-09_13h26.25.156,uncolored_shuffled,2021.2.3,60.00585657078973,
C:\Users\subject\Desktop\SVRT Experiments\SVRT Experiment 3\svrt_images\generated_images\results_problem_10,,,C:\Users\subject\Desktop\SVRT Experiments\SVRT Experiment 3\svrt_images\generated_images\results_problem_17\sample_0_0006.png,C:\Users\subject\Desktop\SVRT Experiments\SVRT Experiment 3\svrt_images\generated_images\results_problem_10\sample_0_0001.png,,,,,,,,,,,,,,,,,,,,0,3,3,3,0,2,2,2,,,,,,,,,,,,,,j,10,B,B,27,1,Correct!,0.2635667000140529,1155.9043707000092,None,1155.9043707000092,None,1156.18768610002,None,,,,,107,001,2023-10-09_13h26.25.156,uncolored_shuffled,2021.2.3,60.00585657078973,
C:\Users\subject\Desktop\SVRT Experiments\SVRT Experiment 3\svrt_images\generated_images\results_problem_10,,,C:\Users\subject\Desktop\SVRT Experiments\SVRT Experiment 3\svrt_images\generated_images\results_problem_17\sample_0_0006.png,C:\Users\subject\Desktop\SVRT Experiments\SVRT Experiment 3\svrt_images\generated_images\results_problem_10\sample_0_0005.png,,,,,,,,,,,,,,,,,,,,0,3,3,3,0,3,3,3,,,,,,,,,,,,,,f,10,A,B,27,0,Incorrect!,0.08374249999178573,1157.2043011000205,None,1157.2043011000205,None,1157.3209594000073,None,,,,,107,001,2023-10-09_13h26.25.156,uncolored_shuffled,2021.2.3,60.00585657078973,
C:\Users\subject\Desktop\SVRT Experiments\SVRT Experiment 3\svrt_images\generated_images\results_problem_10,,,C:\Users\subject\Desktop\SVRT Experiments\SVRT Experiment 3\svrt_images\generated_images\results_problem_17\sample_0_0006.png,C:\Users\subject\Desktop\SVRT Experiments\SVRT Experiment 3\svrt_images\generated_images\results_problem_10\sample_1_0006.png,,,,,,,,,,,,,,,,,,,,0,3,3,3,0,4,4,4,,,,,,,,,,,,,,f,10,A,A,27,1,Correct!,0.3898830999969505,1158.3542281000118,None,1158.3542281000118,None,1158.770870200009,None,,,,,107,001,2023-10-09_13h26.25.156,uncolored_shuffled,2021.2.3,60.00585657078973,
C:\Users\subject\Desktop\SVRT Experiments\SVRT Experiment 3\svrt_images\generated_images\results_problem_10,,,C:\Users\subject\Desktop\SVRT Experiments\SVRT Experiment 3\svrt_images\generated_images\results_problem_17\sample_0_0006.png,C:\Users\subject\Desktop\SVRT Experiments\SVRT Experiment 3\svrt_images\generated_images\results_problem_10\sample_0_0016.png,,,,,,,,,,,,,,,,,,,,0,3,3,3,0,5,5,5,,,,,,,,,,,,,,j,10,B,B,27,1,Correct!,0.267936499993084,1159.8041709000245,None,1159.8041709000245,None,1160.1041164000053,None,,,,,107,001,2023-10-09_13h26.25.156,uncolored_shuffled,2021.2.3,60.00585657078973,
C:\Users\subject\Desktop\SVRT Experiments\SVRT Experiment 3\svrt_images\generated_images\results_problem_10,,,C:\Users\subject\Desktop\SVRT Experiments\SVRT Experiment 3\svrt_images\generated_images\results_problem_17\sample_0_0006.png,C:\Users\subject\Desktop\SVRT Experiments\SVRT Experiment 3\svrt_images\generated_images\results_problem_10\sample_0_0004.png,,,,,,,,,,,,,,,,,,,,0,3,3,3,0,6,6,6,,,,,,,,,,,,,,f,10,A,B,27,0,Incorrect!,0.26195059999008663,1161.1540685000073,None,1161.1540685000073,None,1161.4373847000243,None,,,,,107,001,2023-10-09_13h26.25.156,uncolored_shuffled,2021.2.3,60.00585657078973,
C:\Users\subject\Desktop\SVRT Experiments\SVRT Experiment 3\svrt_images\generated_images\results_problem_10,,,C:\Users\subject\Desktop\SVRT Experiments\SVRT Experiment 3\svrt_images\generated_images\results_problem_17\sample_0_0006.png,C:\Users\subject\Desktop\SVRT Experiments\SVRT Experiment 3\svrt_images\generated_images\results_problem_10\sample_1_0005.png,,,,,,,,,,,,,,,,,,,,0,3,3,3,0,7,7,7,,,,,,,,,,,,,,f,10,A,A,27,1,Correct!,0.48074039997300133,1162.4873462000105,None,1162.4873462000105,None,1162.9872891000123,None,,,,,107,001,2023-10-09_13h26.25.156,uncolored_shuffled,2021.2.3,60.00585657078973,
C:\Users\subject\Desktop\SVRT Experiments\SVRT Experiment 3\svrt_images\generated_images\results_problem_10,,,C:\Users\subject\Desktop\SVRT Experiments\SVRT Experiment 3\svrt_images\generated_images\results_problem_17\sample_0_0006.png,C:\Users\subject\Desktop\SVRT Experiments\SVRT Experiment 3\svrt_images\generated_images\results_problem_10\sample_0_0006.png,,,,,,,,,,,,,,,,,,,,0,3,3,3,0,8,8,8,,,,,,,,,,,,,,j,10,B,B,27,1,Correct!,0.25812570002744906,1164.0539009000058,None,1164.0539009000058,None,1164.3372172000236,None,,,,,107,001,2023-10-09_13h26.25.156,uncolored_shuffled,2021.2.3,60.00585657078973,
C:\Users\subject\Desktop\SVRT Experiments\SVRT Experiment 3\svrt_images\generated_images\results_problem_10,,,C:\Users\subject\Desktop\SVRT Experiments\SVRT Experiment 3\svrt_images\generated_images\results_problem_17\sample_0_0006.png,C:\Users\subject\Desktop\SVRT Experiments\SVRT Experiment 3\svrt_images\generated_images\results_problem_10\sample_1_0004.png,,,,,,,,,,,,,,,,,,,,0,3,3,3,0,9,9,9,,,,,,,,,,,,,,f,10,A,A,27,1,Correct!,0.39610030001495034,1165.4038213000167,None,1165.4038213000167,None,1165.820451800013,None,,,,,107,001,2023-10-09_13h26.25.156,uncolored_shuffled,2021.2.3,60.00585657078973,
C:\Users\subject\Desktop\SVRT Experiments\SVRT Experiment 3\svrt_images\generated_images\results_problem_10,,,C:\Users\subject\Desktop\SVRT Experiments\SVRT Experiment 3\svrt_images\generated_images\results_problem_17\sample_0_0006.png,C:\Users\subject\Desktop\SVRT Experiments\SVRT Experiment 3\svrt_images\generated_images\results_problem_10\sample_0_0007.png,,,,,,,,,,,,,,,,,,,,0,3,3,3,0,10,10,10,,,,,,,,,,,,,,j,10,B,B,27,1,Correct!,0.24037229997338727,1166.903685600002,None,1166.903685600002,None,1167.1703673000156,None,,,,,107,001,2023-10-09_13h26.25.156,uncolored_shuffled,2021.2.3,60.00585657078973,
C:\Users\subject\Desktop\SVRT Experiments\SVRT Experiment 3\svrt_images\generated_images\results_problem_10,,,C:\Users\subject\Desktop\SVRT Experiments\SVRT Experiment 3\svrt_images\generated_images\results_problem_17\sample_0_0006.png,C:\Users\subject\Desktop\SVRT Experiments\SVRT Experiment 3\svrt_images\generated_images\results_problem_10\sample_1_0016.png,,,,,,,,,,,,,,,,,,,,0,3,3,3,0,11,11,11,,,,,,,,,,,,,,f,10,A,A,27,1,Correct!,0.2664034999907017,1168.2536271999998,None,1168.2536271999998,None,1168.5369667000195,None,,,,,107,001,2023-10-09_13h26.25.156,uncolored_shuffled,2021.2.3,60.00585657078973,
C:\Users\subject\Desktop\SVRT Experiments\SVRT Experiment 3\svrt_images\generated_images\results_problem_10,,,C:\Users\subject\Desktop\SVRT Experiments\SVRT Experiment 3\svrt_images\generated_images\results_problem_17\sample_0_0006.png,C:\Users\subject\Desktop\SVRT Experiments\SVRT Experiment 3\svrt_images\generated_images\results_problem_10\sample_1_0010.png,,,,,,,,,,,,,,,,,,,,0,3,3,3,0,12,12,12,,,,,,,,,,,,,,j,10,B,A,27,0,Incorrect!,0.2591509999765549,1169.636913800001,None,1169.636913800001,None,1169.9202248000074,None,,,,,107,001,2023-10-09_13h26.25.156,uncolored_shuffled,2021.2.3,60.00585657078973,
C:\Users\subject\Desktop\SVRT Experiments\SVRT Experiment 3\svrt_images\generated_images\results_problem_10,,,C:\Users\subject\Desktop\SVRT Experiments\SVRT Experiment 3\svrt_images\generated_images\results_problem_17\sample_0_0006.png,C:\Users\subject\Desktop\SVRT Experiments\SVRT Experiment 3\svrt_images\generated_images\results_problem_10\sample_1_0015.png,,,,,,,,,,,,,,,,,,,,0,3,3,3,0,13,13,13,,,,,,,,,,,,,,j,10,B,A,27,0,Incorrect!,0.12388490000739694,1171.0201571000216,None,1171.0201571000216,None,1171.170153700019,None,,,,,107,001,2023-10-09_13h26.25.156,uncolored_shuffled,2021.2.3,60.00585657078973,
C:\Users\subject\Desktop\SVRT Experiments\SVRT Experiment 3\svrt_images\generated_images\results_problem_10,,,C:\Users\subject\Desktop\SVRT Experiments\SVRT Experiment 3\svrt_images\generated_images\results_problem_17\sample_0_0006.png,C:\Users\subject\Desktop\SVRT Experiments\SVRT Experiment 3\svrt_images\generated_images\results_problem_10\sample_0_0015.png,,,,,,,,,,,,,,,,,,,,0,3,3,3,0,14,14,14,,,,,,,,,,,,,,f,10,A,B,27,0,Incorrect!,0.1539745999907609,1172.2700820000027,None,1172.2700820000027,None,1172.4534103000187,None,,,,,107,001,2023-10-09_13h26.25.156,uncolored_shuffled,2021.2.3,60.00585657078973,
C:\Users\subject\Desktop\SVRT Experiments\SVRT Experiment 3\svrt_images\generated_images\results_problem_10,,,C:\Users\subject\Desktop\SVRT Experiments\SVRT Experiment 3\svrt_images\generated_images\results_problem_17\sample_0_0006.png,C:\Users\subject\Desktop\SVRT Experiments\SVRT Experiment 3\svrt_images\generated_images\results_problem_10\sample_0_0008.png,,,,,,,,,,,,,,,,,,,,0,3,3,3,0,15,15,15,,,,,,,,,,,,,,f,10,A,B,27,0,Incorrect!,0.18190910000703298,1173.5700316000148,None,1173.5700316000148,None,1173.7866540999967,None,,,,,107,001,2023-10-09_13h26.25.156,uncolored_shuffled,2021.2.3,60.00585657078973,
C:\Users\subject\Desktop\SVRT Experiments\SVRT Experiment 3\svrt_images\generated_images\results_problem_10,,,C:\Users\subject\Desktop\SVRT Experiments\SVRT Experiment 3\svrt_images\generated_images\results_problem_17\sample_0_0006.png,C:\Users\subject\Desktop\SVRT Experiments\SVRT Experiment 3\svrt_images\generated_images\results_problem_10\sample_0_0003.png,,,,,,,,,,,,,,,,,,,,0,3,3,3,0,16,16,16,,,,,,,,,,,,,,j,10,B,B,27,1,Correct!,0.12886520000756718,1174.9032777000102,None,1174.9032777000102,None,1175.0532516000094,None,,,,,107,001,2023-10-09_13h26.25.156,uncolored_shuffled,2021.2.3,60.00585657078973,
C:\Users\subject\Desktop\SVRT Experiments\SVRT Experiment 3\svrt_images\generated_images\results_problem_10,,,C:\Users\subject\Desktop\SVRT Experiments\SVRT Experiment 3\svrt_images\generated_images\results_problem_17\sample_0_0006.png,C:\Users\subject\Desktop\SVRT Experiments\SVRT Experiment 3\svrt_images\generated_images\results_problem_10\sample_1_0000.png,,,,,,,,,,,,,,,,,,,,0,3,3,3,0,17,17,17,,,,,,,,,,,,,,f,10,A,A,27,1,Correct!,0.23763039999175817,1176.1864774000132,None,1176.1864774000132,None,1176.469828500005,None,,,,,107,001,2023-10-09_13h26.25.156,uncolored_shuffled,2021.2.3,60.00585657078973,
C:\Users\subject\Desktop\SVRT Experiments\SVRT Experiment 3\svrt_images\generated_images\results_problem_10,,,C:\Users\subject\Desktop\SVRT Experiments\SVRT Experiment 3\svrt_images\generated_images\results_problem_17\sample_0_0006.png,C:\Users\subject\Desktop\SVRT Experiments\SVRT Experiment 3\svrt_images\generated_images\results_problem_10\sample_1_0013.png,,,,,,,,,,,,,,,,,,,,0,3,3,3,0,18,18,18,,,,,,,,,,,,,,j,10,B,A,27,0,Incorrect!,0.13233969997963868,1177.619773500017,None,1177.619773500017,None,1177.7697671000205,None,,,,,107,001,2023-10-09_13h26.25.156,uncolored_shuffled,2021.2.3,60.00585657078973,
C:\Users\subject\Desktop\SVRT Experiments\SVRT Experiment 3\svrt_images\generated_images\results_problem_10,,,C:\Users\subject\Desktop\SVRT Experiments\SVRT Experiment 3\svrt_images\generated_images\results_problem_17\sample_0_0006.png,C:\Users\subject\Desktop\SVRT Experiments\SVRT Experiment 3\svrt_images\generated_images\results_problem_10\sample_0_0010.png,,,,,,,,,,,,,,,,,,,,0,3,3,3,0,19,19,19,,,,,,,,,,,,,,j,10,B,B,27,1,Correct!,0.06420059999800287,1178.9197252000158,None,1178.9197252000158,None,1179.0030215000152,None,,,,,107,001,2023-10-09_13h26.25.156,uncolored_shuffled,2021.2.3,60.00585657078973,
C:\Users\subject\Desktop\SVRT Experiments\SVRT Experiment 3\svrt_images\generated_images\results_problem_10,,,C:\Users\subject\Desktop\SVRT Experiments\SVRT Experiment 3\svrt_images\generated_images\results_problem_17\sample_0_0006.png,C:\Users\subject\Desktop\SVRT Experiments\SVRT Experiment 3\svrt_images\generated_images\results_problem_10\sample_1_0003.png,,,,,,,,,,,,,,,,,,,,0,3,3,3,0,20,20,20,,,,,,,,,,,,,,f,10,A,A,27,1,Correct!,0.15834829999948852,1180.1696155000245,None,1180.1696155000245,None,1180.3529688999988,None,,,,,107,001,2023-10-09_13h26.25.156,uncolored_shuffled,2021.2.3,60.00585657078973,
C:\Users\subject\Desktop\SVRT Experiments\SVRT Experiment 3\svrt_images\generated_images\results_problem_10,,,C:\Users\subject\Desktop\SVRT Experiments\SVRT Experiment 3\svrt_images\generated_images\results_problem_17\sample_0_0006.png,C:\Users\subject\Desktop\SVRT Experiments\SVRT Experiment 3\svrt_images\generated_images\results_problem_10\sample_1_0014.png,,,,,,,,,,,,,,,,,,,,0,3,3,3,0,21,21,21,,,,,,,,,,,,,,f,10,A,A,27,1,Correct!,0.1844482999877073,1181.519551800011,None,1181.519551800011,None,1181.7362119000172,None,,,,,107,001,2023-10-09_13h26.25.156,uncolored_shuffled,2021.2.3,60.00585657078973,
C:\Users\subject\Desktop\SVRT Experiments\SVRT Experiment 3\svrt_images\generated_images\results_problem_10,,,C:\Users\subject\Desktop\SVRT Experiments\SVRT Experiment 3\svrt_images\generated_images\results_problem_17\sample_0_0006.png,C:\Users\subject\Desktop\SVRT Experiments\SVRT Experiment 3\svrt_images\generated_images\results_problem_10\sample_0_0009.png,,,,,,,,,,,,,,,,,,,,0,3,3,3,0,22,22,22,,,,,,,,,,,,,,f,10,A,B,27,0,Incorrect!,0.0006086000066716224,1182.9194567000086,None,1182.9194567000086,None,1182.9361189000192,None,,,,,107,001,2023-10-09_13h26.25.156,uncolored_shuffled,2021.2.3,60.00585657078973,
C:\Users\subject\Desktop\SVRT Experiments\SVRT Experiment 3\svrt_images\generated_images\results_problem_10,,,C:\Users\subject\Desktop\SVRT Experiments\SVRT Experiment 3\svrt_images\generated_images\results_problem_17\sample_0_0006.png,C:\Users\subject\Desktop\SVRT Experiments\SVRT Experiment 3\svrt_images\generated_images\results_problem_10\sample_1_0012.png,,,,,,,,,,,,,,,,,,,,0,3,3,3,0,23,23,23,,,,,,,,,,,,,,j,10,B,A,27,0,Incorrect!,0.09673399999155663,1184.1193932000024,None,1184.1193932000024,None,1184.236054100009,None,,,,,107,001,2023-10-09_13h26.25.156,uncolored_shuffled,2021.2.3,60.00585657078973,
C:\Users\subject\Desktop\SVRT Experiments\SVRT Experiment 3\svrt_images\generated_images\results_problem_10,,,C:\Users\subject\Desktop\SVRT Experiments\SVRT Experiment 3\svrt_images\generated_images\results_problem_17\sample_0_0006.png,C:\Users\subject\Desktop\SVRT Experiments\SVRT Experiment 3\svrt_images\generated_images\results_problem_10\sample_0_0000.png,,,,,,,,,,,,,,,,,,,,0,3,3,3,0,24,24,24,,,,,,,,,,,,,,j,10,B,B,27,1,Correct!,0.02795319998404011,1185.4360060000035,None,1185.4360060000035,None,1185.5026509000163,None,,,,,107,001,2023-10-09_13h26.25.156,uncolored_shuffled,2021.2.3,60.00585657078973,
C:\Users\subject\Desktop\SVRT Experiments\SVRT Experiment 3\svrt_images\generated_images\results_problem_10,,,C:\Users\subject\Desktop\SVRT Experiments\SVRT Experiment 3\svrt_images\generated_images\results_problem_17\sample_0_0006.png,C:\Users\subject\Desktop\SVRT Experiments\SVRT Experiment 3\svrt_images\generated_images\results_problem_10\sample_1_0007.png,,,,,,,,,,,,,,,,,,,,0,3,3,3,0,25,25,25,,,,,,,,,,,,,,f,10,A,A,27,1,Correct!,0.024845799984177575,1186.7192419000203,None,1186.7192419000203,None,1186.7858989000088,None,,,,,107,001,2023-10-09_13h26.25.156,uncolored_shuffled,2021.2.3,60.00585657078973,
C:\Users\subject\Desktop\SVRT Experiments\SVRT Experiment 3\svrt_images\generated_images\results_problem_10,,,C:\Users\subject\Desktop\SVRT Experiments\SVRT Experiment 3\svrt_images\generated_images\results_problem_17\sample_0_0006.png,C:\Users\subject\Desktop\SVRT Experiments\SVRT Experiment 3\svrt_images\generated_images\results_problem_10\sample_1_0001.png,,,,,,,,,,,,,,,,,,,,0,3,3,3,0,26,26,26,,,,,,,,,,,,,,j,10,B,A,27,0,Incorrect!,0.3728934999962803,1188.0191776000138,None,1188.0191776000138,None,1188.419148200017,None,,,,,107,001,2023-10-09_13h26.25.156,uncolored_shuffled,2021.2.3,60.00585657078973,
C:\Users\subject\Desktop\SVRT Experiments\SVRT Experiment 3\svrt_images\generated_images\results_problem_10,,,C:\Users\subject\Desktop\SVRT Experiments\SVRT Experiment 3\svrt_images\generated_images\results_problem_17\sample_0_0006.png,C:\Users\subject\Desktop\SVRT Experiments\SVRT Experiment 3\svrt_images\generated_images\results_problem_10\sample_0_0014.png,,,,,,,,,,,,,,,,,,,,0,3,3,3,0,27,27,27,,,,,,,,,,,,,,j,10,B,B,27,1,Correct!,0.19615049997810274,1189.6357949000085,None,1189.6357949000085,None,1189.8523963000043,None,,,,,107,001,2023-10-09_13h26.25.156,uncolored_shuffled,2021.2.3,60.00585657078973,
C:\Users\subject\Desktop\SVRT Experiments\SVRT Experiment 3\svrt_images\generated_images\results_problem_10,,,C:\Users\subject\Desktop\SVRT Experiments\SVRT Experiment 3\svrt_images\generated_images\results_problem_17\sample_0_0006.png,C:\Users\subject\Desktop\SVRT Experiments\SVRT Experiment 3\svrt_images\generated_images\results_problem_10\sample_1_0008.png,,,,,,,,,,,,,,,,,,,,0,3,3,3,0,28,28,28,,,,,,,,,,,,,,f,10,A,A,27,1,Correct!,0.922464500006754,1191.0856613000215,None,1191.0856613000215,None,1192.0355985000206,None,,,,,107,001,2023-10-09_13h26.25.156,uncolored_shuffled,2021.2.3,60.00585657078973,
C:\Users\subject\Desktop\SVRT Experiments\SVRT Experiment 3\svrt_images\generated_images\results_problem_10,,,C:\Users\subject\Desktop\SVRT Experiments\SVRT Experiment 3\svrt_images\generated_images\results_problem_17\sample_0_0006.png,C:\Users\subject\Desktop\SVRT Experiments\SVRT Experiment 3\svrt_images\generated_images\results_problem_10\sample_1_0011.png,,,,,,,,,,,,,,,,,,,,0,3,3,3,0,29,29,29,,,,,,,,,,,,,,f,10,A,A,27,1,Correct!,0.5946213999995962,1193.2855211000133,None,1193.2855211000133,None,1193.9021459000069,None,,,,,107,001,2023-10-09_13h26.25.156,uncolored_shuffled,2021.2.3,60.00585657078973,
C:\Users\subject\Desktop\SVRT Experiments\SVRT Experiment 3\svrt_images\generated_images\results_problem_10,,,C:\Users\subject\Desktop\SVRT Experiments\SVRT Experiment 3\svrt_images\generated_images\results_problem_17\sample_0_0006.png,C:\Users\subject\Desktop\SVRT Experiments\SVRT Experiment 3\svrt_images\generated_images\results_problem_10\sample_0_0012.png,,,,,,,,,,,,,,,,,,,,0,3,3,3,0,30,30,30,,,,,,,,,,,,,,f,10,A,B,27,0,Incorrect!,0.6320097999996506,1195.1520740000124,None,1195.1520740000124,None,1195.8353496000054,None,,,,,107,001,2023-10-09_13h26.25.156,uncolored_shuffled,2021.2.3,60.00585657078973,
C:\Users\subject\Desktop\SVRT Experiments\SVRT Experiment 3\svrt_images\generated_images\results_problem_10,,,C:\Users\subject\Desktop\SVRT Experiments\SVRT Experiment 3\svrt_images\generated_images\results_problem_17\sample_0_0006.png,C:\Users\subject\Desktop\SVRT Experiments\SVRT Experiment 3\svrt_images\generated_images\results_problem_10\sample_0_0011.png,,,,,,,,,,,,,,,,,,,,0,3,3,3,0,31,31,31,,,,,,,,,,,,,,j,10,B,B,27,1,Correct!,0.5541449000011198,1197.1019624000182,None,1197.1019624000182,None,1197.718589600001,None,,,,,107,001,2023-10-09_13h26.25.156,uncolored_shuffled,2021.2.3,60.00585657078973,
C:\Users\subject\Desktop\SVRT Experiments\SVRT Experiment 3\svrt_images\generated_images\results_problem_10,,,C:\Users\subject\Desktop\SVRT Experiments\SVRT Experiment 3\svrt_images\generated_images\results_problem_17\sample_0_0006.png,C:\Users\subject\Desktop\SVRT Experiments\SVRT Experiment 3\svrt_images\generated_images\results_problem_10\sample_1_0002.png,,,,,,,,,,,,,,,,,,,,0,3,3,3,0,32,32,32,,,,,,,,,,,,,,j,10,B,A,27,0,Incorrect!,0.3188961000123527,1198.9851848000253,None,1198.9851848000253,None,1199.3518237000098,None,,,,,107,001,2023-10-09_13h26.25.156,uncolored_shuffled,2021.2.3,60.00585657078973,
C:\Users\subject\Desktop\SVRT Experiments\SVRT Experiment 3\svrt_images\generated_images\results_problem_10,,,C:\Users\subject\Desktop\SVRT Experiments\SVRT Experiment 3\svrt_images\generated_images\results_problem_17\sample_0_0006.png,C:\Users\subject\Desktop\SVRT Experiments\SVRT Experiment 3\svrt_images\generated_images\results_problem_10\sample_0_0002.png,,,,,,,,,,,,,,,,,,,,0,3,3,3,0,33,33,33,,,,,,,,,,,,,,j,10,B,B,27,1,Correct!,5.933109000005061,1200.635107500013,None,1200.635107500013,None,1206.6347294000152,None,,,,,107,001,2023-10-09_13h26.25.156,uncolored_shuffled,2021.2.3,60.00585657078973,
C:\Users\subject\Desktop\SVRT Experiments\SVRT Experiment 3\svrt_images\generated_images\results_problem_10,,,C:\Users\subject\Desktop\SVRT Experiments\SVRT Experiment 3\svrt_images\generated_images\results_problem_17\sample_0_0006.png,,,,,,,,,,,,,,,,,,,,,0,3,3,3,0,12,12,12,,,,,,,,,,,,,,,,,,,,,,,,,,,,1207.634676900023,1207.634676900023,space,1.1253261000092607,107,001,2023-10-09_13h26.25.156,uncolored_shuffled,2021.2.3,60.00585657078973,
C:\Users\subject\Desktop\SVRT Experiments\SVRT Experiment 3\svrt_images\generated_images\results_problem_14,,,C:\Users\subject\Desktop\SVRT Experiments\SVRT Experiment 3\svrt_images\generated_images\results_problem_17\sample_0_0006.png,,C:\Users\subject\Desktop\SVRT Experiments\SVRT Experiment 3\svrt_images\generated_images\results_problem_14\sample_1_0002.png,,,,,,,,,,,,,,,,,,,0,4,4,4,0,0,0,0,,,,,,,,,,,,,,f,14,A,A,27,1,Correct!,1.3195127999933902,1208.7846133999992,None,1208.7846133999992,None,1210.13453510002,None,,,,,107,001,2023-10-09_13h26.25.156,uncolored_shuffled,2021.2.3,60.00585657078973,
C:\Users\subject\Desktop\SVRT Experiments\SVRT Experiment 3\svrt_images\generated_images\results_problem_14,,,C:\Users\subject\Desktop\SVRT Experiments\SVRT Experiment 3\svrt_images\generated_images\results_problem_17\sample_0_0006.png,,C:\Users\subject\Desktop\SVRT Experiments\SVRT Experiment 3\svrt_images\generated_images\results_problem_14\sample_0_0016.png,,,,,,,,,,,,,,,,,,,0,4,4,4,0,1,1,1,,,,,,,,,,,,,,j,14,B,B,27,1,Correct!,1.3849707999906968,1211.1511393999972,None,1211.1511393999972,None,1212.567705399997,None,,,,,107,001,2023-10-09_13h26.25.156,uncolored_shuffled,2021.2.3,60.00585657078973,
C:\Users\subject\Desktop\SVRT Experiments\SVRT Experiment 3\svrt_images\generated_images\results_problem_14,,,C:\Users\subject\Desktop\SVRT Experiments\SVRT Experiment 3\svrt_images\generated_images\results_problem_17\sample_0_0006.png,,C:\Users\subject\Desktop\SVRT Experiments\SVRT Experiment 3\svrt_images\generated_images\results_problem_14\sample_1_0000.png,,,,,,,,,,,,,,,,,,,0,4,4,4,0,2,2,2,,,,,,,,,,,,,,j,14,B,A,27,0,Incorrect!,2.967584199999692,1213.5843166999985,None,1213.5843166999985,None,1216.5841526000004,None,,,,,107,001,2023-10-09_13h26.25.156,uncolored_shuffled,2021.2.3,60.00585657078973,
C:\Users\subject\Desktop\SVRT Experiments\SVRT Experiment 3\svrt_images\generated_images\results_problem_14,,,C:\Users\subject\Desktop\SVRT Experiments\SVRT Experiment 3\svrt_images\generated_images\results_problem_17\sample_0_0006.png,,C:\Users\subject\Desktop\SVRT Experiments\SVRT Experiment 3\svrt_images\generated_images\results_problem_14\sample_1_0012.png,,,,,,,,,,,,,,,,,,,0,4,4,4,0,3,3,3,,,,,,,,,,,,,,f,14,A,A,27,1,Correct!,0.903279999998631,1217.6007518999977,None,1217.6007518999977,None,1218.5340269000153,None,,,,,107,001,2023-10-09_13h26.25.156,uncolored_shuffled,2021.2.3,60.00585657078973,
C:\Users\subject\Desktop\SVRT Experiments\SVRT Experiment 3\svrt_images\generated_images\results_problem_14,,,C:\Users\subject\Desktop\SVRT Experiments\SVRT Experiment 3\svrt_images\generated_images\results_problem_17\sample_0_0006.png,,C:\Users\subject\Desktop\SVRT Experiments\SVRT Experiment 3\svrt_images\generated_images\results_problem_14\sample_0_0004.png,,,,,,,,,,,,,,,,,,,0,4,4,4,0,4,4,4,,,,,,,,,,,,,,f,14,A,B,27,0,Incorrect!,1.6566219000087585,1219.5673308999976,None,1219.5673308999976,None,1221.2505532000214,None,,,,,107,001,2023-10-09_13h26.25.156,uncolored_shuffled,2021.2.3,60.00585657078973,
C:\Users\subject\Desktop\SVRT Experiments\SVRT Experiment 3\svrt_images\generated_images\results_problem_14,,,C:\Users\subject\Desktop\SVRT Experiments\SVRT Experiment 3\svrt_images\generated_images\results_problem_17\sample_0_0006.png,,C:\Users\subject\Desktop\SVRT Experiments\SVRT Experiment 3\svrt_images\generated_images\results_problem_14\sample_0_0009.png,,,,,,,,,,,,,,,,,,,0,4,4,4,0,5,5,5,,,,,,,,,,,,,,f,14,A,B,27,0,Incorrect!,0.3801046000153292,1222.2838305000041,None,1222.2838305000041,None,1222.6837949000183,None,,,,,107,001,2023-10-09_13h26.25.156,uncolored_shuffled,2021.2.3,60.00585657078973,
C:\Users\subject\Desktop\SVRT Experiments\SVRT Experiment 3\svrt_images\generated_images\results_problem_14,,,C:\Users\subject\Desktop\SVRT Experiments\SVRT Experiment 3\svrt_images\generated_images\results_problem_17\sample_0_0006.png,,C:\Users\subject\Desktop\SVRT Experiments\SVRT Experiment 3\svrt_images\generated_images\results_problem_14\sample_0_0000.png,,,,,,,,,,,,,,,,,,,0,4,4,4,0,6,6,6,,,,,,,,,,,,,,j,14,B,B,27,1,Correct!,0.3542425000050571,1223.7337153000117,None,1223.7337153000117,None,1224.1170539000013,None,,,,,107,001,2023-10-09_13h26.25.156,uncolored_shuffled,2021.2.3,60.00585657078973,
C:\Users\subject\Desktop\SVRT Experiments\SVRT Experiment 3\svrt_images\generated_images\results_problem_14,,,C:\Users\subject\Desktop\SVRT Experiments\SVRT Experiment 3\svrt_images\generated_images\results_problem_17\sample_0_0006.png,,C:\Users\subject\Desktop\SVRT Experiments\SVRT Experiment 3\svrt_images\generated_images\results_problem_14\sample_1_0011.png,,,,,,,,,,,,,,,,,,,0,4,4,4,0,7,7,7,,,,,,,,,,,,,,j,14,B,A,27,0,Incorrect!,0.32907790000899695,1225.1669893000217,None,1225.1669893000217,None,1225.5169645000133,None,,,,,107,001,2023-10-09_13h26.25.156,uncolored_shuffled,2021.2.3,60.00585657078973,
C:\Users\subject\Desktop\SVRT Experiments\SVRT Experiment 3\svrt_images\generated_images\results_problem_14,,,C:\Users\subject\Desktop\SVRT Experiments\SVRT Experiment 3\svrt_images\generated_images\results_problem_17\sample_0_0006.png,,C:\Users\subject\Desktop\SVRT Experiments\SVRT Experiment 3\svrt_images\generated_images\results_problem_14\sample_1_0014.png,,,,,,,,,,,,,,,,,,,0,4,4,4,0,8,8,8,,,,,,,,,,,,,,j,14,B,A,27,0,Incorrect!,0.28836179999052547,1226.5835740000184,None,1226.5835740000184,None,1226.900250900013,None,,,,,107,001,2023-10-09_13h26.25.156,uncolored_shuffled,2021.2.3,60.00585657078973,
C:\Users\subject\Desktop\SVRT Experiments\SVRT Experiment 3\svrt_images\generated_images\results_problem_14,,,C:\Users\subject\Desktop\SVRT Experiments\SVRT Experiment 3\svrt_images\generated_images\results_problem_17\sample_0_0006.png,,C:\Users\subject\Desktop\SVRT Experiments\SVRT Experiment 3\svrt_images\generated_images\results_problem_14\sample_1_0010.png,,,,,,,,,,,,,,,,,,,0,4,4,4,0,9,9,9,,,,,,,,,,,,,,f,14,A,A,27,1,Correct!,0.9533065999858081,1227.9668300000194,None,1227.9668300000194,None,1228.9501102000067,None,,,,,107,001,2023-10-09_13h26.25.156,uncolored_shuffled,2021.2.3,60.00585657078973,
C:\Users\subject\Desktop\SVRT Experiments\SVRT Experiment 3\svrt_images\generated_images\results_problem_14,,,C:\Users\subject\Desktop\SVRT Experiments\SVRT Experiment 3\svrt_images\generated_images\results_problem_17\sample_0_0006.png,,C:\Users\subject\Desktop\SVRT Experiments\SVRT Experiment 3\svrt_images\generated_images\results_problem_14\sample_1_0016.png,,,,,,,,,,,,,,,,,,,0,4,4,4,0,10,10,10,,,,,,,,,,,,,,j,14,B,A,27,0,Incorrect!,1.6387510999920778,1230.033378000022,None,1230.033378000022,None,1231.6997741000087,None,,,,,107,001,2023-10-09_13h26.25.156,uncolored_shuffled,2021.2.3,60.00585657078973,
C:\Users\subject\Desktop\SVRT Experiments\SVRT Experiment 3\svrt_images\generated_images\results_problem_14,,,C:\Users\subject\Desktop\SVRT Experiments\SVRT Experiment 3\svrt_images\generated_images\results_problem_17\sample_0_0006.png,,C:\Users\subject\Desktop\SVRT Experiments\SVRT Experiment 3\svrt_images\generated_images\results_problem_14\sample_1_0009.png,,,,,,,,,,,,,,,,,,,0,4,4,4,0,11,11,11,,,,,,,,,,,,,,f,14,A,A,27,1,Correct!,1.193063400016399,1232.7830623000045,None,1232.7830623000045,None,1233.9998037000187,None,,,,,107,001,2023-10-09_13h26.25.156,uncolored_shuffled,2021.2.3,60.00585657078973,
C:\Users\subject\Desktop\SVRT Experiments\SVRT Experiment 3\svrt_images\generated_images\results_problem_14,,,C:\Users\subject\Desktop\SVRT Experiments\SVRT Experiment 3\svrt_images\generated_images\results_problem_17\sample_0_0006.png,,C:\Users\subject\Desktop\SVRT Experiments\SVRT Experiment 3\svrt_images\generated_images\results_problem_14\sample_0_0007.png,,,,,,,,,,,,,,,,,,,0,4,4,4,0,12,12,12,,,,,,,,,,,,,,j,14,B,B,27,1,Correct!,0.3968655999924522,1235.083091700013,None,1235.083091700013,None,1235.4997329000034,None,,,,,107,001,2023-10-09_13h26.25.156,uncolored_shuffled,2021.2.3,60.00585657078973,
C:\Users\subject\Desktop\SVRT Experiments\SVRT Experiment 3\svrt_images\generated_images\results_problem_14,,,C:\Users\subject\Desktop\SVRT Experiments\SVRT Experiment 3\svrt_images\generated_images\results_problem_17\sample_0_0006.png,,C:\Users\subject\Desktop\SVRT Experiments\SVRT Experiment 3\svrt_images\generated_images\results_problem_14\sample_0_0002.png,,,,,,,,,,,,,,,,,,,0,4,4,4,0,13,13,13,,,,,,,,,,,,,,f,14,A,B,27,0,Incorrect!,0.3044235999986995,1236.5996797000116,None,1236.5996797000116,None,1236.9330516000045,None,,,,,107,001,2023-10-09_13h26.25.156,uncolored_shuffled,2021.2.3,60.00585657078973,
C:\Users\subject\Desktop\SVRT Experiments\SVRT Experiment 3\svrt_images\generated_images\results_problem_14,,,C:\Users\subject\Desktop\SVRT Experiments\SVRT Experiment 3\svrt_images\generated_images\results_problem_17\sample_0_0006.png,,C:\Users\subject\Desktop\SVRT Experiments\SVRT Experiment 3\svrt_images\generated_images\results_problem_14\sample_1_0005.png,,,,,,,,,,,,,,,,,,,0,4,4,4,0,14,14,14,,,,,,,,,,,,,,j,14,B,A,27,0,Incorrect!,0.29510190000291914,1238.0329276999983,None,1238.0329276999983,None,1238.34957760002,None,,,,,107,001,2023-10-09_13h26.25.156,uncolored_shuffled,2021.2.3,60.00585657078973,
C:\Users\subject\Desktop\SVRT Experiments\SVRT Experiment 3\svrt_images\generated_images\results_problem_14,,,C:\Users\subject\Desktop\SVRT Experiments\SVRT Experiment 3\svrt_images\generated_images\results_problem_17\sample_0_0006.png,,C:\Users\subject\Desktop\SVRT Experiments\SVRT Experiment 3\svrt_images\generated_images\results_problem_14\sample_0_0014.png,,,,,,,,,,,,,,,,,,,0,4,4,4,0,15,15,15,,,,,,,,,,,,,,j,14,B,B,27,1,Correct!,0.3819616000109818,1239.466126400017,None,1239.466126400017,None,1239.882817900012,None,,,,,107,001,2023-10-09_13h26.25.156,uncolored_shuffled,2021.2.3,60.00585657078973,
C:\Users\subject\Desktop\SVRT Experiments\SVRT Experiment 3\svrt_images\generated_images\results_problem_14,,,C:\Users\subject\Desktop\SVRT Experiments\SVRT Experiment 3\svrt_images\generated_images\results_problem_17\sample_0_0006.png,,C:\Users\subject\Desktop\SVRT Experiments\SVRT Experiment 3\svrt_images\generated_images\results_problem_14\sample_1_0006.png,,,,,,,,,,,,,,,,,,,0,4,4,4,0,16,16,16,,,,,,,,,,,,,,j,14,B,A,27,0,Incorrect!,0.17595750000327826,1241.0160885000078,None,1241.0160885000078,None,1241.2327269000234,None,,,,,107,001,2023-10-09_13h26.25.156,uncolored_shuffled,2021.2.3,60.00585657078973,
C:\Users\subject\Desktop\SVRT Experiments\SVRT Experiment 3\svrt_images\generated_images\results_problem_14,,,C:\Users\subject\Desktop\SVRT Experiments\SVRT Experiment 3\svrt_images\generated_images\results_problem_17\sample_0_0006.png,,C:\Users\subject\Desktop\SVRT Experiments\SVRT Experiment 3\svrt_images\generated_images\results_problem_14\sample_0_0012.png,,,,,,,,,,,,,,,,,,,0,4,4,4,0,17,17,17,,,,,,,,,,,,,,f,14,A,B,27,0,Incorrect!,0.15417280001565814,1242.3660185000044,None,1242.3660185000044,None,1242.5493129000242,None,,,,,107,001,2023-10-09_13h26.25.156,uncolored_shuffled,2021.2.3,60.00585657078973,
C:\Users\subject\Desktop\SVRT Experiments\SVRT Experiment 3\svrt_images\generated_images\results_problem_14,,,C:\Users\subject\Desktop\SVRT Experiments\SVRT Experiment 3\svrt_images\generated_images\results_problem_17\sample_0_0006.png,,C:\Users\subject\Desktop\SVRT Experiments\SVRT Experiment 3\svrt_images\generated_images\results_problem_14\sample_0_0005.png,,,,,,,,,,,,,,,,,,,0,4,4,4,0,18,18,18,,,,,,,,,,,,,,f,14,A,B,27,0,Incorrect!,0.35750470001949,1243.6826003000024,None,1243.6826003000024,None,1244.0659059000027,None,,,,,107,001,2023-10-09_13h26.25.156,uncolored_shuffled,2021.2.3,60.00585657078973,
C:\Users\subject\Desktop\SVRT Experiments\SVRT Experiment 3\svrt_images\generated_images\results_problem_14,,,C:\Users\subject\Desktop\SVRT Experiments\SVRT Experiment 3\svrt_images\generated_images\results_problem_17\sample_0_0006.png,,C:\Users\subject\Desktop\SVRT Experiments\SVRT Experiment 3\svrt_images\generated_images\results_problem_14\sample_0_0011.png,,,,,,,,,,,,,,,,,,,0,4,4,4,0,19,19,19,,,,,,,,,,,,,,f,14,A,B,27,0,Incorrect!,0.16824719999567606,1245.2158318000147,None,1245.2158318000147,None,1245.4324901000073,None,,,,,107,001,2023-10-09_13h26.25.156,uncolored_shuffled,2021.2.3,60.00585657078973,
C:\Users\subject\Desktop\SVRT Experiments\SVRT Experiment 3\svrt_images\generated_images\results_problem_14,,,C:\Users\subject\Desktop\SVRT Experiments\SVRT Experiment 3\svrt_images\generated_images\results_problem_17\sample_0_0006.png,,C:\Users\subject\Desktop\SVRT Experiments\SVRT Experiment 3\svrt_images\generated_images\results_problem_14\sample_1_0013.png,,,,,,,,,,,,,,,,,,,0,4,4,4,0,20,20,20,,,,,,,,,,,,,,j,14,B,A,27,0,Incorrect!,0.01695980000658892,1246.5990938000032,None,1246.5990938000032,None,1246.6490967000136,None,,,,,107,001,2023-10-09_13h26.25.156,uncolored_shuffled,2021.2.3,60.00585657078973,
C:\Users\subject\Desktop\SVRT Experiments\SVRT Experiment 3\svrt_images\generated_images\results_problem_14,,,C:\Users\subject\Desktop\SVRT Experiments\SVRT Experiment 3\svrt_images\generated_images\results_problem_17\sample_0_0006.png,,C:\Users\subject\Desktop\SVRT Experiments\SVRT Experiment 3\svrt_images\generated_images\results_problem_14\sample_0_0015.png,,,,,,,,,,,,,,,,,,,0,4,4,4,0,21,21,21,,,,,,,,,,,,,,j,14,B,B,27,1,Correct!,0.4003956999804359,1247.8156854000117,None,1247.8156854000117,None,1248.2656596000015,None,,,,,107,001,2023-10-09_13h26.25.156,uncolored_shuffled,2021.2.3,60.00585657078973,
C:\Users\subject\Desktop\SVRT Experiments\SVRT Experiment 3\svrt_images\generated_images\results_problem_14,,,C:\Users\subject\Desktop\SVRT Experiments\SVRT Experiment 3\svrt_images\generated_images\results_problem_17\sample_0_0006.png,,C:\Users\subject\Desktop\SVRT Experiments\SVRT Experiment 3\svrt_images\generated_images\results_problem_14\sample_0_0001.png,,,,,,,,,,,,,,,,,,,0,4,4,4,0,22,22,22,,,,,,,,,,,,,,j,14,B,B,27,1,Correct!,0.1272301000135485,1249.4489216000075,None,1249.4489216000075,None,1249.6155778999964,None,,,,,107,001,2023-10-09_13h26.25.156,uncolored_shuffled,2021.2.3,60.00585657078973,
C:\Users\subject\Desktop\SVRT Experiments\SVRT Experiment 3\svrt_images\generated_images\results_problem_14,,,C:\Users\subject\Desktop\SVRT Experiments\SVRT Experiment 3\svrt_images\generated_images\results_problem_17\sample_0_0006.png,,C:\Users\subject\Desktop\SVRT Experiments\SVRT Experiment 3\svrt_images\generated_images\results_problem_14\sample_1_0003.png,,,,,,,,,,,,,,,,,,,0,4,4,4,0,23,23,23,,,,,,,,,,,,,,j,14,B,A,27,0,Incorrect!,0.1051306999870576,1250.7988754000107,None,1250.7988754000107,None,1250.9655057000055,None,,,,,107,001,2023-10-09_13h26.25.156,uncolored_shuffled,2021.2.3,60.00585657078973,
C:\Users\subject\Desktop\SVRT Experiments\SVRT Experiment 3\svrt_images\generated_images\results_problem_14,,,C:\Users\subject\Desktop\SVRT Experiments\SVRT Experiment 3\svrt_images\generated_images\results_problem_17\sample_0_0006.png,,C:\Users\subject\Desktop\SVRT Experiments\SVRT Experiment 3\svrt_images\generated_images\results_problem_14\sample_1_0001.png,,,,,,,,,,,,,,,,,,,0,4,4,4,0,24,24,24,,,,,,,,,,,,,,j,14,B,A,27,0,Incorrect!,0.274634800007334,1252.1654387000017,None,1252.1654387000017,None,1252.4820794000116,None,,,,,107,001,2023-10-09_13h26.25.156,uncolored_shuffled,2021.2.3,60.00585657078973,
C:\Users\subject\Desktop\SVRT Experiments\SVRT Experiment 3\svrt_images\generated_images\results_problem_14,,,C:\Users\subject\Desktop\SVRT Experiments\SVRT Experiment 3\svrt_images\generated_images\results_problem_17\sample_0_0006.png,,C:\Users\subject\Desktop\SVRT Experiments\SVRT Experiment 3\svrt_images\generated_images\results_problem_14\sample_0_0010.png,,,,,,,,,,,,,,,,,,,0,4,4,4,0,25,25,25,,,,,,,,,,,,,,f,14,A,B,27,0,Incorrect!,0.3405930000008084,1253.7153645000071,None,1253.7153645000071,None,1254.0820071000198,None,,,,,107,001,2023-10-09_13h26.25.156,uncolored_shuffled,2021.2.3,60.00585657078973,
C:\Users\subject\Desktop\SVRT Experiments\SVRT Experiment 3\svrt_images\generated_images\results_problem_14,,,C:\Users\subject\Desktop\SVRT Experiments\SVRT Experiment 3\svrt_images\generated_images\results_problem_17\sample_0_0006.png,,C:\Users\subject\Desktop\SVRT Experiments\SVRT Experiment 3\svrt_images\generated_images\results_problem_14\sample_1_0015.png,,,,,,,,,,,,,,,,,,,0,4,4,4,0,26,26,26,,,,,,,,,,,,,,j,14,B,A,27,0,Incorrect!,0.052025699988007545,1255.3319397000014,None,1255.3319397000014,None,1255.4485860000132,None,,,,,107,001,2023-10-09_13h26.25.156,uncolored_shuffled,2021.2.3,60.00585657078973,
C:\Users\subject\Desktop\SVRT Experiments\SVRT Experiment 3\svrt_images\generated_images\results_problem_14,,,C:\Users\subject\Desktop\SVRT Experiments\SVRT Experiment 3\svrt_images\generated_images\results_problem_17\sample_0_0006.png,,C:\Users\subject\Desktop\SVRT Experiments\SVRT Experiment 3\svrt_images\generated_images\results_problem_14\sample_1_0004.png,,,,,,,,,,,,,,,,,,,0,4,4,4,0,27,27,27,,,,,,,,,,,,,,f,14,A,A,27,1,Correct!,0.14127240001107566,1256.6986936000176,None,1256.6986936000176,None,1256.9151652000146,None,,,,,107,001,2023-10-09_13h26.25.156,uncolored_shuffled,2021.2.3,60.00585657078973,
C:\Users\subject\Desktop\SVRT Experiments\SVRT Experiment 3\svrt_images\generated_images\results_problem_14,,,C:\Users\subject\Desktop\SVRT Experiments\SVRT Experiment 3\svrt_images\generated_images\results_problem_17\sample_0_0006.png,,C:\Users\subject\Desktop\SVRT Experiments\SVRT Experiment 3\svrt_images\generated_images\results_problem_14\sample_1_0007.png,,,,,,,,,,,,,,,,,,,0,4,4,4,0,28,28,28,,,,,,,,,,,,,,j,14,B,A,27,0,Incorrect!,0.3707439999852795,1258.165176200011,None,1258.165176200011,None,1258.581708200014,None,,,,,107,001,2023-10-09_13h26.25.156,uncolored_shuffled,2021.2.3,60.00585657078973,
C:\Users\subject\Desktop\SVRT Experiments\SVRT Experiment 3\svrt_images\generated_images\results_problem_14,,,C:\Users\subject\Desktop\SVRT Experiments\SVRT Experiment 3\svrt_images\generated_images\results_problem_17\sample_0_0006.png,,C:\Users\subject\Desktop\SVRT Experiments\SVRT Experiment 3\svrt_images\generated_images\results_problem_14\sample_0_0013.png,,,,,,,,,,,,,,,,,,,0,4,4,4,0,29,29,29,,,,,,,,,,,,,,j,14,B,B,27,1,Correct!,0.3829671999847051,1259.865025200008,None,1259.865025200008,None,1260.281714700017,None,,,,,107,001,2023-10-09_13h26.25.156,uncolored_shuffled,2021.2.3,60.00585657078973,
C:\Users\subject\Desktop\SVRT Experiments\SVRT Experiment 3\svrt_images\generated_images\results_problem_14,,,C:\Users\subject\Desktop\SVRT Experiments\SVRT Experiment 3\svrt_images\generated_images\results_problem_17\sample_0_0006.png,,C:\Users\subject\Desktop\SVRT Experiments\SVRT Experiment 3\svrt_images\generated_images\results_problem_14\sample_0_0003.png,,,,,,,,,,,,,,,,,,,0,4,4,4,0,30,30,30,,,,,,,,,,,,,,f,14,A,B,27,0,Incorrect!,0.7645048999984283,1261.5315536000126,None,1261.5315536000126,None,1262.3481655000069,None,,,,,107,001,2023-10-09_13h26.25.156,uncolored_shuffled,2021.2.3,60.00585657078973,
C:\Users\subject\Desktop\SVRT Experiments\SVRT Experiment 3\svrt_images\generated_images\results_problem_14,,,C:\Users\subject\Desktop\SVRT Experiments\SVRT Experiment 3\svrt_images\generated_images\results_problem_17\sample_0_0006.png,,C:\Users\subject\Desktop\SVRT Experiments\SVRT Experiment 3\svrt_images\generated_images\results_problem_14\sample_0_0008.png,,,,,,,,,,,,,,,,,,,0,4,4,4,0,31,31,31,,,,,,,,,,,,,,f,14,A,B,27,0,Incorrect!,0.2973514999903273,1263.614781100012,None,1263.614781100012,None,1263.9647502000153,None,,,,,107,001,2023-10-09_13h26.25.156,uncolored_shuffled,2021.2.3,60.00585657078973,
C:\Users\subject\Desktop\SVRT Experiments\SVRT Experiment 3\svrt_images\generated_images\results_problem_14,,,C:\Users\subject\Desktop\SVRT Experiments\SVRT Experiment 3\svrt_images\generated_images\results_problem_17\sample_0_0006.png,,C:\Users\subject\Desktop\SVRT Experiments\SVRT Experiment 3\svrt_images\generated_images\results_problem_14\sample_1_0008.png,,,,,,,,,,,,,,,,,,,0,4,4,4,0,32,32,32,,,,,,,,,,,,,,f,14,A,A,27,1,Correct!,0.26480949998949654,1265.2313286999997,None,1265.2313286999997,None,1265.531308000005,None,,,,,107,001,2023-10-09_13h26.25.156,uncolored_shuffled,2021.2.3,60.00585657078973,
C:\Users\subject\Desktop\SVRT Experiments\SVRT Experiment 3\svrt_images\generated_images\results_problem_14,,,C:\Users\subject\Desktop\SVRT Experiments\SVRT Experiment 3\svrt_images\generated_images\results_problem_17\sample_0_0006.png,,C:\Users\subject\Desktop\SVRT Experiments\SVRT Experiment 3\svrt_images\generated_images\results_problem_14\sample_0_0006.png,,,,,,,,,,,,,,,,,,,0,4,4,4,0,33,33,33,,,,,,,,,,,,,,j,14,B,B,27,1,Correct!,0.314245799992932,1266.7977357000054,None,1266.7977357000054,None,1267.1312326000188,None,,,,,107,001,2023-10-09_13h26.25.156,uncolored_shuffled,2021.2.3,60.00585657078973,
C:\Users\subject\Desktop\SVRT Experiments\SVRT Experiment 3\svrt_images\generated_images\results_problem_14,,,C:\Users\subject\Desktop\SVRT Experiments\SVRT Experiment 3\svrt_images\generated_images\results_problem_17\sample_0_0006.png,,,,,,,,,,,,,,,,,,,,,0,4,4,4,0,12,12,12,,,,,,,,,,,,,,,,,,,,,,,,,,,,1268.131160800025,1268.131160800025,space,0.8209932000027038,107,001,2023-10-09_13h26.25.156,uncolored_shuffled,2021.2.3,60.00585657078973,
C:\Users\subject\Desktop\SVRT Experiments\SVRT Experiment 3\svrt_images\generated_images\results_problem_16,,,C:\Users\subject\Desktop\SVRT Experiments\SVRT Experiment 3\svrt_images\generated_images\results_problem_17\sample_0_0006.png,,,C:\Users\subject\Desktop\SVRT Experiments\SVRT Experiment 3\svrt_images\generated_images\results_problem_16\sample_0_0016.png,,,,,,,,,,,,,,,,,,0,5,5,5,0,0,0,0,,,,,,,,,,,,,,f,16,A,B,27,0,Incorrect!,0.8830585000105202,1268.9811014000152,None,1268.9811014000152,None,1269.8810520000116,None,,,,,107,001,2023-10-09_13h26.25.156,uncolored_shuffled,2021.2.3,60.00585657078973,
C:\Users\subject\Desktop\SVRT Experiments\SVRT Experiment 3\svrt_images\generated_images\results_problem_16,,,C:\Users\subject\Desktop\SVRT Experiments\SVRT Experiment 3\svrt_images\generated_images\results_problem_17\sample_0_0006.png,,,C:\Users\subject\Desktop\SVRT Experiments\SVRT Experiment 3\svrt_images\generated_images\results_problem_16\sample_1_0008.png,,,,,,,,,,,,,,,,,,0,5,5,5,0,1,1,1,,,,,,,,,,,,,,j,16,B,A,27,0,Incorrect!,0.2788620999781415,1270.881039800006,None,1270.881039800006,None,1271.1810009000183,None,,,,,107,001,2023-10-09_13h26.25.156,uncolored_shuffled,2021.2.3,60.00585657078973,
C:\Users\subject\Desktop\SVRT Experiments\SVRT Experiment 3\svrt_images\generated_images\results_problem_16,,,C:\Users\subject\Desktop\SVRT Experiments\SVRT Experiment 3\svrt_images\generated_images\results_problem_17\sample_0_0006.png,,,C:\Users\subject\Desktop\SVRT Experiments\SVRT Experiment 3\svrt_images\generated_images\results_problem_16\sample_0_0000.png,,,,,,,,,,,,,,,,,,0,5,5,5,0,2,2,2,,,,,,,,,,,,,,j,16,B,B,27,1,Correct!,0.48239289998309687,1272.1975472000195,None,1272.1975472000195,None,1272.6975899000245,None,,,,,107,001,2023-10-09_13h26.25.156,uncolored_shuffled,2021.2.3,60.00585657078973,
C:\Users\subject\Desktop\SVRT Experiments\SVRT Experiment 3\svrt_images\generated_images\results_problem_16,,,C:\Users\subject\Desktop\SVRT Experiments\SVRT Experiment 3\svrt_images\generated_images\results_problem_17\sample_0_0006.png,,,C:\Users\subject\Desktop\SVRT Experiments\SVRT Experiment 3\svrt_images\generated_images\results_problem_16\sample_1_0011.png,,,,,,,,,,,,,,,,,,0,5,5,5,0,3,3,3,,,,,,,,,,,,,,f,16,A,A,27,1,Correct!,0.4665988000051584,1274.581370800006,None,1274.581370800006,None,1275.0648158999975,None,,,,,107,001,2023-10-09_13h26.25.156,uncolored_shuffled,2021.2.3,60.00585657078973,
C:\Users\subject\Desktop\SVRT Experiments\SVRT Experiment 3\svrt_images\generated_images\results_problem_16,,,C:\Users\subject\Desktop\SVRT Experiments\SVRT Experiment 3\svrt_images\generated_images\results_problem_17\sample_0_0006.png,,,C:\Users\subject\Desktop\SVRT Experiments\SVRT Experiment 3\svrt_images\generated_images\results_problem_16\sample_1_0001.png,,,,,,,,,,,,,,,,,,0,5,5,5,0,4,4,4,,,,,,,,,,,,,,j,16,B,A,27,0,Incorrect!,0.3254722999990918,1276.1144685000181,None,1276.1144685000181,None,1276.464458500006,None,,,,,107,001,2023-10-09_13h26.25.156,uncolored_shuffled,2021.2.3,60.00585657078973,
C:\Users\subject\Desktop\SVRT Experiments\SVRT Experiment 3\svrt_images\generated_images\results_problem_16,,,C:\Users\subject\Desktop\SVRT Experiments\SVRT Experiment 3\svrt_images\generated_images\results_problem_17\sample_0_0006.png,,,C:\Users\subject\Desktop\SVRT Experiments\SVRT Experiment 3\svrt_images\generated_images\results_problem_16\sample_1_0007.png,,,,,,,,,,,,,,,,,,0,5,5,5,0,5,5,5,,,,,,,,,,,,,,f,16,A,A,27,1,Correct!,0.3016862999938894,1277.5144285999995,None,1277.5144285999995,None,1277.8476694000128,None,,,,,107,001,2023-10-09_13h26.25.156,uncolored_shuffled,2021.2.3,60.00585657078973,
C:\Users\subject\Desktop\SVRT Experiments\SVRT Experiment 3\svrt_images\generated_images\results_problem_16,,,C:\Users\subject\Desktop\SVRT Experiments\SVRT Experiment 3\svrt_images\generated_images\results_problem_17\sample_0_0006.png,,,C:\Users\subject\Desktop\SVRT Experiments\SVRT Experiment 3\svrt_images\generated_images\results_problem_16\sample_1_0010.png,,,,,,,,,,,,,,,,,,0,5,5,5,0,6,6,6,,,,,,,,,,,,,,j,16,B,A,27,0,Incorrect!,3.7503854000242427,1278.8976273000007,None,1278.8976273000007,None,1282.680304700014,None,,,,,107,001,2023-10-09_13h26.25.156,uncolored_shuffled,2021.2.3,60.00585657078973,
C:\Users\subject\Desktop\SVRT Experiments\SVRT Experiment 3\svrt_images\generated_images\results_problem_16,,,C:\Users\subject\Desktop\SVRT Experiments\SVRT Experiment 3\svrt_images\generated_images\results_problem_17\sample_0_0006.png,,,C:\Users\subject\Desktop\SVRT Experiments\SVRT Experiment 3\svrt_images\generated_images\results_problem_16\sample_0_0013.png,,,,,,,,,,,,,,,,,,0,5,5,5,0,7,7,7,,,,,,,,,,,,,,f,16,A,B,27,0,Incorrect!,1.621639499993762,1283.7302973000042,None,1283.7302973000042,None,1285.3800996000064,None,,,,,107,001,2023-10-09_13h26.25.156,uncolored_shuffled,2021.2.3,60.00585657078973,
C:\Users\subject\Desktop\SVRT Experiments\SVRT Experiment 3\svrt_images\generated_images\results_problem_16,,,C:\Users\subject\Desktop\SVRT Experiments\SVRT Experiment 3\svrt_images\generated_images\results_problem_17\sample_0_0006.png,,,C:\Users\subject\Desktop\SVRT Experiments\SVRT Experiment 3\svrt_images\generated_images\results_problem_16\sample_1_0012.png,,,,,,,,,,,,,,,,,,0,5,5,5,0,8,8,8,,,,,,,,,,,,,,f,16,A,A,27,1,Correct!,0.36129599998821504,1286.4467202000087,None,1286.4467202000087,None,1286.829960300005,None,,,,,107,001,2023-10-09_13h26.25.156,uncolored_shuffled,2021.2.3,60.00585657078973,
C:\Users\subject\Desktop\SVRT Experiments\SVRT Experiment 3\svrt_images\generated_images\results_problem_16,,,C:\Users\subject\Desktop\SVRT Experiments\SVRT Experiment 3\svrt_images\generated_images\results_problem_17\sample_0_0006.png,,,C:\Users\subject\Desktop\SVRT Experiments\SVRT Experiment 3\svrt_images\generated_images\results_problem_16\sample_1_0013.png,,,,,,,,,,,,,,,,,,0,5,5,5,0,9,9,9,,,,,,,,,,,,,,j,16,B,A,27,0,Incorrect!,0.31925530001171865,1287.8967167000228,None,1287.8967167000228,None,1288.2467792000098,None,,,,,107,001,2023-10-09_13h26.25.156,uncolored_shuffled,2021.2.3,60.00585657078973,
C:\Users\subject\Desktop\SVRT Experiments\SVRT Experiment 3\svrt_images\generated_images\results_problem_16,,,C:\Users\subject\Desktop\SVRT Experiments\SVRT Experiment 3\svrt_images\generated_images\results_problem_17\sample_0_0006.png,,,C:\Users\subject\Desktop\SVRT Experiments\SVRT Experiment 3\svrt_images\generated_images\results_problem_16\sample_0_0005.png,,,,,,,,,,,,,,,,,,0,5,5,5,0,10,10,10,,,,,,,,,,,,,,f,16,A,B,27,0,Incorrect!,0.18187749999924563,1289.330025000003,None,1289.330025000003,None,1289.5299184000178,None,,,,,107,001,2023-10-09_13h26.25.156,uncolored_shuffled,2021.2.3,60.00585657078973,
C:\Users\subject\Desktop\SVRT Experiments\SVRT Experiment 3\svrt_images\generated_images\results_problem_16,,,C:\Users\subject\Desktop\SVRT Experiments\SVRT Experiment 3\svrt_images\generated_images\results_problem_17\sample_0_0006.png,,,C:\Users\subject\Desktop\SVRT Experiments\SVRT Experiment 3\svrt_images\generated_images\results_problem_16\sample_0_0002.png,,,,,,,,,,,,,,,,,,0,5,5,5,0,11,11,11,,,,,,,,,,,,,,j,16,B,B,27,1,Correct!,0.2106091000023298,1290.6133031000209,None,1290.6133031000209,None,1290.8465426000184,None,,,,,107,001,2023-10-09_13h26.25.156,uncolored_shuffled,2021.2.3,60.00585657078973,
C:\Users\subject\Desktop\SVRT Experiments\SVRT Experiment 3\svrt_images\generated_images\results_problem_16,,,C:\Users\subject\Desktop\SVRT Experiments\SVRT Experiment 3\svrt_images\generated_images\results_problem_17\sample_0_0006.png,,,C:\Users\subject\Desktop\SVRT Experiments\SVRT Experiment 3\svrt_images\generated_images\results_problem_16\sample_0_0009.png,,,,,,,,,,,,,,,,,,0,5,5,5,0,12,12,12,,,,,,,,,,,,,,f,16,A,B,27,0,Incorrect!,0.23736400000052527,1291.946537300013,None,1291.946537300013,None,1292.2131519000104,None,,,,,107,001,2023-10-09_13h26.25.156,uncolored_shuffled,2021.2.3,60.00585657078973,
C:\Users\subject\Desktop\SVRT Experiments\SVRT Experiment 3\svrt_images\generated_images\results_problem_16,,,C:\Users\subject\Desktop\SVRT Experiments\SVRT Experiment 3\svrt_images\generated_images\results_problem_17\sample_0_0006.png,,,C:\Users\subject\Desktop\SVRT Experiments\SVRT Experiment 3\svrt_images\generated_images\results_problem_16\sample_0_0003.png,,,,,,,,,,,,,,,,,,0,5,5,5,0,13,13,13,,,,,,,,,,,,,,j,16,B,B,27,1,Correct!,0.2789004999794997,1293.3130555000098,None,1293.3130555000098,None,1293.613086700003,None,,,,,107,001,2023-10-09_13h26.25.156,uncolored_shuffled,2021.2.3,60.00585657078973,
C:\Users\subject\Desktop\SVRT Experiments\SVRT Experiment 3\svrt_images\generated_images\results_problem_16,,,C:\Users\subject\Desktop\SVRT Experiments\SVRT Experiment 3\svrt_images\generated_images\results_problem_17\sample_0_0006.png,,,C:\Users\subject\Desktop\SVRT Experiments\SVRT Experiment 3\svrt_images\generated_images\results_problem_16\sample_0_0008.png,,,,,,,,,,,,,,,,,,0,5,5,5,0,14,14,14,,,,,,,,,,,,,,f,16,A,B,27,0,Incorrect!,0.23825739999301732,1294.7297033000214,None,1294.7297033000214,None,1295.0130290000234,None,,,,,107,001,2023-10-09_13h26.25.156,uncolored_shuffled,2021.2.3,60.00585657078973,
C:\Users\subject\Desktop\SVRT Experiments\SVRT Experiment 3\svrt_images\generated_images\results_problem_16,,,C:\Users\subject\Desktop\SVRT Experiments\SVRT Experiment 3\svrt_images\generated_images\results_problem_17\sample_0_0006.png,,,C:\Users\subject\Desktop\SVRT Experiments\SVRT Experiment 3\svrt_images\generated_images\results_problem_16\sample_1_0006.png,,,,,,,,,,,,,,,,,,0,5,5,5,0,15,15,15,,,,,,,,,,,,,,j,16,B,A,27,0,Incorrect!,0.30169540000497364,1296.2502874000056,None,1296.2502874000056,None,1296.5962471000094,None,,,,,107,001,2023-10-09_13h26.25.156,uncolored_shuffled,2021.2.3,60.00585657078973,
C:\Users\subject\Desktop\SVRT Experiments\SVRT Experiment 3\svrt_images\generated_images\results_problem_16,,,C:\Users\subject\Desktop\SVRT Experiments\SVRT Experiment 3\svrt_images\generated_images\results_problem_17\sample_0_0006.png,,,C:\Users\subject\Desktop\SVRT Experiments\SVRT Experiment 3\svrt_images\generated_images\results_problem_16\sample_0_0010.png,,,,,,,,,,,,,,,,,,0,5,5,5,0,16,16,16,,,,,,,,,,,,,,j,16,B,B,27,1,Correct!,0.4705647000228055,1297.729483800009,None,1297.729483800009,None,1298.2460946000065,None,,,,,107,001,2023-10-09_13h26.25.156,uncolored_shuffled,2021.2.3,60.00585657078973,
C:\Users\subject\Desktop\SVRT Experiments\SVRT Experiment 3\svrt_images\generated_images\results_problem_16,,,C:\Users\subject\Desktop\SVRT Experiments\SVRT Experiment 3\svrt_images\generated_images\results_problem_17\sample_0_0006.png,,,C:\Users\subject\Desktop\SVRT Experiments\SVRT Experiment 3\svrt_images\generated_images\results_problem_16\sample_0_0004.png,,,,,,,,,,,,,,,,,,0,5,5,5,0,17,17,17,,,,,,,,,,,,,,f,16,A,B,27,0,Incorrect!,0.9165214999811724,1299.379434500006,None,1299.379434500006,None,1300.3293608000095,None,,,,,107,001,2023-10-09_13h26.25.156,uncolored_shuffled,2021.2.3,60.00585657078973,
C:\Users\subject\Desktop\SVRT Experiments\SVRT Experiment 3\svrt_images\generated_images\results_problem_16,,,C:\Users\subject\Desktop\SVRT Experiments\SVRT Experiment 3\svrt_images\generated_images\results_problem_17\sample_0_0006.png,,,C:\Users\subject\Desktop\SVRT Experiments\SVRT Experiment 3\svrt_images\generated_images\results_problem_16\sample_0_0014.png,,,,,,,,,,,,,,,,,,0,5,5,5,0,18,18,18,,,,,,,,,,,,,,j,16,B,B,27,1,Correct!,0.5926550000149291,1301.4792799999996,None,1301.4792799999996,None,1302.095899500011,None,,,,,107,001,2023-10-09_13h26.25.156,uncolored_shuffled,2021.2.3,60.00585657078973,
C:\Users\subject\Desktop\SVRT Experiments\SVRT Experiment 3\svrt_images\generated_images\results_problem_16,,,C:\Users\subject\Desktop\SVRT Experiments\SVRT Experiment 3\svrt_images\generated_images\results_problem_17\sample_0_0006.png,,,C:\Users\subject\Desktop\SVRT Experiments\SVRT Experiment 3\svrt_images\generated_images\results_problem_16\sample_1_0005.png,,,,,,,,,,,,,,,,,,0,5,5,5,0,19,19,19,,,,,,,,,,,,,,j,16,B,A,27,0,Incorrect!,0.4254172000219114,1303.262600200018,None,1303.262600200018,None,1303.7125024000125,None,,,,,107,001,2023-10-09_13h26.25.156,uncolored_shuffled,2021.2.3,60.00585657078973,
C:\Users\subject\Desktop\SVRT Experiments\SVRT Experiment 3\svrt_images\generated_images\results_problem_16,,,C:\Users\subject\Desktop\SVRT Experiments\SVRT Experiment 3\svrt_images\generated_images\results_problem_17\sample_0_0006.png,,,C:\Users\subject\Desktop\SVRT Experiments\SVRT Experiment 3\svrt_images\generated_images\results_problem_16\sample_1_0009.png,,,,,,,,,,,,,,,,,,0,5,5,5,0,20,20,20,,,,,,,,,,,,,,f,16,A,A,27,1,Correct!,0.6168540999933612,1304.8790950000111,None,1304.8790950000111,None,1305.5290818000212,None,,,,,107,001,2023-10-09_13h26.25.156,uncolored_shuffled,2021.2.3,60.00585657078973,
C:\Users\subject\Desktop\SVRT Experiments\SVRT Experiment 3\svrt_images\generated_images\results_problem_16,,,C:\Users\subject\Desktop\SVRT Experiments\SVRT Experiment 3\svrt_images\generated_images\results_problem_17\sample_0_0006.png,,,C:\Users\subject\Desktop\SVRT Experiments\SVRT Experiment 3\svrt_images\generated_images\results_problem_16\sample_0_0007.png,,,,,,,,,,,,,,,,,,0,5,5,5,0,21,21,21,,,,,,,,,,,,,,f,16,A,B,27,0,Incorrect!,1.2157112999993842,1306.712323100015,None,1306.712323100015,None,1307.9789120000205,None,,,,,107,001,2023-10-09_13h26.25.156,uncolored_shuffled,2021.2.3,60.00585657078973,
C:\Users\subject\Desktop\SVRT Experiments\SVRT Experiment 3\svrt_images\generated_images\results_problem_16,,,C:\Users\subject\Desktop\SVRT Experiments\SVRT Experiment 3\svrt_images\generated_images\results_problem_17\sample_0_0006.png,,,C:\Users\subject\Desktop\SVRT Experiments\SVRT Experiment 3\svrt_images\generated_images\results_problem_16\sample_0_0001.png,,,,,,,,,,,,,,,,,,0,5,5,5,0,22,22,22,,,,,,,,,,,,,,j,16,B,B,27,1,Correct!,1.037074499996379,1309.1788537999964,None,1309.1788537999964,None,1310.2455250000057,None,,,,,107,001,2023-10-09_13h26.25.156,uncolored_shuffled,2021.2.3,60.00585657078973,
C:\Users\subject\Desktop\SVRT Experiments\SVRT Experiment 3\svrt_images\generated_images\results_problem_16,,,C:\Users\subject\Desktop\SVRT Experiments\SVRT Experiment 3\svrt_images\generated_images\results_problem_17\sample_0_0006.png,,,C:\Users\subject\Desktop\SVRT Experiments\SVRT Experiment 3\svrt_images\generated_images\results_problem_16\sample_1_0014.png,,,,,,,,,,,,,,,,,,0,5,5,5,0,23,23,23,,,,,,,,,,,,,,f,16,A,A,27,1,Correct!,0.6266268999897875,1311.445374700008,None,1311.445374700008,None,1312.11202640002,None,,,,,107,001,2023-10-09_13h26.25.156,uncolored_shuffled,2021.2.3,60.00585657078973,
C:\Users\subject\Desktop\SVRT Experiments\SVRT Experiment 3\svrt_images\generated_images\results_problem_16,,,C:\Users\subject\Desktop\SVRT Experiments\SVRT Experiment 3\svrt_images\generated_images\results_problem_17\sample_0_0006.png,,,C:\Users\subject\Desktop\SVRT Experiments\SVRT Experiment 3\svrt_images\generated_images\results_problem_16\sample_1_0000.png,,,,,,,,,,,,,,,,,,0,5,5,5,0,24,24,24,,,,,,,,,,,,,,j,16,B,A,27,0,Incorrect!,0.4713579000090249,1313.3286554000224,None,1313.3286554000224,None,1313.8452296000032,None,,,,,107,001,2023-10-09_13h26.25.156,uncolored_shuffled,2021.2.3,60.00585657078973,
C:\Users\subject\Desktop\SVRT Experiments\SVRT Experiment 3\svrt_images\generated_images\results_problem_16,,,C:\Users\subject\Desktop\SVRT Experiments\SVRT Experiment 3\svrt_images\generated_images\results_problem_17\sample_0_0006.png,,,C:\Users\subject\Desktop\SVRT Experiments\SVRT Experiment 3\svrt_images\generated_images\results_problem_16\sample_0_0015.png,,,,,,,,,,,,,,,,,,0,5,5,5,0,25,25,25,,,,,,,,,,,,,,f,16,A,B,27,0,Incorrect!,0.6894126000115648,1315.0785270000051,None,1315.0785270000051,None,1315.7951592000027,None,,,,,107,001,2023-10-09_13h26.25.156,uncolored_shuffled,2021.2.3,60.00585657078973,
