folder,results_problem_13,results_problem_6,results_problem_17,results_problem_10,results_problem_14,results_problem_16,results_problem_5,results_problem_3,results_problem_19,results_problem_7,results_problem_2,results_problem_23,results_problem_12,results_problem_20,results_problem_11,results_problem_22,results_problem_21,results_problem_1,results_problem_9,results_problem_18,results_problem_15,results_problem_4,results_problem_8,categories.thisRepN,categories.thisTrialN,categories.thisN,categories.thisIndex,trials.thisRepN,trials.thisTrialN,trials.thisN,trials.thisIndex,consent_text.started,consent_kb.started,consent_kb.keys,consent_kb.rt,Gender.keys,Gender.rt,Age,instructions_text.started,instructions_text.stopped,instructions_kb.keys,instructions_kb.rt,instructions_kb.started,instructions_kb.stopped,trial_kb.keys,current_problem_num,category_resp,answer,seed,accuracy,feedback,trial_kb.rt,trial_kb.started,trial_kb.stopped,trial_image.started,trial_image.stopped,feedback_text.started,feedback_text.stopped,new_problem_kb.started,new_problem_text.started,new_problem_kb.keys,new_problem_kb.rt,Participant #,session,date,expName,psychopyVersion,frameRate,
,,,,,,,,,,,,,,,,,,,,,,,,,,,,,,,,276.6332903000002,276.6332903000002,y,213.48978760000318,,,,,,,,,,,,,,,,,,,,,,,,,,,,108,001,2023-10-10_11h18.02.138,uncolored_sorted,2021.2.3,60.00085201509375,
,,,,,,,,,,,,,,,,,,,,,,,,,,,,,,,,,,,,w,6.980089899996528,,,,,,,,,,,,,,,,,,,,,,,,,,108,001,2023-10-10_11h18.02.138,uncolored_sorted,2021.2.3,60.00085201509375,
,,,,,,,,,,,,,,,,,,,,,,,,,,,,,,,,,,,,,,20,503.6500737000024,None,space,38.87295119999908,503.6500737000024,None,,,,,,,,,,,,,,,,,,,108,001,2023-10-10_11h18.02.138,uncolored_sorted,2021.2.3,60.00085201509375,
C:\Users\subject\Desktop\SVRT Experiments\SVRT Experiment 3\svrt_images\generated_images\results_problem_13,C:\Users\subject\Desktop\SVRT Experiments\SVRT Experiment 3\svrt_images\generated_images\results_problem_13\sample_1_0004.png,,,,,,,,,,,,,,,,,,,,,,,0,0,0,0,0,0,0,0,,,,,,,,,,,,,,f,13,A,A,27,1,Correct!,7.174768299999414,542.5642294999852,None,542.5642294999852,None,549.7804534999887,None,,,,,108,001,2023-10-10_11h18.02.138,uncolored_sorted,2021.2.3,60.00085201509375,
C:\Users\subject\Desktop\SVRT Experiments\SVRT Experiment 3\svrt_images\generated_images\results_problem_13,C:\Users\subject\Desktop\SVRT Experiments\SVRT Experiment 3\svrt_images\generated_images\results_problem_13\sample_1_0006.png,,,,,,,,,,,,,,,,,,,,,,,0,0,0,0,0,1,1,1,,,,,,,,,,,,,,j,13,B,A,27,0,Incorrect!,3.149904499994591,550.7970467999985,None,550.7970467999985,None,553.9802098000073,None,,,,,108,001,2023-10-10_11h18.02.138,uncolored_sorted,2021.2.3,60.00085201509375,
C:\Users\subject\Desktop\SVRT Experiments\SVRT Experiment 3\svrt_images\generated_images\results_problem_13,C:\Users\subject\Desktop\SVRT Experiments\SVRT Experiment 3\svrt_images\generated_images\results_problem_13\sample_0_0008.png,,,,,,,,,,,,,,,,,,,,,,,0,0,0,0,0,2,2,2,,,,,,,,,,,,,,j,13,B,B,27,1,Correct!,4.4380604999896605,554.9968365000095,None,554.9968365000095,None,559.4628201999876,None,,,,,108,001,2023-10-10_11h18.02.138,uncolored_sorted,2021.2.3,60.00085201509375,
C:\Users\subject\Desktop\SVRT Experiments\SVRT Experiment 3\svrt_images\generated_images\results_problem_13,C:\Users\subject\Desktop\SVRT Experiments\SVRT Experiment 3\svrt_images\generated_images\results_problem_13\sample_1_0011.png,,,,,,,,,,,,,,,,,,,,,,,0,0,0,0,0,3,3,3,,,,,,,,,,,,,,j,13,B,A,27,0,Incorrect!,4.139064800023334,560.4961021000054,None,560.4961021000054,None,564.662424899987,None,,,,,108,001,2023-10-10_11h18.02.138,uncolored_sorted,2021.2.3,60.00085201509375,
C:\Users\subject\Desktop\SVRT Experiments\SVRT Experiment 3\svrt_images\generated_images\results_problem_13,C:\Users\subject\Desktop\SVRT Experiments\SVRT Experiment 3\svrt_images\generated_images\results_problem_13\sample_1_0010.png,,,,,,,,,,,,,,,,,,,,,,,0,0,0,0,0,4,4,4,,,,,,,,,,,,,,f,13,A,A,27,1,Correct!,3.483409699983895,565.6957006999874,None,565.6957006999874,None,569.2121144999983,None,,,,,108,001,2023-10-10_11h18.02.138,uncolored_sorted,2021.2.3,60.00085201509375,
C:\Users\subject\Desktop\SVRT Experiments\SVRT Experiment 3\svrt_images\generated_images\results_problem_13,C:\Users\subject\Desktop\SVRT Experiments\SVRT Experiment 3\svrt_images\generated_images\results_problem_13\sample_1_0007.png,,,,,,,,,,,,,,,,,,,,,,,0,0,0,0,0,5,5,5,,,,,,,,,,,,,,f,13,A,A,27,1,Correct!,0.9336620999965817,570.2453797000053,None,570.2453797000053,None,571.2120528999949,None,,,,,108,001,2023-10-10_11h18.02.138,uncolored_sorted,2021.2.3,60.00085201509375,
C:\Users\subject\Desktop\SVRT Experiments\SVRT Experiment 3\svrt_images\generated_images\results_problem_13,C:\Users\subject\Desktop\SVRT Experiments\SVRT Experiment 3\svrt_images\generated_images\results_problem_13\sample_1_0009.png,,,,,,,,,,,,,,,,,,,,,,,0,0,0,0,0,6,6,6,,,,,,,,,,,,,,f,13,A,A,27,1,Correct!,0.7570938999997452,572.2619672000001,None,572.2619672000001,None,573.0452021000092,None,,,,,108,001,2023-10-10_11h18.02.138,uncolored_sorted,2021.2.3,60.00085201509375,
C:\Users\subject\Desktop\SVRT Experiments\SVRT Experiment 3\svrt_images\generated_images\results_problem_13,C:\Users\subject\Desktop\SVRT Experiments\SVRT Experiment 3\svrt_images\generated_images\results_problem_13\sample_1_0002.png,,,,,,,,,,,,,,,,,,,,,,,0,0,0,0,0,7,7,7,,,,,,,,,,,,,,f,13,A,A,27,1,Correct!,0.8113105999946129,574.1118308999867,None,574.1118308999867,None,574.9449919000035,None,,,,,108,001,2023-10-10_11h18.02.138,uncolored_sorted,2021.2.3,60.00085201509375,
C:\Users\subject\Desktop\SVRT Experiments\SVRT Experiment 3\svrt_images\generated_images\results_problem_13,C:\Users\subject\Desktop\SVRT Experiments\SVRT Experiment 3\svrt_images\generated_images\results_problem_13\sample_1_0003.png,,,,,,,,,,,,,,,,,,,,,,,0,0,0,0,0,8,8,8,,,,,,,,,,,,,,j,13,B,A,27,0,Incorrect!,2.4954720999812707,576.0116514999827,None,576.0116514999827,None,578.5281947999902,None,,,,,108,001,2023-10-10_11h18.02.138,uncolored_sorted,2021.2.3,60.00085201509375,
C:\Users\subject\Desktop\SVRT Experiments\SVRT Experiment 3\svrt_images\generated_images\results_problem_13,C:\Users\subject\Desktop\SVRT Experiments\SVRT Experiment 3\svrt_images\generated_images\results_problem_13\sample_0_0006.png,,,,,,,,,,,,,,,,,,,,,,,0,0,0,0,0,9,9,9,,,,,,,,,,,,,,j,13,B,B,27,1,Correct!,4.160353999992367,579.5948197999969,None,579.5948197999969,None,583.7778760000074,None,,,,,108,001,2023-10-10_11h18.02.138,uncolored_sorted,2021.2.3,60.00085201509375,
C:\Users\subject\Desktop\SVRT Experiments\SVRT Experiment 3\svrt_images\generated_images\results_problem_13,C:\Users\subject\Desktop\SVRT Experiments\SVRT Experiment 3\svrt_images\generated_images\results_problem_13\sample_0_0007.png,,,,,,,,,,,,,,,,,,,,,,,0,0,0,0,0,10,10,10,,,,,,,,,,,,,,f,13,A,B,27,0,Incorrect!,2.2066720000002533,584.844462899986,None,584.844462899986,None,587.0774817999918,None,,,,,108,001,2023-10-10_11h18.02.138,uncolored_sorted,2021.2.3,60.00085201509375,
C:\Users\subject\Desktop\SVRT Experiments\SVRT Experiment 3\svrt_images\generated_images\results_problem_13,C:\Users\subject\Desktop\SVRT Experiments\SVRT Experiment 3\svrt_images\generated_images\results_problem_13\sample_1_0013.png,,,,,,,,,,,,,,,,,,,,,,,0,0,0,0,0,11,11,11,,,,,,,,,,,,,,f,13,A,A,27,1,Correct!,2.842349699989427,588.1607365999953,None,588.1607365999953,None,591.0272277999902,None,,,,,108,001,2023-10-10_11h18.02.138,uncolored_sorted,2021.2.3,60.00085201509375,
C:\Users\subject\Desktop\SVRT Experiments\SVRT Experiment 3\svrt_images\generated_images\results_problem_13,C:\Users\subject\Desktop\SVRT Experiments\SVRT Experiment 3\svrt_images\generated_images\results_problem_13\sample_0_0011.png,,,,,,,,,,,,,,,,,,,,,,,0,0,0,0,0,12,12,12,,,,,,,,,,,,,,j,13,B,B,27,1,Correct!,8.124674799997592,592.1104555999918,None,592.1104555999918,None,600.2599979999941,None,,,,,108,001,2023-10-10_11h18.02.138,uncolored_sorted,2021.2.3,60.00085201509375,
C:\Users\subject\Desktop\SVRT Experiments\SVRT Experiment 3\svrt_images\generated_images\results_problem_13,C:\Users\subject\Desktop\SVRT Experiments\SVRT Experiment 3\svrt_images\generated_images\results_problem_13\sample_0_0000.png,,,,,,,,,,,,,,,,,,,,,,,0,0,0,0,0,13,13,13,,,,,,,,,,,,,,j,13,B,B,27,1,Correct!,1.243733199982671,601.3432814999833,None,601.3432814999833,None,602.6098436999891,None,,,,,108,001,2023-10-10_11h18.02.138,uncolored_sorted,2021.2.3,60.00085201509375,
C:\Users\subject\Desktop\SVRT Experiments\SVRT Experiment 3\svrt_images\generated_images\results_problem_13,C:\Users\subject\Desktop\SVRT Experiments\SVRT Experiment 3\svrt_images\generated_images\results_problem_13\sample_1_0014.png,,,,,,,,,,,,,,,,,,,,,,,0,0,0,0,0,14,14,14,,,,,,,,,,,,,,f,13,A,A,27,1,Correct!,1.341219900001306,603.7099655999918,None,603.7099655999918,None,605.093203700002,None,,,,,108,001,2023-10-10_11h18.02.138,uncolored_sorted,2021.2.3,60.00085201509375,
C:\Users\subject\Desktop\SVRT Experiments\SVRT Experiment 3\svrt_images\generated_images\results_problem_13,C:\Users\subject\Desktop\SVRT Experiments\SVRT Experiment 3\svrt_images\generated_images\results_problem_13\sample_1_0005.png,,,,,,,,,,,,,,,,,,,,,,,0,0,0,0,0,15,15,15,,,,,,,,,,,,,,j,13,B,A,27,0,Incorrect!,1.497307199984789,606.2097854999884,None,606.2097854999884,None,607.7263832000026,None,,,,,108,001,2023-10-10_11h18.02.138,uncolored_sorted,2021.2.3,60.00085201509375,
C:\Users\subject\Desktop\SVRT Experiments\SVRT Experiment 3\svrt_images\generated_images\results_problem_13,C:\Users\subject\Desktop\SVRT Experiments\SVRT Experiment 3\svrt_images\generated_images\results_problem_13\sample_1_0001.png,,,,,,,,,,,,,,,,,,,,,,,0,0,0,0,0,16,16,16,,,,,,,,,,,,,,f,13,A,A,27,1,Correct!,1.360097799974028,608.8429717999825,None,608.8429717999825,None,610.2262183999992,None,,,,,108,001,2023-10-10_11h18.02.138,uncolored_sorted,2021.2.3,60.00085201509375,
C:\Users\subject\Desktop\SVRT Experiments\SVRT Experiment 3\svrt_images\generated_images\results_problem_13,C:\Users\subject\Desktop\SVRT Experiments\SVRT Experiment 3\svrt_images\generated_images\results_problem_13\sample_0_0005.png,,,,,,,,,,,,,,,,,,,,,,,0,0,0,0,0,17,17,17,,,,,,,,,,,,,,j,13,B,B,27,1,Correct!,1.228156900004251,611.3428261000081,None,611.3428261000081,None,612.592748199997,None,,,,,108,001,2023-10-10_11h18.02.138,uncolored_sorted,2021.2.3,60.00085201509375,
C:\Users\subject\Desktop\SVRT Experiments\SVRT Experiment 3\svrt_images\generated_images\results_problem_13,C:\Users\subject\Desktop\SVRT Experiments\SVRT Experiment 3\svrt_images\generated_images\results_problem_13\sample_1_0012.png,,,,,,,,,,,,,,,,,,,,,,,0,0,0,0,0,18,18,18,,,,,,,,,,,,,,f,13,A,A,27,1,Correct!,0.8931451000098605,613.7260412999894,None,613.7260412999894,None,614.6426162999996,None,,,,,108,001,2023-10-10_11h18.02.138,uncolored_sorted,2021.2.3,60.00085201509375,
C:\Users\subject\Desktop\SVRT Experiments\SVRT Experiment 3\svrt_images\generated_images\results_problem_13,C:\Users\subject\Desktop\SVRT Experiments\SVRT Experiment 3\svrt_images\generated_images\results_problem_13\sample_0_0014.png,,,,,,,,,,,,,,,,,,,,,,,0,0,0,0,0,19,19,19,,,,,,,,,,,,,,j,13,B,B,27,1,Correct!,1.3391526000050362,615.7758780999866,None,615.7758780999866,None,617.1591181999829,None,,,,,108,001,2023-10-10_11h18.02.138,uncolored_sorted,2021.2.3,60.00085201509375,
C:\Users\subject\Desktop\SVRT Experiments\SVRT Experiment 3\svrt_images\generated_images\results_problem_13,C:\Users\subject\Desktop\SVRT Experiments\SVRT Experiment 3\svrt_images\generated_images\results_problem_13\sample_1_0008.png,,,,,,,,,,,,,,,,,,,,,,,0,0,0,0,0,20,20,20,,,,,,,,,,,,,,f,13,A,A,27,1,Correct!,0.9021342000050936,618.3090604000026,None,618.3090604000026,None,619.2590303999896,None,,,,,108,001,2023-10-10_11h18.02.138,uncolored_sorted,2021.2.3,60.00085201509375,
C:\Users\subject\Desktop\SVRT Experiments\SVRT Experiment 3\svrt_images\generated_images\results_problem_13,C:\Users\subject\Desktop\SVRT Experiments\SVRT Experiment 3\svrt_images\generated_images\results_problem_13\sample_0_0002.png,,,,,,,,,,,,,,,,,,,,,,,0,0,0,0,0,21,21,21,,,,,,,,,,,,,,j,13,B,B,27,1,Correct!,1.9061535999935586,620.4089345000102,None,620.4089345000102,None,622.342127699987,None,,,,,108,001,2023-10-10_11h18.02.138,uncolored_sorted,2021.2.3,60.00085201509375,
C:\Users\subject\Desktop\SVRT Experiments\SVRT Experiment 3\svrt_images\generated_images\results_problem_13,C:\Users\subject\Desktop\SVRT Experiments\SVRT Experiment 3\svrt_images\generated_images\results_problem_13\sample_0_0003.png,,,,,,,,,,,,,,,,,,,,,,,0,0,0,0,0,22,22,22,,,,,,,,,,,,,,f,13,A,B,27,0,Incorrect!,1.3024143000075128,623.5087261000008,None,623.5087261000008,None,624.8753349999897,None,,,,,108,001,2023-10-10_11h18.02.138,uncolored_sorted,2021.2.3,60.00085201509375,
C:\Users\subject\Desktop\SVRT Experiments\SVRT Experiment 3\svrt_images\generated_images\results_problem_13,C:\Users\subject\Desktop\SVRT Experiments\SVRT Experiment 3\svrt_images\generated_images\results_problem_13\sample_0_0010.png,,,,,,,,,,,,,,,,,,,,,,,0,0,0,0,0,23,23,23,,,,,,,,,,,,,,j,13,B,B,27,1,Correct!,2.4973546999972314,626.0417281999835,None,626.0417281999835,None,628.5584219000011,None,,,,,108,001,2023-10-10_11h18.02.138,uncolored_sorted,2021.2.3,60.00085201509375,
C:\Users\subject\Desktop\SVRT Experiments\SVRT Experiment 3\svrt_images\generated_images\results_problem_13,C:\Users\subject\Desktop\SVRT Experiments\SVRT Experiment 3\svrt_images\generated_images\results_problem_13\sample_0_0015.png,,,,,,,,,,,,,,,,,,,,,,,0,0,0,0,0,24,24,24,,,,,,,,,,,,,,j,13,B,B,27,1,Correct!,0.8615347000013571,629.741675199999,None,629.741675199999,None,630.6582916000043,None,,,,,108,001,2023-10-10_11h18.02.138,uncolored_sorted,2021.2.3,60.00085201509375,
C:\Users\subject\Desktop\SVRT Experiments\SVRT Experiment 3\svrt_images\generated_images\results_problem_13,C:\Users\subject\Desktop\SVRT Experiments\SVRT Experiment 3\svrt_images\generated_images\results_problem_13\sample_0_0016.png,,,,,,,,,,,,,,,,,,,,,,,0,0,0,0,0,25,25,25,,,,,,,,,,,,,,j,13,B,B,27,1,Correct!,5.481736899993848,631.8413800999988,None,631.8413800999988,None,637.3578875999956,None,,,,,108,001,2023-10-10_11h18.02.138,uncolored_sorted,2021.2.3,60.00085201509375,
C:\Users\subject\Desktop\SVRT Experiments\SVRT Experiment 3\svrt_images\generated_images\results_problem_13,C:\Users\subject\Desktop\SVRT Experiments\SVRT Experiment 3\svrt_images\generated_images\results_problem_13\sample_0_0012.png,,,,,,,,,,,,,,,,,,,,,,,0,0,0,0,0,26,26,26,,,,,,,,,,,,,,j,13,B,B,27,1,Correct!,1.4853102000197396,638.5578152000089,None,638.5578152000089,None,640.0743866999983,None,,,,,108,001,2023-10-10_11h18.02.138,uncolored_sorted,2021.2.3,60.00085201509375,
C:\Users\subject\Desktop\SVRT Experiments\SVRT Experiment 3\svrt_images\generated_images\results_problem_13,C:\Users\subject\Desktop\SVRT Experiments\SVRT Experiment 3\svrt_images\generated_images\results_problem_13\sample_0_0004.png,,,,,,,,,,,,,,,,,,,,,,,0,0,0,0,0,27,27,27,,,,,,,,,,,,,,f,13,A,B,27,0,Incorrect!,1.0881821000075433,641.2909757999878,None,641.2909757999878,None,642.4075766000024,None,,,,,108,001,2023-10-10_11h18.02.138,uncolored_sorted,2021.2.3,60.00085201509375,
C:\Users\subject\Desktop\SVRT Experiments\SVRT Experiment 3\svrt_images\generated_images\results_problem_13,C:\Users\subject\Desktop\SVRT Experiments\SVRT Experiment 3\svrt_images\generated_images\results_problem_13\sample_0_0001.png,,,,,,,,,,,,,,,,,,,,,,,0,0,0,0,0,28,28,28,,,,,,,,,,,,,,f,13,A,B,27,0,Incorrect!,1.4110529000172392,643.6241528999817,None,643.6241528999817,None,645.1074062999978,None,,,,,108,001,2023-10-10_11h18.02.138,uncolored_sorted,2021.2.3,60.00085201509375,
C:\Users\subject\Desktop\SVRT Experiments\SVRT Experiment 3\svrt_images\generated_images\results_problem_13,C:\Users\subject\Desktop\SVRT Experiments\SVRT Experiment 3\svrt_images\generated_images\results_problem_13\sample_0_0009.png,,,,,,,,,,,,,,,,,,,,,,,0,0,0,0,0,29,29,29,,,,,,,,,,,,,,f,13,A,B,27,0,Incorrect!,1.3025152999907732,646.3406631999824,None,646.3406631999824,None,647.6906193000032,None,,,,,108,001,2023-10-10_11h18.02.138,uncolored_sorted,2021.2.3,60.00085201509375,
C:\Users\subject\Desktop\SVRT Experiments\SVRT Experiment 3\svrt_images\generated_images\results_problem_13,C:\Users\subject\Desktop\SVRT Experiments\SVRT Experiment 3\svrt_images\generated_images\results_problem_13\sample_1_0000.png,,,,,,,,,,,,,,,,,,,,,,,0,0,0,0,0,30,30,30,,,,,,,,,,,,,,f,13,A,A,27,1,Correct!,1.7586273000051733,648.9405097999843,None,648.9405097999843,None,650.7570904000022,None,,,,,108,001,2023-10-10_11h18.02.138,uncolored_sorted,2021.2.3,60.00085201509375,
C:\Users\subject\Desktop\SVRT Experiments\SVRT Experiment 3\svrt_images\generated_images\results_problem_13,C:\Users\subject\Desktop\SVRT Experiments\SVRT Experiment 3\svrt_images\generated_images\results_problem_13\sample_0_0013.png,,,,,,,,,,,,,,,,,,,,,,,0,0,0,0,0,31,31,31,,,,,,,,,,,,,,j,13,B,B,27,1,Correct!,15.396287600015057,652.0068132999877,None,652.0068132999877,None,667.4227054000075,None,,,,,108,001,2023-10-10_11h18.02.138,uncolored_sorted,2021.2.3,60.00085201509375,
C:\Users\subject\Desktop\SVRT Experiments\SVRT Experiment 3\svrt_images\generated_images\results_problem_13,C:\Users\subject\Desktop\SVRT Experiments\SVRT Experiment 3\svrt_images\generated_images\results_problem_13\sample_1_0016.png,,,,,,,,,,,,,,,,,,,,,,,0,0,0,0,0,32,32,32,,,,,,,,,,,,,,f,13,A,A,27,1,Correct!,1.0825436000013724,668.6726293999818,None,668.6726293999818,None,669.77257500001,None,,,,,108,001,2023-10-10_11h18.02.138,uncolored_sorted,2021.2.3,60.00085201509375,
C:\Users\subject\Desktop\SVRT Experiments\SVRT Experiment 3\svrt_images\generated_images\results_problem_13,C:\Users\subject\Desktop\SVRT Experiments\SVRT Experiment 3\svrt_images\generated_images\results_problem_13\sample_1_0015.png,,,,,,,,,,,,,,,,,,,,,,,0,0,0,0,0,33,33,33,,,,,,,,,,,,,,f,13,A,A,27,1,Correct!,1.0352285999979358,671.0558750999917,None,671.0558750999917,None,672.1225222999929,None,,,,,108,001,2023-10-10_11h18.02.138,uncolored_sorted,2021.2.3,60.00085201509375,
C:\Users\subject\Desktop\SVRT Experiments\SVRT Experiment 3\svrt_images\generated_images\results_problem_13,,,,,,,,,,,,,,,,,,,,,,,,0,0,0,0,,,,,,,,,,,,,,,,,,,,,,,,,,,,,,,,673.1223760999856,673.1223760999856,space,2.712743199983379,108,001,2023-10-10_11h18.02.138,uncolored_sorted,2021.2.3,60.00085201509375,
C:\Users\subject\Desktop\SVRT Experiments\SVRT Experiment 3\svrt_images\generated_images\results_problem_6,,C:\Users\subject\Desktop\SVRT Experiments\SVRT Experiment 3\svrt_images\generated_images\results_problem_6\sample_1_0011.png,,,,,,,,,,,,,,,,,,,,,,0,1,1,1,0,0,0,0,,,,,,,,,,,,,,f,6,A,A,27,1,Correct!,4.779673200013349,675.8555272000085,None,675.8555272000085,None,680.6552437999926,None,,,,,108,001,2023-10-10_11h18.02.138,uncolored_sorted,2021.2.3,60.00085201509375,
C:\Users\subject\Desktop\SVRT Experiments\SVRT Experiment 3\svrt_images\generated_images\results_problem_6,,C:\Users\subject\Desktop\SVRT Experiments\SVRT Experiment 3\svrt_images\generated_images\results_problem_6\sample_0_0003.png,,,,,,,,,,,,,,,,,,,,,,0,1,1,1,0,1,1,1,,,,,,,,,,,,,,j,6,B,B,27,1,Correct!,3.971945199999027,681.6552207999921,None,681.6552207999921,None,685.654962200002,None,,,,,108,001,2023-10-10_11h18.02.138,uncolored_sorted,2021.2.3,60.00085201509375,
C:\Users\subject\Desktop\SVRT Experiments\SVRT Experiment 3\svrt_images\generated_images\results_problem_6,,C:\Users\subject\Desktop\SVRT Experiments\SVRT Experiment 3\svrt_images\generated_images\results_problem_6\sample_1_0014.png,,,,,,,,,,,,,,,,,,,,,,0,1,1,1,0,2,2,2,,,,,,,,,,,,,,j,6,B,A,27,0,Incorrect!,1.675564699980896,686.6715977999847,None,686.6715977999847,None,688.3714602999971,None,,,,,108,001,2023-10-10_11h18.02.138,uncolored_sorted,2021.2.3,60.00085201509375,
C:\Users\subject\Desktop\SVRT Experiments\SVRT Experiment 3\svrt_images\generated_images\results_problem_6,,C:\Users\subject\Desktop\SVRT Experiments\SVRT Experiment 3\svrt_images\generated_images\results_problem_6\sample_0_0001.png,,,,,,,,,,,,,,,,,,,,,,0,1,1,1,0,3,3,3,,,,,,,,,,,,,,j,6,B,B,27,1,Correct!,1.3430785000091419,689.3880847999826,None,689.3880847999826,None,690.754637200007,None,,,,,108,001,2023-10-10_11h18.02.138,uncolored_sorted,2021.2.3,60.00085201509375,
C:\Users\subject\Desktop\SVRT Experiments\SVRT Experiment 3\svrt_images\generated_images\results_problem_6,,C:\Users\subject\Desktop\SVRT Experiments\SVRT Experiment 3\svrt_images\generated_images\results_problem_6\sample_0_0006.png,,,,,,,,,,,,,,,,,,,,,,0,1,1,1,0,4,4,4,,,,,,,,,,,,,,j,6,B,B,27,1,Correct!,3.4401176999963354,691.7710944999999,None,691.7710944999999,None,695.2378692000057,None,,,,,108,001,2023-10-10_11h18.02.138,uncolored_sorted,2021.2.3,60.00085201509375,
C:\Users\subject\Desktop\SVRT Experiments\SVRT Experiment 3\svrt_images\generated_images\results_problem_6,,C:\Users\subject\Desktop\SVRT Experiments\SVRT Experiment 3\svrt_images\generated_images\results_problem_6\sample_1_0000.png,,,,,,,,,,,,,,,,,,,,,,0,1,1,1,0,5,5,5,,,,,,,,,,,,,,f,6,A,A,27,1,Correct!,1.5321017000242136,696.2711442,None,696.2711442,None,697.8208005999913,None,,,,,108,001,2023-10-10_11h18.02.138,uncolored_sorted,2021.2.3,60.00085201509375,
C:\Users\subject\Desktop\SVRT Experiments\SVRT Experiment 3\svrt_images\generated_images\results_problem_6,,C:\Users\subject\Desktop\SVRT Experiments\SVRT Experiment 3\svrt_images\generated_images\results_problem_6\sample_0_0004.png,,,,,,,,,,,,,,,,,,,,,,0,1,1,1,0,6,6,6,,,,,,,,,,,,,,j,6,B,B,27,1,Correct!,1.684414299990749,698.8707507000072,None,698.8707507000072,None,700.5873184000084,None,,,,,108,001,2023-10-10_11h18.02.138,uncolored_sorted,2021.2.3,60.00085201509375,
C:\Users\subject\Desktop\SVRT Experiments\SVRT Experiment 3\svrt_images\generated_images\results_problem_6,,C:\Users\subject\Desktop\SVRT Experiments\SVRT Experiment 3\svrt_images\generated_images\results_problem_6\sample_1_0010.png,,,,,,,,,,,,,,,,,,,,,,0,1,1,1,0,7,7,7,,,,,,,,,,,,,,f,6,A,A,27,1,Correct!,1.3499948999960907,701.637247799983,None,701.637247799983,None,703.0204636999988,None,,,,,108,001,2023-10-10_11h18.02.138,uncolored_sorted,2021.2.3,60.00085201509375,
C:\Users\subject\Desktop\SVRT Experiments\SVRT Experiment 3\svrt_images\generated_images\results_problem_6,,C:\Users\subject\Desktop\SVRT Experiments\SVRT Experiment 3\svrt_images\generated_images\results_problem_6\sample_0_0002.png,,,,,,,,,,,,,,,,,,,,,,0,1,1,1,0,8,8,8,,,,,,,,,,,,,,j,6,B,B,27,1,Correct!,5.284133900015149,704.0870849000057,None,704.0870849000057,None,709.4035294000059,None,,,,,108,001,2023-10-10_11h18.02.138,uncolored_sorted,2021.2.3,60.00085201509375,
C:\Users\subject\Desktop\SVRT Experiments\SVRT Experiment 3\svrt_images\generated_images\results_problem_6,,C:\Users\subject\Desktop\SVRT Experiments\SVRT Experiment 3\svrt_images\generated_images\results_problem_6\sample_0_0011.png,,,,,,,,,,,,,,,,,,,,,,0,1,1,1,0,9,9,9,,,,,,,,,,,,,,f,6,A,B,27,0,Incorrect!,2.741087600006722,710.4700951999985,None,710.4700951999985,None,713.2364467000007,None,,,,,108,001,2023-10-10_11h18.02.138,uncolored_sorted,2021.2.3,60.00085201509375,
C:\Users\subject\Desktop\SVRT Experiments\SVRT Experiment 3\svrt_images\generated_images\results_problem_6,,C:\Users\subject\Desktop\SVRT Experiments\SVRT Experiment 3\svrt_images\generated_images\results_problem_6\sample_1_0007.png,,,,,,,,,,,,,,,,,,,,,,0,1,1,1,0,10,10,10,,,,,,,,,,,,,,j,6,B,A,27,0,Incorrect!,2.731938099983381,714.3032408999861,None,714.3032408999861,None,717.0529001000104,None,,,,,108,001,2023-10-10_11h18.02.138,uncolored_sorted,2021.2.3,60.00085201509375,
C:\Users\subject\Desktop\SVRT Experiments\SVRT Experiment 3\svrt_images\generated_images\results_problem_6,,C:\Users\subject\Desktop\SVRT Experiments\SVRT Experiment 3\svrt_images\generated_images\results_problem_6\sample_1_0002.png,,,,,,,,,,,,,,,,,,,,,,0,1,1,1,0,11,11,11,,,,,,,,,,,,,,f,6,A,A,27,1,Correct!,0.9957926000060979,718.1194565999904,None,718.1194565999904,None,719.1363289000001,None,,,,,108,001,2023-10-10_11h18.02.138,uncolored_sorted,2021.2.3,60.00085201509375,
C:\Users\subject\Desktop\SVRT Experiments\SVRT Experiment 3\svrt_images\generated_images\results_problem_6,,C:\Users\subject\Desktop\SVRT Experiments\SVRT Experiment 3\svrt_images\generated_images\results_problem_6\sample_1_0009.png,,,,,,,,,,,,,,,,,,,,,,0,1,1,1,0,12,12,12,,,,,,,,,,,,,,f,6,A,A,27,1,Correct!,1.2638316999946255,720.2193728999991,None,720.2193728999991,None,721.5026250999945,None,,,,,108,001,2023-10-10_11h18.02.138,uncolored_sorted,2021.2.3,60.00085201509375,
C:\Users\subject\Desktop\SVRT Experiments\SVRT Experiment 3\svrt_images\generated_images\results_problem_6,,C:\Users\subject\Desktop\SVRT Experiments\SVRT Experiment 3\svrt_images\generated_images\results_problem_6\sample_1_0004.png,,,,,,,,,,,,,,,,,,,,,,0,1,1,1,0,13,13,13,,,,,,,,,,,,,,f,6,A,A,27,1,Correct!,1.2653399000118952,722.5858926000074,None,722.5858926000074,None,723.8693385999941,None,,,,,108,001,2023-10-10_11h18.02.138,uncolored_sorted,2021.2.3,60.00085201509375,
C:\Users\subject\Desktop\SVRT Experiments\SVRT Experiment 3\svrt_images\generated_images\results_problem_6,,C:\Users\subject\Desktop\SVRT Experiments\SVRT Experiment 3\svrt_images\generated_images\results_problem_6\sample_0_0014.png,,,,,,,,,,,,,,,,,,,,,,0,1,1,1,0,14,14,14,,,,,,,,,,,,,,j,6,B,B,27,1,Correct!,0.9138002000108827,724.969291699992,None,724.969291699992,None,725.9191990999971,None,,,,,108,001,2023-10-10_11h18.02.138,uncolored_sorted,2021.2.3,60.00085201509375,
C:\Users\subject\Desktop\SVRT Experiments\SVRT Experiment 3\svrt_images\generated_images\results_problem_6,,C:\Users\subject\Desktop\SVRT Experiments\SVRT Experiment 3\svrt_images\generated_images\results_problem_6\sample_1_0015.png,,,,,,,,,,,,,,,,,,,,,,0,1,1,1,0,15,15,15,,,,,,,,,,,,,,f,6,A,A,27,1,Correct!,0.8312960999901406,727.0357921999821,None,727.0357921999821,None,727.8857447000046,None,,,,,108,001,2023-10-10_11h18.02.138,uncolored_sorted,2021.2.3,60.00085201509375,
C:\Users\subject\Desktop\SVRT Experiments\SVRT Experiment 3\svrt_images\generated_images\results_problem_6,,C:\Users\subject\Desktop\SVRT Experiments\SVRT Experiment 3\svrt_images\generated_images\results_problem_6\sample_1_0006.png,,,,,,,,,,,,,,,,,,,,,,0,1,1,1,0,16,16,16,,,,,,,,,,,,,,f,6,A,A,27,1,Correct!,1.1527614000078756,729.002344699984,None,729.002344699984,None,730.1856151999964,None,,,,,108,001,2023-10-10_11h18.02.138,uncolored_sorted,2021.2.3,60.00085201509375,
C:\Users\subject\Desktop\SVRT Experiments\SVRT Experiment 3\svrt_images\generated_images\results_problem_6,,C:\Users\subject\Desktop\SVRT Experiments\SVRT Experiment 3\svrt_images\generated_images\results_problem_6\sample_0_0015.png,,,,,,,,,,,,,,,,,,,,,,0,1,1,1,0,17,17,17,,,,,,,,,,,,,,j,6,B,B,27,1,Correct!,1.044297100015683,731.3188852999883,None,731.3188852999883,None,732.4021516999928,None,,,,,108,001,2023-10-10_11h18.02.138,uncolored_sorted,2021.2.3,60.00085201509375,
C:\Users\subject\Desktop\SVRT Experiments\SVRT Experiment 3\svrt_images\generated_images\results_problem_6,,C:\Users\subject\Desktop\SVRT Experiments\SVRT Experiment 3\svrt_images\generated_images\results_problem_6\sample_0_0012.png,,,,,,,,,,,,,,,,,,,,,,0,1,1,1,0,18,18,18,,,,,,,,,,,,,,,,,,,,,,,,,,,,733.4020998000051,733.4020998000051,space,1.5371335000090767,108,001,2023-10-10_11h18.02.138,uncolored_sorted,2021.2.3,60.00085201509375,
C:\Users\subject\Desktop\SVRT Experiments\SVRT Experiment 3\svrt_images\generated_images\results_problem_17,,C:\Users\subject\Desktop\SVRT Experiments\SVRT Experiment 3\svrt_images\generated_images\results_problem_6\sample_0_0012.png,C:\Users\subject\Desktop\SVRT Experiments\SVRT Experiment 3\svrt_images\generated_images\results_problem_17\sample_1_0008.png,,,,,,,,,,,,,,,,,,,,,0,2,2,2,0,0,0,0,,,,,,,,,,,,,,f,17,A,A,27,1,Correct!,2.69043689998216,734.9686657999991,None,734.9686657999991,None,737.6851640999957,None,,,,,108,001,2023-10-10_11h18.02.138,uncolored_sorted,2021.2.3,60.00085201509375,
C:\Users\subject\Desktop\SVRT Experiments\SVRT Experiment 3\svrt_images\generated_images\results_problem_17,,C:\Users\subject\Desktop\SVRT Experiments\SVRT Experiment 3\svrt_images\generated_images\results_problem_6\sample_0_0012.png,C:\Users\subject\Desktop\SVRT Experiments\SVRT Experiment 3\svrt_images\generated_images\results_problem_17\sample_1_0013.png,,,,,,,,,,,,,,,,,,,,,0,2,2,2,0,1,1,1,,,,,,,,,,,,,,j,17,B,A,27,0,Incorrect!,2.765542800014373,738.7017732000095,None,738.7017732000095,None,741.4849414000055,None,,,,,108,001,2023-10-10_11h18.02.138,uncolored_sorted,2021.2.3,60.00085201509375,
C:\Users\subject\Desktop\SVRT Experiments\SVRT Experiment 3\svrt_images\generated_images\results_problem_17,,C:\Users\subject\Desktop\SVRT Experiments\SVRT Experiment 3\svrt_images\generated_images\results_problem_6\sample_0_0012.png,C:\Users\subject\Desktop\SVRT Experiments\SVRT Experiment 3\svrt_images\generated_images\results_problem_17\sample_1_0005.png,,,,,,,,,,,,,,,,,,,,,0,2,2,2,0,2,2,2,,,,,,,,,,,,,,f,17,A,A,27,1,Correct!,2.8696377000014763,742.5015416000097,None,742.5015416000097,None,745.4015745999932,None,,,,,108,001,2023-10-10_11h18.02.138,uncolored_sorted,2021.2.3,60.00085201509375,
C:\Users\subject\Desktop\SVRT Experiments\SVRT Experiment 3\svrt_images\generated_images\results_problem_17,,C:\Users\subject\Desktop\SVRT Experiments\SVRT Experiment 3\svrt_images\generated_images\results_problem_6\sample_0_0012.png,C:\Users\subject\Desktop\SVRT Experiments\SVRT Experiment 3\svrt_images\generated_images\results_problem_17\sample_0_0004.png,,,,,,,,,,,,,,,,,,,,,0,2,2,2,0,3,3,3,,,,,,,,,,,,,,f,17,A,B,27,0,Incorrect!,1.7842661000031512,746.4348643999838,None,746.4348643999838,None,748.2514454000047,None,,,,,108,001,2023-10-10_11h18.02.138,uncolored_sorted,2021.2.3,60.00085201509375,
C:\Users\subject\Desktop\SVRT Experiments\SVRT Experiment 3\svrt_images\generated_images\results_problem_17,,C:\Users\subject\Desktop\SVRT Experiments\SVRT Experiment 3\svrt_images\generated_images\results_problem_6\sample_0_0012.png,C:\Users\subject\Desktop\SVRT Experiments\SVRT Experiment 3\svrt_images\generated_images\results_problem_17\sample_1_0004.png,,,,,,,,,,,,,,,,,,,,,0,2,2,2,0,4,4,4,,,,,,,,,,,,,,j,17,B,A,27,0,Incorrect!,1.8785443999804556,749.2847196999937,None,749.2847196999937,None,751.1846080999821,None,,,,,108,001,2023-10-10_11h18.02.138,uncolored_sorted,2021.2.3,60.00085201509375,
C:\Users\subject\Desktop\SVRT Experiments\SVRT Experiment 3\svrt_images\generated_images\results_problem_17,,C:\Users\subject\Desktop\SVRT Experiments\SVRT Experiment 3\svrt_images\generated_images\results_problem_6\sample_0_0012.png,C:\Users\subject\Desktop\SVRT Experiments\SVRT Experiment 3\svrt_images\generated_images\results_problem_17\sample_0_0008.png,,,,,,,,,,,,,,,,,,,,,0,2,2,2,0,5,5,5,,,,,,,,,,,,,,f,17,A,B,27,0,Incorrect!,2.1446653000020888,752.2345507999999,None,752.2345507999999,None,754.4007819999824,None,,,,,108,001,2023-10-10_11h18.02.138,uncolored_sorted,2021.2.3,60.00085201509375,
C:\Users\subject\Desktop\SVRT Experiments\SVRT Experiment 3\svrt_images\generated_images\results_problem_17,,C:\Users\subject\Desktop\SVRT Experiments\SVRT Experiment 3\svrt_images\generated_images\results_problem_6\sample_0_0012.png,C:\Users\subject\Desktop\SVRT Experiments\SVRT Experiment 3\svrt_images\generated_images\results_problem_17\sample_0_0001.png,,,,,,,,,,,,,,,,,,,,,0,2,2,2,0,6,6,6,,,,,,,,,,,,,,f,17,A,B,27,0,Incorrect!,1.6964066999789793,755.4507195999904,None,755.4507195999904,None,757.1672785999835,None,,,,,108,001,2023-10-10_11h18.02.138,uncolored_sorted,2021.2.3,60.00085201509375,
C:\Users\subject\Desktop\SVRT Experiments\SVRT Experiment 3\svrt_images\generated_images\results_problem_17,,C:\Users\subject\Desktop\SVRT Experiments\SVRT Experiment 3\svrt_images\generated_images\results_problem_6\sample_0_0012.png,C:\Users\subject\Desktop\SVRT Experiments\SVRT Experiment 3\svrt_images\generated_images\results_problem_17\sample_0_0010.png,,,,,,,,,,,,,,,,,,,,,0,2,2,2,0,7,7,7,,,,,,,,,,,,,,j,17,B,B,27,1,Correct!,0.9452588999993168,758.2339120999968,None,758.2339120999968,None,759.2004601999943,None,,,,,108,001,2023-10-10_11h18.02.138,uncolored_sorted,2021.2.3,60.00085201509375,
C:\Users\subject\Desktop\SVRT Experiments\SVRT Experiment 3\svrt_images\generated_images\results_problem_17,,C:\Users\subject\Desktop\SVRT Experiments\SVRT Experiment 3\svrt_images\generated_images\results_problem_6\sample_0_0012.png,C:\Users\subject\Desktop\SVRT Experiments\SVRT Experiment 3\svrt_images\generated_images\results_problem_17\sample_1_0002.png,,,,,,,,,,,,,,,,,,,,,0,2,2,2,0,8,8,8,,,,,,,,,,,,,,j,17,B,A,27,0,Incorrect!,1.2801277000107802,760.2670762999915,None,760.2670762999915,None,761.5670761000074,None,,,,,108,001,2023-10-10_11h18.02.138,uncolored_sorted,2021.2.3,60.00085201509375,
C:\Users\subject\Desktop\SVRT Experiments\SVRT Experiment 3\svrt_images\generated_images\results_problem_17,,C:\Users\subject\Desktop\SVRT Experiments\SVRT Experiment 3\svrt_images\generated_images\results_problem_6\sample_0_0012.png,C:\Users\subject\Desktop\SVRT Experiments\SVRT Experiment 3\svrt_images\generated_images\results_problem_17\sample_1_0010.png,,,,,,,,,,,,,,,,,,,,,0,2,2,2,0,9,9,9,,,,,,,,,,,,,,j,17,B,A,27,0,Incorrect!,1.3944771999958903,762.6168368000071,None,762.6168368000071,None,764.0335961999954,None,,,,,108,001,2023-10-10_11h18.02.138,uncolored_sorted,2021.2.3,60.00085201509375,
C:\Users\subject\Desktop\SVRT Experiments\SVRT Experiment 3\svrt_images\generated_images\results_problem_17,,C:\Users\subject\Desktop\SVRT Experiments\SVRT Experiment 3\svrt_images\generated_images\results_problem_6\sample_0_0012.png,C:\Users\subject\Desktop\SVRT Experiments\SVRT Experiment 3\svrt_images\generated_images\results_problem_17\sample_0_0013.png,,,,,,,,,,,,,,,,,,,,,0,2,2,2,0,10,10,10,,,,,,,,,,,,,,f,17,A,B,27,0,Incorrect!,1.79110010000295,765.1000203999865,None,765.1000203999865,None,766.9166138999863,None,,,,,108,001,2023-10-10_11h18.02.138,uncolored_sorted,2021.2.3,60.00085201509375,
C:\Users\subject\Desktop\SVRT Experiments\SVRT Experiment 3\svrt_images\generated_images\results_problem_17,,C:\Users\subject\Desktop\SVRT Experiments\SVRT Experiment 3\svrt_images\generated_images\results_problem_6\sample_0_0012.png,C:\Users\subject\Desktop\SVRT Experiments\SVRT Experiment 3\svrt_images\generated_images\results_problem_17\sample_1_0006.png,,,,,,,,,,,,,,,,,,,,,0,2,2,2,0,11,11,11,,,,,,,,,,,,,,j,17,B,A,27,0,Incorrect!,1.4835025000211317,767.999865299993,None,767.999865299993,None,769.5164328999817,None,,,,,108,001,2023-10-10_11h18.02.138,uncolored_sorted,2021.2.3,60.00085201509375,
C:\Users\subject\Desktop\SVRT Experiments\SVRT Experiment 3\svrt_images\generated_images\results_problem_17,,C:\Users\subject\Desktop\SVRT Experiments\SVRT Experiment 3\svrt_images\generated_images\results_problem_6\sample_0_0012.png,C:\Users\subject\Desktop\SVRT Experiments\SVRT Experiment 3\svrt_images\generated_images\results_problem_17\sample_0_0014.png,,,,,,,,,,,,,,,,,,,,,0,2,2,2,0,12,12,12,,,,,,,,,,,,,,f,17,A,B,27,0,Incorrect!,1.0754913999990094,770.5997236999974,None,770.5997236999974,None,771.6998051999835,None,,,,,108,001,2023-10-10_11h18.02.138,uncolored_sorted,2021.2.3,60.00085201509375,
C:\Users\subject\Desktop\SVRT Experiments\SVRT Experiment 3\svrt_images\generated_images\results_problem_17,,C:\Users\subject\Desktop\SVRT Experiments\SVRT Experiment 3\svrt_images\generated_images\results_problem_6\sample_0_0012.png,C:\Users\subject\Desktop\SVRT Experiments\SVRT Experiment 3\svrt_images\generated_images\results_problem_17\sample_1_0015.png,,,,,,,,,,,,,,,,,,,,,0,2,2,2,0,13,13,13,,,,,,,,,,,,,,f,17,A,A,27,1,Correct!,1.1314031000074465,772.7997374999977,None,772.7997374999977,None,773.9496559999825,None,,,,,108,001,2023-10-10_11h18.02.138,uncolored_sorted,2021.2.3,60.00085201509375,
C:\Users\subject\Desktop\SVRT Experiments\SVRT Experiment 3\svrt_images\generated_images\results_problem_17,,C:\Users\subject\Desktop\SVRT Experiments\SVRT Experiment 3\svrt_images\generated_images\results_problem_6\sample_0_0012.png,C:\Users\subject\Desktop\SVRT Experiments\SVRT Experiment 3\svrt_images\generated_images\results_problem_17\sample_1_0016.png,,,,,,,,,,,,,,,,,,,,,0,2,2,2,0,14,14,14,,,,,,,,,,,,,,f,17,A,A,27,1,Correct!,1.136778999993112,775.0662628999853,None,775.0662628999853,None,776.2493938999833,None,,,,,108,001,2023-10-10_11h18.02.138,uncolored_sorted,2021.2.3,60.00085201509375,
C:\Users\subject\Desktop\SVRT Experiments\SVRT Experiment 3\svrt_images\generated_images\results_problem_17,,C:\Users\subject\Desktop\SVRT Experiments\SVRT Experiment 3\svrt_images\generated_images\results_problem_6\sample_0_0012.png,C:\Users\subject\Desktop\SVRT Experiments\SVRT Experiment 3\svrt_images\generated_images\results_problem_17\sample_0_0016.png,,,,,,,,,,,,,,,,,,,,,0,2,2,2,0,15,15,15,,,,,,,,,,,,,,f,17,A,B,27,0,Incorrect!,0.9004434999951627,777.3827853999974,None,777.3827853999974,None,778.3327329999884,None,,,,,108,001,2023-10-10_11h18.02.138,uncolored_sorted,2021.2.3,60.00085201509375,
C:\Users\subject\Desktop\SVRT Experiments\SVRT Experiment 3\svrt_images\generated_images\results_problem_17,,C:\Users\subject\Desktop\SVRT Experiments\SVRT Experiment 3\svrt_images\generated_images\results_problem_6\sample_0_0012.png,C:\Users\subject\Desktop\SVRT Experiments\SVRT Experiment 3\svrt_images\generated_images\results_problem_17\sample_0_0012.png,,,,,,,,,,,,,,,,,,,,,0,2,2,2,0,16,16,16,,,,,,,,,,,,,,f,17,A,B,27,0,Incorrect!,1.0258173999900464,779.4493351999845,None,779.4493351999845,None,780.4992713999818,None,,,,,108,001,2023-10-10_11h18.02.138,uncolored_sorted,2021.2.3,60.00085201509375,
C:\Users\subject\Desktop\SVRT Experiments\SVRT Experiment 3\svrt_images\generated_images\results_problem_17,,C:\Users\subject\Desktop\SVRT Experiments\SVRT Experiment 3\svrt_images\generated_images\results_problem_6\sample_0_0012.png,C:\Users\subject\Desktop\SVRT Experiments\SVRT Experiment 3\svrt_images\generated_images\results_problem_17\sample_1_0012.png,,,,,,,,,,,,,,,,,,,,,0,2,2,2,0,17,17,17,,,,,,,,,,,,,,f,17,A,A,27,1,Correct!,1.4986404000082985,781.6325461000088,None,781.6325461000088,None,783.1491071000055,None,,,,,108,001,2023-10-10_11h18.02.138,uncolored_sorted,2021.2.3,60.00085201509375,
C:\Users\subject\Desktop\SVRT Experiments\SVRT Experiment 3\svrt_images\generated_images\results_problem_17,,C:\Users\subject\Desktop\SVRT Experiments\SVRT Experiment 3\svrt_images\generated_images\results_problem_6\sample_0_0012.png,C:\Users\subject\Desktop\SVRT Experiments\SVRT Experiment 3\svrt_images\generated_images\results_problem_17\sample_1_0009.png,,,,,,,,,,,,,,,,,,,,,0,2,2,2,0,18,18,18,,,,,,,,,,,,,,f,17,A,A,27,1,Correct!,0.9121348000189755,784.2990866999899,None,784.2990866999899,None,785.2489082999818,None,,,,,108,001,2023-10-10_11h18.02.138,uncolored_sorted,2021.2.3,60.00085201509375,
C:\Users\subject\Desktop\SVRT Experiments\SVRT Experiment 3\svrt_images\generated_images\results_problem_17,,C:\Users\subject\Desktop\SVRT Experiments\SVRT Experiment 3\svrt_images\generated_images\results_problem_6\sample_0_0012.png,C:\Users\subject\Desktop\SVRT Experiments\SVRT Experiment 3\svrt_images\generated_images\results_problem_17\sample_1_0000.png,,,,,,,,,,,,,,,,,,,,,0,2,2,2,0,19,19,19,,,,,,,,,,,,,,f,17,A,A,27,1,Correct!,0.8122847000195179,786.3989301999973,None,786.3989301999973,None,787.2487417999946,None,,,,,108,001,2023-10-10_11h18.02.138,uncolored_sorted,2021.2.3,60.00085201509375,
C:\Users\subject\Desktop\SVRT Experiments\SVRT Experiment 3\svrt_images\generated_images\results_problem_17,,C:\Users\subject\Desktop\SVRT Experiments\SVRT Experiment 3\svrt_images\generated_images\results_problem_6\sample_0_0012.png,C:\Users\subject\Desktop\SVRT Experiments\SVRT Experiment 3\svrt_images\generated_images\results_problem_17\sample_0_0002.png,,,,,,,,,,,,,,,,,,,,,0,2,2,2,0,20,20,20,,,,,,,,,,,,,,j,17,B,B,27,1,Correct!,1.3564418000169098,788.398826699995,None,788.398826699995,None,789.7820586999878,None,,,,,108,001,2023-10-10_11h18.02.138,uncolored_sorted,2021.2.3,60.00085201509375,
C:\Users\subject\Desktop\SVRT Experiments\SVRT Experiment 3\svrt_images\generated_images\results_problem_17,,C:\Users\subject\Desktop\SVRT Experiments\SVRT Experiment 3\svrt_images\generated_images\results_problem_6\sample_0_0012.png,C:\Users\subject\Desktop\SVRT Experiments\SVRT Experiment 3\svrt_images\generated_images\results_problem_17\sample_1_0014.png,,,,,,,,,,,,,,,,,,,,,0,2,2,2,0,21,21,21,,,,,,,,,,,,,,f,17,A,A,27,1,Correct!,1.3984598999959417,790.9486878000025,None,790.9486878000025,None,792.3819289999956,None,,,,,108,001,2023-10-10_11h18.02.138,uncolored_sorted,2021.2.3,60.00085201509375,
C:\Users\subject\Desktop\SVRT Experiments\SVRT Experiment 3\svrt_images\generated_images\results_problem_17,,C:\Users\subject\Desktop\SVRT Experiments\SVRT Experiment 3\svrt_images\generated_images\results_problem_6\sample_0_0012.png,C:\Users\subject\Desktop\SVRT Experiments\SVRT Experiment 3\svrt_images\generated_images\results_problem_17\sample_1_0007.png,,,,,,,,,,,,,,,,,,,,,0,2,2,2,0,22,22,22,,,,,,,,,,,,,,j,17,B,A,27,0,Incorrect!,1.6626676000014413,793.5484931999817,None,793.5484931999817,None,795.2650505999918,None,,,,,108,001,2023-10-10_11h18.02.138,uncolored_sorted,2021.2.3,60.00085201509375,
C:\Users\subject\Desktop\SVRT Experiments\SVRT Experiment 3\svrt_images\generated_images\results_problem_17,,C:\Users\subject\Desktop\SVRT Experiments\SVRT Experiment 3\svrt_images\generated_images\results_problem_6\sample_0_0012.png,C:\Users\subject\Desktop\SVRT Experiments\SVRT Experiment 3\svrt_images\generated_images\results_problem_17\sample_0_0000.png,,,,,,,,,,,,,,,,,,,,,0,2,2,2,0,23,23,23,,,,,,,,,,,,,,f,17,A,B,27,0,Incorrect!,0.8749493999930564,796.4483233999927,None,796.4483233999927,None,797.3649356999958,None,,,,,108,001,2023-10-10_11h18.02.138,uncolored_sorted,2021.2.3,60.00085201509375,
C:\Users\subject\Desktop\SVRT Experiments\SVRT Experiment 3\svrt_images\generated_images\results_problem_17,,C:\Users\subject\Desktop\SVRT Experiments\SVRT Experiment 3\svrt_images\generated_images\results_problem_6\sample_0_0012.png,C:\Users\subject\Desktop\SVRT Experiments\SVRT Experiment 3\svrt_images\generated_images\results_problem_17\sample_0_0007.png,,,,,,,,,,,,,,,,,,,,,0,2,2,2,0,24,24,24,,,,,,,,,,,,,,j,17,B,B,27,1,Correct!,1.6383189000189304,798.5648679999867,None,798.5648679999867,None,800.2314394999994,None,,,,,108,001,2023-10-10_11h18.02.138,uncolored_sorted,2021.2.3,60.00085201509375,
C:\Users\subject\Desktop\SVRT Experiments\SVRT Experiment 3\svrt_images\generated_images\results_problem_17,,C:\Users\subject\Desktop\SVRT Experiments\SVRT Experiment 3\svrt_images\generated_images\results_problem_6\sample_0_0012.png,C:\Users\subject\Desktop\SVRT Experiments\SVRT Experiment 3\svrt_images\generated_images\results_problem_17\sample_0_0003.png,,,,,,,,,,,,,,,,,,,,,0,2,2,2,0,25,25,25,,,,,,,,,,,,,,j,17,B,B,27,1,Correct!,1.1017019000137225,801.5176227999909,None,801.5176227999909,None,802.6812880999933,None,,,,,108,001,2023-10-10_11h18.02.138,uncolored_sorted,2021.2.3,60.00085201509375,
C:\Users\subject\Desktop\SVRT Experiments\SVRT Experiment 3\svrt_images\generated_images\results_problem_17,,C:\Users\subject\Desktop\SVRT Experiments\SVRT Experiment 3\svrt_images\generated_images\results_problem_6\sample_0_0012.png,C:\Users\subject\Desktop\SVRT Experiments\SVRT Experiment 3\svrt_images\generated_images\results_problem_17\sample_0_0006.png,,,,,,,,,,,,,,,,,,,,,0,2,2,2,0,26,26,26,,,,,,,,,,,,,,j,17,B,B,27,1,Correct!,0.9613934999797493,803.8978966999857,None,803.8978966999857,None,804.9145286999992,None,,,,,108,001,2023-10-10_11h18.02.138,uncolored_sorted,2021.2.3,60.00085201509375,
C:\Users\subject\Desktop\SVRT Experiments\SVRT Experiment 3\svrt_images\generated_images\results_problem_17,,C:\Users\subject\Desktop\SVRT Experiments\SVRT Experiment 3\svrt_images\generated_images\results_problem_6\sample_0_0012.png,C:\Users\subject\Desktop\SVRT Experiments\SVRT Experiment 3\svrt_images\generated_images\results_problem_17\sample_0_0011.png,,,,,,,,,,,,,,,,,,,,,0,2,2,2,0,27,27,27,,,,,,,,,,,,,,j,17,B,B,27,1,Correct!,3.4155391000094824,806.1477521999914,None,806.1477521999914,None,809.5808591000095,None,,,,,108,001,2023-10-10_11h18.02.138,uncolored_sorted,2021.2.3,60.00085201509375,
C:\Users\subject\Desktop\SVRT Experiments\SVRT Experiment 3\svrt_images\generated_images\results_problem_17,,C:\Users\subject\Desktop\SVRT Experiments\SVRT Experiment 3\svrt_images\generated_images\results_problem_6\sample_0_0012.png,C:\Users\subject\Desktop\SVRT Experiments\SVRT Experiment 3\svrt_images\generated_images\results_problem_17\sample_1_0001.png,,,,,,,,,,,,,,,,,,,,,0,2,2,2,0,28,28,28,,,,,,,,,,,,,,j,17,B,A,27,0,Incorrect!,0.8450494999997318,810.8141557000054,None,810.8141557000054,None,811.6974378000014,None,,,,,108,001,2023-10-10_11h18.02.138,uncolored_sorted,2021.2.3,60.00085201509375,
C:\Users\subject\Desktop\SVRT Experiments\SVRT Experiment 3\svrt_images\generated_images\results_problem_17,,C:\Users\subject\Desktop\SVRT Experiments\SVRT Experiment 3\svrt_images\generated_images\results_problem_6\sample_0_0012.png,C:\Users\subject\Desktop\SVRT Experiments\SVRT Experiment 3\svrt_images\generated_images\results_problem_17\sample_0_0009.png,,,,,,,,,,,,,,,,,,,,,0,2,2,2,0,29,29,29,,,,,,,,,,,,,,f,17,A,B,27,0,Incorrect!,0.9039971999882255,812.9473415999964,None,812.9473415999964,None,813.8972833000007,None,,,,,108,001,2023-10-10_11h18.02.138,uncolored_sorted,2021.2.3,60.00085201509375,
C:\Users\subject\Desktop\SVRT Experiments\SVRT Experiment 3\svrt_images\generated_images\results_problem_17,,C:\Users\subject\Desktop\SVRT Experiments\SVRT Experiment 3\svrt_images\generated_images\results_problem_6\sample_0_0012.png,C:\Users\subject\Desktop\SVRT Experiments\SVRT Experiment 3\svrt_images\generated_images\results_problem_17\sample_0_0015.png,,,,,,,,,,,,,,,,,,,,,0,2,2,2,0,30,30,30,,,,,,,,,,,,,,f,17,A,B,27,0,Incorrect!,1.1040605999878608,815.1472361999913,None,815.1472361999913,None,816.2971361000091,None,,,,,108,001,2023-10-10_11h18.02.138,uncolored_sorted,2021.2.3,60.00085201509375,
C:\Users\subject\Desktop\SVRT Experiments\SVRT Experiment 3\svrt_images\generated_images\results_problem_17,,C:\Users\subject\Desktop\SVRT Experiments\SVRT Experiment 3\svrt_images\generated_images\results_problem_6\sample_0_0012.png,C:\Users\subject\Desktop\SVRT Experiments\SVRT Experiment 3\svrt_images\generated_images\results_problem_17\sample_1_0003.png,,,,,,,,,,,,,,,,,,,,,0,2,2,2,0,31,31,31,,,,,,,,,,,,,,f,17,A,A,27,1,Correct!,2.191523599991342,817.5637402999855,None,817.5637402999855,None,819.7802686000068,None,,,,,108,001,2023-10-10_11h18.02.138,uncolored_sorted,2021.2.3,60.00085201509375,
C:\Users\subject\Desktop\SVRT Experiments\SVRT Experiment 3\svrt_images\generated_images\results_problem_17,,C:\Users\subject\Desktop\SVRT Experiments\SVRT Experiment 3\svrt_images\generated_images\results_problem_6\sample_0_0012.png,C:\Users\subject\Desktop\SVRT Experiments\SVRT Experiment 3\svrt_images\generated_images\results_problem_17\sample_0_0005.png,,,,,,,,,,,,,,,,,,,,,0,2,2,2,0,32,32,32,,,,,,,,,,,,,,f,17,A,B,27,0,Incorrect!,1.6683300999866333,821.0469087999954,None,821.0469087999954,None,822.7800821999845,None,,,,,108,001,2023-10-10_11h18.02.138,uncolored_sorted,2021.2.3,60.00085201509375,
C:\Users\subject\Desktop\SVRT Experiments\SVRT Experiment 3\svrt_images\generated_images\results_problem_17,,C:\Users\subject\Desktop\SVRT Experiments\SVRT Experiment 3\svrt_images\generated_images\results_problem_6\sample_0_0012.png,C:\Users\subject\Desktop\SVRT Experiments\SVRT Experiment 3\svrt_images\generated_images\results_problem_17\sample_1_0011.png,,,,,,,,,,,,,,,,,,,,,0,2,2,2,0,33,33,33,,,,,,,,,,,,,,f,17,A,A,27,1,Correct!,1.068598000012571,824.0466782999865,None,824.0466782999865,None,825.2132833999931,None,,,,,108,001,2023-10-10_11h18.02.138,uncolored_sorted,2021.2.3,60.00085201509375,
C:\Users\subject\Desktop\SVRT Experiments\SVRT Experiment 3\svrt_images\generated_images\results_problem_17,,C:\Users\subject\Desktop\SVRT Experiments\SVRT Experiment 3\svrt_images\generated_images\results_problem_6\sample_0_0012.png,,,,,,,,,,,,,,,,,,,,,,0,2,2,2,0,18,18,18,,,,,,,,,,,,,,,,,,,,,,,,,,,,826.2132208999828,826.2132208999828,space,1.4779815999791026,108,001,2023-10-10_11h18.02.138,uncolored_sorted,2021.2.3,60.00085201509375,
C:\Users\subject\Desktop\SVRT Experiments\SVRT Experiment 3\svrt_images\generated_images\results_problem_10,,C:\Users\subject\Desktop\SVRT Experiments\SVRT Experiment 3\svrt_images\generated_images\results_problem_6\sample_0_0012.png,,C:\Users\subject\Desktop\SVRT Experiments\SVRT Experiment 3\svrt_images\generated_images\results_problem_10\sample_0_0002.png,,,,,,,,,,,,,,,,,,,,0,3,3,3,0,0,0,0,,,,,,,,,,,,,,f,10,A,B,27,0,Incorrect!,2.618080300017027,827.7131289999816,None,827.7131289999816,None,830.3629685000051,None,,,,,108,001,2023-10-10_11h18.02.138,uncolored_sorted,2021.2.3,60.00085201509375,
C:\Users\subject\Desktop\SVRT Experiments\SVRT Experiment 3\svrt_images\generated_images\results_problem_10,,C:\Users\subject\Desktop\SVRT Experiments\SVRT Experiment 3\svrt_images\generated_images\results_problem_6\sample_0_0012.png,,C:\Users\subject\Desktop\SVRT Experiments\SVRT Experiment 3\svrt_images\generated_images\results_problem_10\sample_0_0009.png,,,,,,,,,,,,,,,,,,,,0,3,3,3,0,1,1,1,,,,,,,,,,,,,,j,10,B,B,27,1,Correct!,2.3277424000261817,831.3795750999998,None,831.3795750999998,None,833.7294375000056,None,,,,,108,001,2023-10-10_11h18.02.138,uncolored_sorted,2021.2.3,60.00085201509375,
C:\Users\subject\Desktop\SVRT Experiments\SVRT Experiment 3\svrt_images\generated_images\results_problem_10,,C:\Users\subject\Desktop\SVRT Experiments\SVRT Experiment 3\svrt_images\generated_images\results_problem_6\sample_0_0012.png,,C:\Users\subject\Desktop\SVRT Experiments\SVRT Experiment 3\svrt_images\generated_images\results_problem_10\sample_0_0008.png,,,,,,,,,,,,,,,,,,,,0,3,3,3,0,2,2,2,,,,,,,,,,,,,,j,10,B,B,27,1,Correct!,4.0652818999951705,834.7460346999869,None,834.7460346999869,None,838.8291046000086,None,,,,,108,001,2023-10-10_11h18.02.138,uncolored_sorted,2021.2.3,60.00085201509375,
C:\Users\subject\Desktop\SVRT Experiments\SVRT Experiment 3\svrt_images\generated_images\results_problem_10,,C:\Users\subject\Desktop\SVRT Experiments\SVRT Experiment 3\svrt_images\generated_images\results_problem_6\sample_0_0012.png,,C:\Users\subject\Desktop\SVRT Experiments\SVRT Experiment 3\svrt_images\generated_images\results_problem_10\sample_0_0006.png,,,,,,,,,,,,,,,,,,,,0,3,3,3,0,3,3,3,,,,,,,,,,,,,,f,10,A,B,27,0,Incorrect!,2.1015822000044864,839.8457348000084,None,839.8457348000084,None,841.9789501999912,None,,,,,108,001,2023-10-10_11h18.02.138,uncolored_sorted,2021.2.3,60.00085201509375,
C:\Users\subject\Desktop\SVRT Experiments\SVRT Experiment 3\svrt_images\generated_images\results_problem_10,,C:\Users\subject\Desktop\SVRT Experiments\SVRT Experiment 3\svrt_images\generated_images\results_problem_6\sample_0_0012.png,,C:\Users\subject\Desktop\SVRT Experiments\SVRT Experiment 3\svrt_images\generated_images\results_problem_10\sample_1_0012.png,,,,,,,,,,,,,,,,,,,,0,3,3,3,0,4,4,4,,,,,,,,,,,,,,f,10,A,A,27,1,Correct!,1.1910722999891732,842.996126699989,None,842.996126699989,None,844.2121719999996,None,,,,,108,001,2023-10-10_11h18.02.138,uncolored_sorted,2021.2.3,60.00085201509375,
C:\Users\subject\Desktop\SVRT Experiments\SVRT Experiment 3\svrt_images\generated_images\results_problem_10,,C:\Users\subject\Desktop\SVRT Experiments\SVRT Experiment 3\svrt_images\generated_images\results_problem_6\sample_0_0012.png,,C:\Users\subject\Desktop\SVRT Experiments\SVRT Experiment 3\svrt_images\generated_images\results_problem_10\sample_1_0009.png,,,,,,,,,,,,,,,,,,,,0,3,3,3,0,5,5,5,,,,,,,,,,,,,,f,10,A,A,27,1,Correct!,0.8298072000034153,845.245472199982,None,845.245472199982,None,846.0953997999895,None,,,,,108,001,2023-10-10_11h18.02.138,uncolored_sorted,2021.2.3,60.00085201509375,
C:\Users\subject\Desktop\SVRT Experiments\SVRT Experiment 3\svrt_images\generated_images\results_problem_10,,C:\Users\subject\Desktop\SVRT Experiments\SVRT Experiment 3\svrt_images\generated_images\results_problem_6\sample_0_0012.png,,C:\Users\subject\Desktop\SVRT Experiments\SVRT Experiment 3\svrt_images\generated_images\results_problem_10\sample_0_0011.png,,,,,,,,,,,,,,,,,,,,0,3,3,3,0,6,6,6,,,,,,,,,,,,,,j,10,B,B,27,1,Correct!,1.489696999982698,847.1455061000015,None,847.1455061000015,None,848.6618163000094,None,,,,,108,001,2023-10-10_11h18.02.138,uncolored_sorted,2021.2.3,60.00085201509375,
C:\Users\subject\Desktop\SVRT Experiments\SVRT Experiment 3\svrt_images\generated_images\results_problem_10,,C:\Users\subject\Desktop\SVRT Experiments\SVRT Experiment 3\svrt_images\generated_images\results_problem_6\sample_0_0012.png,,C:\Users\subject\Desktop\SVRT Experiments\SVRT Experiment 3\svrt_images\generated_images\results_problem_10\sample_0_0014.png,,,,,,,,,,,,,,,,,,,,0,3,3,3,0,7,7,7,,,,,,,,,,,,,,j,10,B,B,27,1,Correct!,1.0515076000010595,849.7117328000022,None,849.7117328000022,None,850.7951070999843,None,,,,,108,001,2023-10-10_11h18.02.138,uncolored_sorted,2021.2.3,60.00085201509375,
C:\Users\subject\Desktop\SVRT Experiments\SVRT Experiment 3\svrt_images\generated_images\results_problem_10,,C:\Users\subject\Desktop\SVRT Experiments\SVRT Experiment 3\svrt_images\generated_images\results_problem_6\sample_0_0012.png,,C:\Users\subject\Desktop\SVRT Experiments\SVRT Experiment 3\svrt_images\generated_images\results_problem_10\sample_1_0006.png,,,,,,,,,,,,,,,,,,,,0,3,3,3,0,8,8,8,,,,,,,,,,,,,,f,10,A,A,27,1,Correct!,0.7742644999816548,851.8450596999901,None,851.8450596999901,None,852.6450035999878,None,,,,,108,001,2023-10-10_11h18.02.138,uncolored_sorted,2021.2.3,60.00085201509375,
C:\Users\subject\Desktop\SVRT Experiments\SVRT Experiment 3\svrt_images\generated_images\results_problem_10,,C:\Users\subject\Desktop\SVRT Experiments\SVRT Experiment 3\svrt_images\generated_images\results_problem_6\sample_0_0012.png,,C:\Users\subject\Desktop\SVRT Experiments\SVRT Experiment 3\svrt_images\generated_images\results_problem_10\sample_1_0015.png,,,,,,,,,,,,,,,,,,,,0,3,3,3,0,9,9,9,,,,,,,,,,,,,,f,10,A,A,27,1,Correct!,0.7157172000152059,853.7116129999922,None,853.7116129999922,None,854.4449400999874,None,,,,,108,001,2023-10-10_11h18.02.138,uncolored_sorted,2021.2.3,60.00085201509375,
C:\Users\subject\Desktop\SVRT Experiments\SVRT Experiment 3\svrt_images\generated_images\results_problem_10,,C:\Users\subject\Desktop\SVRT Experiments\SVRT Experiment 3\svrt_images\generated_images\results_problem_6\sample_0_0012.png,,C:\Users\subject\Desktop\SVRT Experiments\SVRT Experiment 3\svrt_images\generated_images\results_problem_10\sample_1_0007.png,,,,,,,,,,,,,,,,,,,,0,3,3,3,0,10,10,10,,,,,,,,,,,,,,f,10,A,A,27,1,Correct!,0.5956581000064034,855.5115046999999,None,855.5115046999999,None,856.1281448999944,None,,,,,108,001,2023-10-10_11h18.02.138,uncolored_sorted,2021.2.3,60.00085201509375,
C:\Users\subject\Desktop\SVRT Experiments\SVRT Experiment 3\svrt_images\generated_images\results_problem_10,,C:\Users\subject\Desktop\SVRT Experiments\SVRT Experiment 3\svrt_images\generated_images\results_problem_6\sample_0_0012.png,,C:\Users\subject\Desktop\SVRT Experiments\SVRT Experiment 3\svrt_images\generated_images\results_problem_10\sample_0_0001.png,,,,,,,,,,,,,,,,,,,,0,3,3,3,0,11,11,11,,,,,,,,,,,,,,,,,,,,,,,,,,,,857.1281449999951,857.1281449999951,space,1.4590831999958027,108,001,2023-10-10_11h18.02.138,uncolored_sorted,2021.2.3,60.00085201509375,
C:\Users\subject\Desktop\SVRT Experiments\SVRT Experiment 3\svrt_images\generated_images\results_problem_14,,C:\Users\subject\Desktop\SVRT Experiments\SVRT Experiment 3\svrt_images\generated_images\results_problem_6\sample_0_0012.png,,C:\Users\subject\Desktop\SVRT Experiments\SVRT Experiment 3\svrt_images\generated_images\results_problem_10\sample_0_0001.png,C:\Users\subject\Desktop\SVRT Experiments\SVRT Experiment 3\svrt_images\generated_images\results_problem_14\sample_0_0002.png,,,,,,,,,,,,,,,,,,,0,4,4,4,0,0,0,0,,,,,,,,,,,,,,j,14,B,B,27,1,Correct!,6.503922900010366,858.6113366000063,None,858.6113366000063,None,865.1442791000009,None,,,,,108,001,2023-10-10_11h18.02.138,uncolored_sorted,2021.2.3,60.00085201509375,
C:\Users\subject\Desktop\SVRT Experiments\SVRT Experiment 3\svrt_images\generated_images\results_problem_14,,C:\Users\subject\Desktop\SVRT Experiments\SVRT Experiment 3\svrt_images\generated_images\results_problem_6\sample_0_0012.png,,C:\Users\subject\Desktop\SVRT Experiments\SVRT Experiment 3\svrt_images\generated_images\results_problem_10\sample_0_0001.png,C:\Users\subject\Desktop\SVRT Experiments\SVRT Experiment 3\svrt_images\generated_images\results_problem_14\sample_1_0010.png,,,,,,,,,,,,,,,,,,,0,4,4,4,0,1,1,1,,,,,,,,,,,,,,j,14,B,A,27,0,Incorrect!,1.0829435999912675,866.1442527000036,None,866.1442527000036,None,867.2441591999959,None,,,,,108,001,2023-10-10_11h18.02.138,uncolored_sorted,2021.2.3,60.00085201509375,
C:\Users\subject\Desktop\SVRT Experiments\SVRT Experiment 3\svrt_images\generated_images\results_problem_14,,C:\Users\subject\Desktop\SVRT Experiments\SVRT Experiment 3\svrt_images\generated_images\results_problem_6\sample_0_0012.png,,C:\Users\subject\Desktop\SVRT Experiments\SVRT Experiment 3\svrt_images\generated_images\results_problem_10\sample_0_0001.png,C:\Users\subject\Desktop\SVRT Experiments\SVRT Experiment 3\svrt_images\generated_images\results_problem_14\sample_0_0010.png,,,,,,,,,,,,,,,,,,,0,4,4,4,0,2,2,2,,,,,,,,,,,,,,f,14,A,B,27,0,Incorrect!,2.9503805999993347,868.260770199995,None,868.260770199995,None,871.2439294999931,None,,,,,108,001,2023-10-10_11h18.02.138,uncolored_sorted,2021.2.3,60.00085201509375,
C:\Users\subject\Desktop\SVRT Experiments\SVRT Experiment 3\svrt_images\generated_images\results_problem_14,,C:\Users\subject\Desktop\SVRT Experiments\SVRT Experiment 3\svrt_images\generated_images\results_problem_6\sample_0_0012.png,,C:\Users\subject\Desktop\SVRT Experiments\SVRT Experiment 3\svrt_images\generated_images\results_problem_10\sample_0_0001.png,C:\Users\subject\Desktop\SVRT Experiments\SVRT Experiment 3\svrt_images\generated_images\results_problem_14\sample_0_0015.png,,,,,,,,,,,,,,,,,,,0,4,4,4,0,3,3,3,,,,,,,,,,,,,,f,14,A,B,27,0,Incorrect!,1.2547009999980219,872.2605762000021,None,872.2605762000021,None,873.5437744999945,None,,,,,108,001,2023-10-10_11h18.02.138,uncolored_sorted,2021.2.3,60.00085201509375,
C:\Users\subject\Desktop\SVRT Experiments\SVRT Experiment 3\svrt_images\generated_images\results_problem_14,,C:\Users\subject\Desktop\SVRT Experiments\SVRT Experiment 3\svrt_images\generated_images\results_problem_6\sample_0_0012.png,,C:\Users\subject\Desktop\SVRT Experiments\SVRT Experiment 3\svrt_images\generated_images\results_problem_10\sample_0_0001.png,C:\Users\subject\Desktop\SVRT Experiments\SVRT Experiment 3\svrt_images\generated_images\results_problem_14\sample_0_0001.png,,,,,,,,,,,,,,,,,,,0,4,4,4,0,4,4,4,,,,,,,,,,,,,,j,14,B,B,27,1,Correct!,4.586820099997567,874.5603911000071,None,874.5603911000071,None,879.1767794000043,None,,,,,108,001,2023-10-10_11h18.02.138,uncolored_sorted,2021.2.3,60.00085201509375,
C:\Users\subject\Desktop\SVRT Experiments\SVRT Experiment 3\svrt_images\generated_images\results_problem_14,,C:\Users\subject\Desktop\SVRT Experiments\SVRT Experiment 3\svrt_images\generated_images\results_problem_6\sample_0_0012.png,,C:\Users\subject\Desktop\SVRT Experiments\SVRT Experiment 3\svrt_images\generated_images\results_problem_10\sample_0_0001.png,C:\Users\subject\Desktop\SVRT Experiments\SVRT Experiment 3\svrt_images\generated_images\results_problem_14\sample_0_0012.png,,,,,,,,,,,,,,,,,,,0,4,4,4,0,5,5,5,,,,,,,,,,,,,,f,14,A,B,27,0,Incorrect!,1.8491288000077475,880.2101301999937,None,880.2101301999937,None,882.0766125000082,None,,,,,108,001,2023-10-10_11h18.02.138,uncolored_sorted,2021.2.3,60.00085201509375,
C:\Users\subject\Desktop\SVRT Experiments\SVRT Experiment 3\svrt_images\generated_images\results_problem_14,,C:\Users\subject\Desktop\SVRT Experiments\SVRT Experiment 3\svrt_images\generated_images\results_problem_6\sample_0_0012.png,,C:\Users\subject\Desktop\SVRT Experiments\SVRT Experiment 3\svrt_images\generated_images\results_problem_10\sample_0_0001.png,C:\Users\subject\Desktop\SVRT Experiments\SVRT Experiment 3\svrt_images\generated_images\results_problem_14\sample_0_0003.png,,,,,,,,,,,,,,,,,,,0,4,4,4,0,6,6,6,,,,,,,,,,,,,,j,14,B,B,27,1,Correct!,0.9493205000180751,883.1098611000052,None,883.1098611000052,None,884.0772299999953,None,,,,,108,001,2023-10-10_11h18.02.138,uncolored_sorted,2021.2.3,60.00085201509375,
C:\Users\subject\Desktop\SVRT Experiments\SVRT Experiment 3\svrt_images\generated_images\results_problem_14,,C:\Users\subject\Desktop\SVRT Experiments\SVRT Experiment 3\svrt_images\generated_images\results_problem_6\sample_0_0012.png,,C:\Users\subject\Desktop\SVRT Experiments\SVRT Experiment 3\svrt_images\generated_images\results_problem_10\sample_0_0001.png,C:\Users\subject\Desktop\SVRT Experiments\SVRT Experiment 3\svrt_images\generated_images\results_problem_14\sample_0_0004.png,,,,,,,,,,,,,,,,,,,0,4,4,4,0,7,7,7,,,,,,,,,,,,,,f,14,A,B,27,0,Incorrect!,0.5808986999909393,885.1264289999963,None,885.1264289999963,None,885.7263912000053,None,,,,,108,001,2023-10-10_11h18.02.138,uncolored_sorted,2021.2.3,60.00085201509375,
C:\Users\subject\Desktop\SVRT Experiments\SVRT Experiment 3\svrt_images\generated_images\results_problem_14,,C:\Users\subject\Desktop\SVRT Experiments\SVRT Experiment 3\svrt_images\generated_images\results_problem_6\sample_0_0012.png,,C:\Users\subject\Desktop\SVRT Experiments\SVRT Experiment 3\svrt_images\generated_images\results_problem_10\sample_0_0001.png,C:\Users\subject\Desktop\SVRT Experiments\SVRT Experiment 3\svrt_images\generated_images\results_problem_14\sample_0_0008.png,,,,,,,,,,,,,,,,,,,0,4,4,4,0,8,8,8,,,,,,,,,,,,,,j,14,B,B,27,1,Correct!,0.9629086999921128,886.7763382999983,None,886.7763382999983,None,887.7596799999883,None,,,,,108,001,2023-10-10_11h18.02.138,uncolored_sorted,2021.2.3,60.00085201509375,
C:\Users\subject\Desktop\SVRT Experiments\SVRT Experiment 3\svrt_images\generated_images\results_problem_14,,C:\Users\subject\Desktop\SVRT Experiments\SVRT Experiment 3\svrt_images\generated_images\results_problem_6\sample_0_0012.png,,C:\Users\subject\Desktop\SVRT Experiments\SVRT Experiment 3\svrt_images\generated_images\results_problem_10\sample_0_0001.png,C:\Users\subject\Desktop\SVRT Experiments\SVRT Experiment 3\svrt_images\generated_images\results_problem_14\sample_0_0000.png,,,,,,,,,,,,,,,,,,,0,4,4,4,0,9,9,9,,,,,,,,,,,,,,j,14,B,B,27,1,Correct!,0.9779071999946609,888.8093578999978,None,888.8093578999978,None,889.8094852000067,None,,,,,108,001,2023-10-10_11h18.02.138,uncolored_sorted,2021.2.3,60.00085201509375,
C:\Users\subject\Desktop\SVRT Experiments\SVRT Experiment 3\svrt_images\generated_images\results_problem_14,,C:\Users\subject\Desktop\SVRT Experiments\SVRT Experiment 3\svrt_images\generated_images\results_problem_6\sample_0_0012.png,,C:\Users\subject\Desktop\SVRT Experiments\SVRT Experiment 3\svrt_images\generated_images\results_problem_10\sample_0_0001.png,C:\Users\subject\Desktop\SVRT Experiments\SVRT Experiment 3\svrt_images\generated_images\results_problem_14\sample_0_0014.png,,,,,,,,,,,,,,,,,,,0,4,4,4,0,10,10,10,,,,,,,,,,,,,,j,14,B,B,27,1,Correct!,0.8311187000072096,890.8760887999961,None,890.8760887999961,None,891.7260407999856,None,,,,,108,001,2023-10-10_11h18.02.138,uncolored_sorted,2021.2.3,60.00085201509375,
C:\Users\subject\Desktop\SVRT Experiments\SVRT Experiment 3\svrt_images\generated_images\results_problem_14,,C:\Users\subject\Desktop\SVRT Experiments\SVRT Experiment 3\svrt_images\generated_images\results_problem_6\sample_0_0012.png,,C:\Users\subject\Desktop\SVRT Experiments\SVRT Experiment 3\svrt_images\generated_images\results_problem_10\sample_0_0001.png,C:\Users\subject\Desktop\SVRT Experiments\SVRT Experiment 3\svrt_images\generated_images\results_problem_14\sample_0_0005.png,,,,,,,,,,,,,,,,,,,0,4,4,4,0,11,11,11,,,,,,,,,,,,,,f,14,A,B,27,0,Incorrect!,0.9468179999967106,892.7924598999962,None,892.7924598999962,None,893.7592433999816,None,,,,,108,001,2023-10-10_11h18.02.138,uncolored_sorted,2021.2.3,60.00085201509375,
C:\Users\subject\Desktop\SVRT Experiments\SVRT Experiment 3\svrt_images\generated_images\results_problem_14,,C:\Users\subject\Desktop\SVRT Experiments\SVRT Experiment 3\svrt_images\generated_images\results_problem_6\sample_0_0012.png,,C:\Users\subject\Desktop\SVRT Experiments\SVRT Experiment 3\svrt_images\generated_images\results_problem_10\sample_0_0001.png,C:\Users\subject\Desktop\SVRT Experiments\SVRT Experiment 3\svrt_images\generated_images\results_problem_14\sample_0_0016.png,,,,,,,,,,,,,,,,,,,0,4,4,4,0,12,12,12,,,,,,,,,,,,,,j,14,B,B,27,1,Correct!,0.784805100003723,894.8425228999986,None,894.8425228999986,None,895.6591354999982,None,,,,,108,001,2023-10-10_11h18.02.138,uncolored_sorted,2021.2.3,60.00085201509375,
C:\Users\subject\Desktop\SVRT Experiments\SVRT Experiment 3\svrt_images\generated_images\results_problem_14,,C:\Users\subject\Desktop\SVRT Experiments\SVRT Experiment 3\svrt_images\generated_images\results_problem_6\sample_0_0012.png,,C:\Users\subject\Desktop\SVRT Experiments\SVRT Experiment 3\svrt_images\generated_images\results_problem_10\sample_0_0001.png,C:\Users\subject\Desktop\SVRT Experiments\SVRT Experiment 3\svrt_images\generated_images\results_problem_14\sample_0_0006.png,,,,,,,,,,,,,,,,,,,0,4,4,4,0,13,13,13,,,,,,,,,,,,,,j,14,B,B,27,1,Correct!,0.7569145000015851,896.7424353999959,None,896.7424353999959,None,897.5256844999967,None,,,,,108,001,2023-10-10_11h18.02.138,uncolored_sorted,2021.2.3,60.00085201509375,
C:\Users\subject\Desktop\SVRT Experiments\SVRT Experiment 3\svrt_images\generated_images\results_problem_14,,C:\Users\subject\Desktop\SVRT Experiments\SVRT Experiment 3\svrt_images\generated_images\results_problem_6\sample_0_0012.png,,C:\Users\subject\Desktop\SVRT Experiments\SVRT Experiment 3\svrt_images\generated_images\results_problem_10\sample_0_0001.png,C:\Users\subject\Desktop\SVRT Experiments\SVRT Experiment 3\svrt_images\generated_images\results_problem_14\sample_0_0013.png,,,,,,,,,,,,,,,,,,,0,4,4,4,0,14,14,14,,,,,,,,,,,,,,j,14,B,B,27,1,Correct!,0.8417146000138018,898.625627100002,None,898.625627100002,None,899.5088917999819,None,,,,,108,001,2023-10-10_11h18.02.138,uncolored_sorted,2021.2.3,60.00085201509375,
C:\Users\subject\Desktop\SVRT Experiments\SVRT Experiment 3\svrt_images\generated_images\results_problem_14,,C:\Users\subject\Desktop\SVRT Experiments\SVRT Experiment 3\svrt_images\generated_images\results_problem_6\sample_0_0012.png,,C:\Users\subject\Desktop\SVRT Experiments\SVRT Experiment 3\svrt_images\generated_images\results_problem_10\sample_0_0001.png,C:\Users\subject\Desktop\SVRT Experiments\SVRT Experiment 3\svrt_images\generated_images\results_problem_14\sample_1_0007.png,,,,,,,,,,,,,,,,,,,0,4,4,4,0,15,15,15,,,,,,,,,,,,,,f,14,A,A,27,1,Correct!,1.8665087000117637,900.6088401000015,None,900.6088401000015,None,902.4920642999932,None,,,,,108,001,2023-10-10_11h18.02.138,uncolored_sorted,2021.2.3,60.00085201509375,
C:\Users\subject\Desktop\SVRT Experiments\SVRT Experiment 3\svrt_images\generated_images\results_problem_14,,C:\Users\subject\Desktop\SVRT Experiments\SVRT Experiment 3\svrt_images\generated_images\results_problem_6\sample_0_0012.png,,C:\Users\subject\Desktop\SVRT Experiments\SVRT Experiment 3\svrt_images\generated_images\results_problem_10\sample_0_0001.png,C:\Users\subject\Desktop\SVRT Experiments\SVRT Experiment 3\svrt_images\generated_images\results_problem_14\sample_0_0011.png,,,,,,,,,,,,,,,,,,,0,4,4,4,0,16,16,16,,,,,,,,,,,,,,j,14,B,B,27,1,Correct!,1.1866632000019308,903.6086915000051,None,903.6086915000051,None,904.8252663000021,None,,,,,108,001,2023-10-10_11h18.02.138,uncolored_sorted,2021.2.3,60.00085201509375,
C:\Users\subject\Desktop\SVRT Experiments\SVRT Experiment 3\svrt_images\generated_images\results_problem_14,,C:\Users\subject\Desktop\SVRT Experiments\SVRT Experiment 3\svrt_images\generated_images\results_problem_6\sample_0_0012.png,,C:\Users\subject\Desktop\SVRT Experiments\SVRT Experiment 3\svrt_images\generated_images\results_problem_10\sample_0_0001.png,C:\Users\subject\Desktop\SVRT Experiments\SVRT Experiment 3\svrt_images\generated_images\results_problem_14\sample_1_0009.png,,,,,,,,,,,,,,,,,,,0,4,4,4,0,17,17,17,,,,,,,,,,,,,,f,14,A,A,27,1,Correct!,1.2847049999982119,905.9585206999909,None,905.9585206999909,None,907.2751510000089,None,,,,,108,001,2023-10-10_11h18.02.138,uncolored_sorted,2021.2.3,60.00085201509375,
C:\Users\subject\Desktop\SVRT Experiments\SVRT Experiment 3\svrt_images\generated_images\results_problem_14,,C:\Users\subject\Desktop\SVRT Experiments\SVRT Experiment 3\svrt_images\generated_images\results_problem_6\sample_0_0012.png,,C:\Users\subject\Desktop\SVRT Experiments\SVRT Experiment 3\svrt_images\generated_images\results_problem_10\sample_0_0001.png,C:\Users\subject\Desktop\SVRT Experiments\SVRT Experiment 3\svrt_images\generated_images\results_problem_14\sample_1_0000.png,,,,,,,,,,,,,,,,,,,0,4,4,4,0,18,18,18,,,,,,,,,,,,,,f,14,A,A,27,1,Correct!,0.722907799994573,908.4083836000063,None,908.4083836000063,None,909.1583342000085,None,,,,,108,001,2023-10-10_11h18.02.138,uncolored_sorted,2021.2.3,60.00085201509375,
C:\Users\subject\Desktop\SVRT Experiments\SVRT Experiment 3\svrt_images\generated_images\results_problem_14,,C:\Users\subject\Desktop\SVRT Experiments\SVRT Experiment 3\svrt_images\generated_images\results_problem_6\sample_0_0012.png,,C:\Users\subject\Desktop\SVRT Experiments\SVRT Experiment 3\svrt_images\generated_images\results_problem_10\sample_0_0001.png,C:\Users\subject\Desktop\SVRT Experiments\SVRT Experiment 3\svrt_images\generated_images\results_problem_14\sample_1_0015.png,,,,,,,,,,,,,,,,,,,0,4,4,4,0,19,19,19,,,,,,,,,,,,,,,,,,,,,,,,,,,,910.1582810999826,910.1582810999826,space,1.1010241000039969,108,001,2023-10-10_11h18.02.138,uncolored_sorted,2021.2.3,60.00085201509375,
C:\Users\subject\Desktop\SVRT Experiments\SVRT Experiment 3\svrt_images\generated_images\results_problem_16,,C:\Users\subject\Desktop\SVRT Experiments\SVRT Experiment 3\svrt_images\generated_images\results_problem_6\sample_0_0012.png,,C:\Users\subject\Desktop\SVRT Experiments\SVRT Experiment 3\svrt_images\generated_images\results_problem_10\sample_0_0001.png,C:\Users\subject\Desktop\SVRT Experiments\SVRT Experiment 3\svrt_images\generated_images\results_problem_14\sample_1_0015.png,C:\Users\subject\Desktop\SVRT Experiments\SVRT Experiment 3\svrt_images\generated_images\results_problem_16\sample_0_0013.png,,,,,,,,,,,,,,,,,,0,5,5,5,0,0,0,0,,,,,,,,,,,,,,j,16,B,B,27,1,Correct!,2.783645899995463,911.2915397000033,None,911.2915397000033,None,914.10804620001,None,,,,,108,001,2023-10-10_11h18.02.138,uncolored_sorted,2021.2.3,60.00085201509375,
C:\Users\subject\Desktop\SVRT Experiments\SVRT Experiment 3\svrt_images\generated_images\results_problem_16,,C:\Users\subject\Desktop\SVRT Experiments\SVRT Experiment 3\svrt_images\generated_images\results_problem_6\sample_0_0012.png,,C:\Users\subject\Desktop\SVRT Experiments\SVRT Experiment 3\svrt_images\generated_images\results_problem_10\sample_0_0001.png,C:\Users\subject\Desktop\SVRT Experiments\SVRT Experiment 3\svrt_images\generated_images\results_problem_14\sample_1_0015.png,C:\Users\subject\Desktop\SVRT Experiments\SVRT Experiment 3\svrt_images\generated_images\results_problem_16\sample_0_0014.png,,,,,,,,,,,,,,,,,,0,5,5,5,0,1,1,1,,,,,,,,,,,,,,f,16,A,B,27,0,Incorrect!,2.1832736000069417,915.1079933999863,None,915.1079933999863,None,917.3245160999941,None,,,,,108,001,2023-10-10_11h18.02.138,uncolored_sorted,2021.2.3,60.00085201509375,
C:\Users\subject\Desktop\SVRT Experiments\SVRT Experiment 3\svrt_images\generated_images\results_problem_16,,C:\Users\subject\Desktop\SVRT Experiments\SVRT Experiment 3\svrt_images\generated_images\results_problem_6\sample_0_0012.png,,C:\Users\subject\Desktop\SVRT Experiments\SVRT Experiment 3\svrt_images\generated_images\results_problem_10\sample_0_0001.png,C:\Users\subject\Desktop\SVRT Experiments\SVRT Experiment 3\svrt_images\generated_images\results_problem_14\sample_1_0015.png,C:\Users\subject\Desktop\SVRT Experiments\SVRT Experiment 3\svrt_images\generated_images\results_problem_16\sample_1_0002.png,,,,,,,,,,,,,,,,,,0,5,5,5,0,2,2,2,,,,,,,,,,,,,,f,16,A,A,27,1,Correct!,1.2541861000063363,918.3411545999988,None,918.3411545999988,None,919.6243938999833,None,,,,,108,001,2023-10-10_11h18.02.138,uncolored_sorted,2021.2.3,60.00085201509375,
C:\Users\subject\Desktop\SVRT Experiments\SVRT Experiment 3\svrt_images\generated_images\results_problem_16,,C:\Users\subject\Desktop\SVRT Experiments\SVRT Experiment 3\svrt_images\generated_images\results_problem_6\sample_0_0012.png,,C:\Users\subject\Desktop\SVRT Experiments\SVRT Experiment 3\svrt_images\generated_images\results_problem_10\sample_0_0001.png,C:\Users\subject\Desktop\SVRT Experiments\SVRT Experiment 3\svrt_images\generated_images\results_problem_14\sample_1_0015.png,C:\Users\subject\Desktop\SVRT Experiments\SVRT Experiment 3\svrt_images\generated_images\results_problem_16\sample_1_0010.png,,,,,,,,,,,,,,,,,,0,5,5,5,0,3,3,3,,,,,,,,,,,,,,f,16,A,A,27,1,Correct!,8.394302199973026,920.6410176999925,None,920.6410176999925,None,929.05716940001,None,,,,,108,001,2023-10-10_11h18.02.138,uncolored_sorted,2021.2.3,60.00085201509375,
C:\Users\subject\Desktop\SVRT Experiments\SVRT Experiment 3\svrt_images\generated_images\results_problem_16,,C:\Users\subject\Desktop\SVRT Experiments\SVRT Experiment 3\svrt_images\generated_images\results_problem_6\sample_0_0012.png,,C:\Users\subject\Desktop\SVRT Experiments\SVRT Experiment 3\svrt_images\generated_images\results_problem_10\sample_0_0001.png,C:\Users\subject\Desktop\SVRT Experiments\SVRT Experiment 3\svrt_images\generated_images\results_problem_14\sample_1_0015.png,C:\Users\subject\Desktop\SVRT Experiments\SVRT Experiment 3\svrt_images\generated_images\results_problem_16\sample_0_0006.png,,,,,,,,,,,,,,,,,,0,5,5,5,0,4,4,4,,,,,,,,,,,,,,f,16,A,B,27,0,Incorrect!,0.9294523999851663,930.073776300007,None,930.073776300007,None,931.0237221999851,None,,,,,108,001,2023-10-10_11h18.02.138,uncolored_sorted,2021.2.3,60.00085201509375,
C:\Users\subject\Desktop\SVRT Experiments\SVRT Experiment 3\svrt_images\generated_images\results_problem_16,,C:\Users\subject\Desktop\SVRT Experiments\SVRT Experiment 3\svrt_images\generated_images\results_problem_6\sample_0_0012.png,,C:\Users\subject\Desktop\SVRT Experiments\SVRT Experiment 3\svrt_images\generated_images\results_problem_10\sample_0_0001.png,C:\Users\subject\Desktop\SVRT Experiments\SVRT Experiment 3\svrt_images\generated_images\results_problem_14\sample_1_0015.png,C:\Users\subject\Desktop\SVRT Experiments\SVRT Experiment 3\svrt_images\generated_images\results_problem_16\sample_0_0016.png,,,,,,,,,,,,,,,,,,0,5,5,5,0,5,5,5,,,,,,,,,,,,,,f,16,A,B,27,0,Incorrect!,2.098221599997487,932.05699859999,None,932.05699859999,None,934.173527899984,None,,,,,108,001,2023-10-10_11h18.02.138,uncolored_sorted,2021.2.3,60.00085201509375,
C:\Users\subject\Desktop\SVRT Experiments\SVRT Experiment 3\svrt_images\generated_images\results_problem_16,,C:\Users\subject\Desktop\SVRT Experiments\SVRT Experiment 3\svrt_images\generated_images\results_problem_6\sample_0_0012.png,,C:\Users\subject\Desktop\SVRT Experiments\SVRT Experiment 3\svrt_images\generated_images\results_problem_10\sample_0_0001.png,C:\Users\subject\Desktop\SVRT Experiments\SVRT Experiment 3\svrt_images\generated_images\results_problem_14\sample_1_0015.png,C:\Users\subject\Desktop\SVRT Experiments\SVRT Experiment 3\svrt_images\generated_images\results_problem_16\sample_1_0016.png,,,,,,,,,,,,,,,,,,0,5,5,5,0,6,6,6,,,,,,,,,,,,,,f,16,A,A,27,1,Correct!,5.908583399985218,935.2067858999944,None,935.2067858999944,None,941.1398073000018,None,,,,,108,001,2023-10-10_11h18.02.138,uncolored_sorted,2021.2.3,60.00085201509375,
C:\Users\subject\Desktop\SVRT Experiments\SVRT Experiment 3\svrt_images\generated_images\results_problem_16,,C:\Users\subject\Desktop\SVRT Experiments\SVRT Experiment 3\svrt_images\generated_images\results_problem_6\sample_0_0012.png,,C:\Users\subject\Desktop\SVRT Experiments\SVRT Experiment 3\svrt_images\generated_images\results_problem_10\sample_0_0001.png,C:\Users\subject\Desktop\SVRT Experiments\SVRT Experiment 3\svrt_images\generated_images\results_problem_14\sample_1_0015.png,C:\Users\subject\Desktop\SVRT Experiments\SVRT Experiment 3\svrt_images\generated_images\results_problem_16\sample_1_0014.png,,,,,,,,,,,,,,,,,,0,5,5,5,0,7,7,7,,,,,,,,,,,,,,f,16,A,A,27,1,Correct!,11.40568350002286,942.1897070999839,None,942.1897070999839,None,953.6224824000092,None,,,,,108,001,2023-10-10_11h18.02.138,uncolored_sorted,2021.2.3,60.00085201509375,
C:\Users\subject\Desktop\SVRT Experiments\SVRT Experiment 3\svrt_images\generated_images\results_problem_16,,C:\Users\subject\Desktop\SVRT Experiments\SVRT Experiment 3\svrt_images\generated_images\results_problem_6\sample_0_0012.png,,C:\Users\subject\Desktop\SVRT Experiments\SVRT Experiment 3\svrt_images\generated_images\results_problem_10\sample_0_0001.png,C:\Users\subject\Desktop\SVRT Experiments\SVRT Experiment 3\svrt_images\generated_images\results_problem_14\sample_1_0015.png,C:\Users\subject\Desktop\SVRT Experiments\SVRT Experiment 3\svrt_images\generated_images\results_problem_16\sample_1_0006.png,,,,,,,,,,,,,,,,,,0,5,5,5,0,8,8,8,,,,,,,,,,,,,,f,16,A,A,27,1,Correct!,1.7069578999944497,954.672318500001,None,954.672318500001,None,956.4056365999859,None,,,,,108,001,2023-10-10_11h18.02.138,uncolored_sorted,2021.2.3,60.00085201509375,
C:\Users\subject\Desktop\SVRT Experiments\SVRT Experiment 3\svrt_images\generated_images\results_problem_16,,C:\Users\subject\Desktop\SVRT Experiments\SVRT Experiment 3\svrt_images\generated_images\results_problem_6\sample_0_0012.png,,C:\Users\subject\Desktop\SVRT Experiments\SVRT Experiment 3\svrt_images\generated_images\results_problem_10\sample_0_0001.png,C:\Users\subject\Desktop\SVRT Experiments\SVRT Experiment 3\svrt_images\generated_images\results_problem_14\sample_1_0015.png,C:\Users\subject\Desktop\SVRT Experiments\SVRT Experiment 3\svrt_images\generated_images\results_problem_16\sample_1_0013.png,,,,,,,,,,,,,,,,,,0,5,5,5,0,9,9,9,,,,,,,,,,,,,,f,16,A,A,27,1,Correct!,2.651183799986029,957.4721696999914,None,957.4721696999914,None,960.1553633000003,None,,,,,108,001,2023-10-10_11h18.02.138,uncolored_sorted,2021.2.3,60.00085201509375,
C:\Users\subject\Desktop\SVRT Experiments\SVRT Experiment 3\svrt_images\generated_images\results_problem_16,,C:\Users\subject\Desktop\SVRT Experiments\SVRT Experiment 3\svrt_images\generated_images\results_problem_6\sample_0_0012.png,,C:\Users\subject\Desktop\SVRT Experiments\SVRT Experiment 3\svrt_images\generated_images\results_problem_10\sample_0_0001.png,C:\Users\subject\Desktop\SVRT Experiments\SVRT Experiment 3\svrt_images\generated_images\results_problem_14\sample_1_0015.png,C:\Users\subject\Desktop\SVRT Experiments\SVRT Experiment 3\svrt_images\generated_images\results_problem_16\sample_0_0005.png,,,,,,,,,,,,,,,,,,0,5,5,5,0,10,10,10,,,,,,,,,,,,,,j,16,B,B,27,1,Correct!,1.717384999996284,961.2219896999886,None,961.2219896999886,None,962.9716784000047,None,,,,,108,001,2023-10-10_11h18.02.138,uncolored_sorted,2021.2.3,60.00085201509375,
C:\Users\subject\Desktop\SVRT Experiments\SVRT Experiment 3\svrt_images\generated_images\results_problem_16,,C:\Users\subject\Desktop\SVRT Experiments\SVRT Experiment 3\svrt_images\generated_images\results_problem_6\sample_0_0012.png,,C:\Users\subject\Desktop\SVRT Experiments\SVRT Experiment 3\svrt_images\generated_images\results_problem_10\sample_0_0001.png,C:\Users\subject\Desktop\SVRT Experiments\SVRT Experiment 3\svrt_images\generated_images\results_problem_14\sample_1_0015.png,C:\Users\subject\Desktop\SVRT Experiments\SVRT Experiment 3\svrt_images\generated_images\results_problem_16\sample_0_0004.png,,,,,,,,,,,,,,,,,,0,5,5,5,0,11,11,11,,,,,,,,,,,,,,j,16,B,B,27,1,Correct!,1.5090549000015017,964.0382735999883,None,964.0382735999883,None,965.571511999995,None,,,,,108,001,2023-10-10_11h18.02.138,uncolored_sorted,2021.2.3,60.00085201509375,
C:\Users\subject\Desktop\SVRT Experiments\SVRT Experiment 3\svrt_images\generated_images\results_problem_16,,C:\Users\subject\Desktop\SVRT Experiments\SVRT Experiment 3\svrt_images\generated_images\results_problem_6\sample_0_0012.png,,C:\Users\subject\Desktop\SVRT Experiments\SVRT Experiment 3\svrt_images\generated_images\results_problem_10\sample_0_0001.png,C:\Users\subject\Desktop\SVRT Experiments\SVRT Experiment 3\svrt_images\generated_images\results_problem_14\sample_1_0015.png,C:\Users\subject\Desktop\SVRT Experiments\SVRT Experiment 3\svrt_images\generated_images\results_problem_16\sample_0_0009.png,,,,,,,,,,,,,,,,,,0,5,5,5,0,12,12,12,,,,,,,,,,,,,,j,16,B,B,27,1,Correct!,1.836539800016908,966.6548082999943,None,966.6548082999943,None,968.5213488999871,None,,,,,108,001,2023-10-10_11h18.02.138,uncolored_sorted,2021.2.3,60.00085201509375,
C:\Users\subject\Desktop\SVRT Experiments\SVRT Experiment 3\svrt_images\generated_images\results_problem_16,,C:\Users\subject\Desktop\SVRT Experiments\SVRT Experiment 3\svrt_images\generated_images\results_problem_6\sample_0_0012.png,,C:\Users\subject\Desktop\SVRT Experiments\SVRT Experiment 3\svrt_images\generated_images\results_problem_10\sample_0_0001.png,C:\Users\subject\Desktop\SVRT Experiments\SVRT Experiment 3\svrt_images\generated_images\results_problem_14\sample_1_0015.png,C:\Users\subject\Desktop\SVRT Experiments\SVRT Experiment 3\svrt_images\generated_images\results_problem_16\sample_1_0005.png,,,,,,,,,,,,,,,,,,0,5,5,5,0,13,13,13,,,,,,,,,,,,,,,,,,,,,,,,,,,,969.5213748000097,969.5213748000097,space,1.129947000008542,108,001,2023-10-10_11h18.02.138,uncolored_sorted,2021.2.3,60.00085201509375,
C:\Users\subject\Desktop\SVRT Experiments\SVRT Experiment 3\svrt_images\generated_images\results_problem_5,,C:\Users\subject\Desktop\SVRT Experiments\SVRT Experiment 3\svrt_images\generated_images\results_problem_6\sample_0_0012.png,,C:\Users\subject\Desktop\SVRT Experiments\SVRT Experiment 3\svrt_images\generated_images\results_problem_10\sample_0_0001.png,C:\Users\subject\Desktop\SVRT Experiments\SVRT Experiment 3\svrt_images\generated_images\results_problem_14\sample_1_0015.png,C:\Users\subject\Desktop\SVRT Experiments\SVRT Experiment 3\svrt_images\generated_images\results_problem_16\sample_1_0005.png,C:\Users\subject\Desktop\SVRT Experiments\SVRT Experiment 3\svrt_images\generated_images\results_problem_5\sample_0_0015.png,,,,,,,,,,,,,,,,,0,6,6,6,0,0,0,0,,,,,,,,,,,,,,f,5,A,B,27,0,Incorrect!,1.4358018999919295,970.6714165000012,None,970.6714165000012,None,972.1381720000063,None,,,,,108,001,2023-10-10_11h18.02.138,uncolored_sorted,2021.2.3,60.00085201509375,
C:\Users\subject\Desktop\SVRT Experiments\SVRT Experiment 3\svrt_images\generated_images\results_problem_5,,C:\Users\subject\Desktop\SVRT Experiments\SVRT Experiment 3\svrt_images\generated_images\results_problem_6\sample_0_0012.png,,C:\Users\subject\Desktop\SVRT Experiments\SVRT Experiment 3\svrt_images\generated_images\results_problem_10\sample_0_0001.png,C:\Users\subject\Desktop\SVRT Experiments\SVRT Experiment 3\svrt_images\generated_images\results_problem_14\sample_1_0015.png,C:\Users\subject\Desktop\SVRT Experiments\SVRT Experiment 3\svrt_images\generated_images\results_problem_16\sample_1_0005.png,C:\Users\subject\Desktop\SVRT Experiments\SVRT Experiment 3\svrt_images\generated_images\results_problem_5\sample_1_0013.png,,,,,,,,,,,,,,,,,0,6,6,6,0,1,1,1,,,,,,,,,,,,,,f,5,A,A,27,1,Correct!,2.0404856000095606,973.1547819999978,None,973.1547819999978,None,975.2213861999917,None,,,,,108,001,2023-10-10_11h18.02.138,uncolored_sorted,2021.2.3,60.00085201509375,
C:\Users\subject\Desktop\SVRT Experiments\SVRT Experiment 3\svrt_images\generated_images\results_problem_5,,C:\Users\subject\Desktop\SVRT Experiments\SVRT Experiment 3\svrt_images\generated_images\results_problem_6\sample_0_0012.png,,C:\Users\subject\Desktop\SVRT Experiments\SVRT Experiment 3\svrt_images\generated_images\results_problem_10\sample_0_0001.png,C:\Users\subject\Desktop\SVRT Experiments\SVRT Experiment 3\svrt_images\generated_images\results_problem_14\sample_1_0015.png,C:\Users\subject\Desktop\SVRT Experiments\SVRT Experiment 3\svrt_images\generated_images\results_problem_16\sample_1_0005.png,C:\Users\subject\Desktop\SVRT Experiments\SVRT Experiment 3\svrt_images\generated_images\results_problem_5\sample_1_0009.png,,,,,,,,,,,,,,,,,0,6,6,6,0,2,2,2,,,,,,,,,,,,,,f,5,A,A,27,1,Correct!,4.061329800024396,976.2379715999996,None,976.2379715999996,None,980.3212016999896,None,,,,,108,001,2023-10-10_11h18.02.138,uncolored_sorted,2021.2.3,60.00085201509375,
C:\Users\subject\Desktop\SVRT Experiments\SVRT Experiment 3\svrt_images\generated_images\results_problem_5,,C:\Users\subject\Desktop\SVRT Experiments\SVRT Experiment 3\svrt_images\generated_images\results_problem_6\sample_0_0012.png,,C:\Users\subject\Desktop\SVRT Experiments\SVRT Experiment 3\svrt_images\generated_images\results_problem_10\sample_0_0001.png,C:\Users\subject\Desktop\SVRT Experiments\SVRT Experiment 3\svrt_images\generated_images\results_problem_14\sample_1_0015.png,C:\Users\subject\Desktop\SVRT Experiments\SVRT Experiment 3\svrt_images\generated_images\results_problem_16\sample_1_0005.png,C:\Users\subject\Desktop\SVRT Experiments\SVRT Experiment 3\svrt_images\generated_images\results_problem_5\sample_1_0015.png,,,,,,,,,,,,,,,,,0,6,6,6,0,3,3,3,,,,,,,,,,,,,,j,5,B,A,27,0,Incorrect!,1.4087248000141699,981.354493699997,None,981.354493699997,None,982.7873765999975,None,,,,,108,001,2023-10-10_11h18.02.138,uncolored_sorted,2021.2.3,60.00085201509375,
C:\Users\subject\Desktop\SVRT Experiments\SVRT Experiment 3\svrt_images\generated_images\results_problem_5,,C:\Users\subject\Desktop\SVRT Experiments\SVRT Experiment 3\svrt_images\generated_images\results_problem_6\sample_0_0012.png,,C:\Users\subject\Desktop\SVRT Experiments\SVRT Experiment 3\svrt_images\generated_images\results_problem_10\sample_0_0001.png,C:\Users\subject\Desktop\SVRT Experiments\SVRT Experiment 3\svrt_images\generated_images\results_problem_14\sample_1_0015.png,C:\Users\subject\Desktop\SVRT Experiments\SVRT Experiment 3\svrt_images\generated_images\results_problem_16\sample_1_0005.png,C:\Users\subject\Desktop\SVRT Experiments\SVRT Experiment 3\svrt_images\generated_images\results_problem_5\sample_1_0005.png,,,,,,,,,,,,,,,,,0,6,6,6,0,4,4,4,,,,,,,,,,,,,,f,5,A,A,27,1,Correct!,26.398833899991587,983.8206665999896,None,983.8206665999896,None,1010.2524299999932,None,,,,,108,001,2023-10-10_11h18.02.138,uncolored_sorted,2021.2.3,60.00085201509375,
C:\Users\subject\Desktop\SVRT Experiments\SVRT Experiment 3\svrt_images\generated_images\results_problem_5,,C:\Users\subject\Desktop\SVRT Experiments\SVRT Experiment 3\svrt_images\generated_images\results_problem_6\sample_0_0012.png,,C:\Users\subject\Desktop\SVRT Experiments\SVRT Experiment 3\svrt_images\generated_images\results_problem_10\sample_0_0001.png,C:\Users\subject\Desktop\SVRT Experiments\SVRT Experiment 3\svrt_images\generated_images\results_problem_14\sample_1_0015.png,C:\Users\subject\Desktop\SVRT Experiments\SVRT Experiment 3\svrt_images\generated_images\results_problem_16\sample_1_0005.png,C:\Users\subject\Desktop\SVRT Experiments\SVRT Experiment 3\svrt_images\generated_images\results_problem_5\sample_1_0006.png,,,,,,,,,,,,,,,,,0,6,6,6,0,5,5,5,,,,,,,,,,,,,,j,5,B,A,27,0,Incorrect!,1.4456254999968223,1011.2857176999969,None,1011.2857176999969,None,1012.7522630000021,None,,,,,108,001,2023-10-10_11h18.02.138,uncolored_sorted,2021.2.3,60.00085201509375,
C:\Users\subject\Desktop\SVRT Experiments\SVRT Experiment 3\svrt_images\generated_images\results_problem_5,,C:\Users\subject\Desktop\SVRT Experiments\SVRT Experiment 3\svrt_images\generated_images\results_problem_6\sample_0_0012.png,,C:\Users\subject\Desktop\SVRT Experiments\SVRT Experiment 3\svrt_images\generated_images\results_problem_10\sample_0_0001.png,C:\Users\subject\Desktop\SVRT Experiments\SVRT Experiment 3\svrt_images\generated_images\results_problem_14\sample_1_0015.png,C:\Users\subject\Desktop\SVRT Experiments\SVRT Experiment 3\svrt_images\generated_images\results_problem_16\sample_1_0005.png,C:\Users\subject\Desktop\SVRT Experiments\SVRT Experiment 3\svrt_images\generated_images\results_problem_5\sample_1_0004.png,,,,,,,,,,,,,,,,,0,6,6,6,0,6,6,6,,,,,,,,,,,,,,j,5,B,A,27,0,Incorrect!,1.7292129000124987,1013.8021993000002,None,1013.8021993000002,None,1015.5521302999987,None,,,,,108,001,2023-10-10_11h18.02.138,uncolored_sorted,2021.2.3,60.00085201509375,
C:\Users\subject\Desktop\SVRT Experiments\SVRT Experiment 3\svrt_images\generated_images\results_problem_5,,C:\Users\subject\Desktop\SVRT Experiments\SVRT Experiment 3\svrt_images\generated_images\results_problem_6\sample_0_0012.png,,C:\Users\subject\Desktop\SVRT Experiments\SVRT Experiment 3\svrt_images\generated_images\results_problem_10\sample_0_0001.png,C:\Users\subject\Desktop\SVRT Experiments\SVRT Experiment 3\svrt_images\generated_images\results_problem_14\sample_1_0015.png,C:\Users\subject\Desktop\SVRT Experiments\SVRT Experiment 3\svrt_images\generated_images\results_problem_16\sample_1_0005.png,C:\Users\subject\Desktop\SVRT Experiments\SVRT Experiment 3\svrt_images\generated_images\results_problem_5\sample_1_0010.png,,,,,,,,,,,,,,,,,0,6,6,6,0,7,7,7,,,,,,,,,,,,,,f,5,A,A,27,1,Correct!,1.6336433999822475,1016.6019848999858,None,1016.6019848999858,None,1018.26850440001,None,,,,,108,001,2023-10-10_11h18.02.138,uncolored_sorted,2021.2.3,60.00085201509375,
C:\Users\subject\Desktop\SVRT Experiments\SVRT Experiment 3\svrt_images\generated_images\results_problem_5,,C:\Users\subject\Desktop\SVRT Experiments\SVRT Experiment 3\svrt_images\generated_images\results_problem_6\sample_0_0012.png,,C:\Users\subject\Desktop\SVRT Experiments\SVRT Experiment 3\svrt_images\generated_images\results_problem_10\sample_0_0001.png,C:\Users\subject\Desktop\SVRT Experiments\SVRT Experiment 3\svrt_images\generated_images\results_problem_14\sample_1_0015.png,C:\Users\subject\Desktop\SVRT Experiments\SVRT Experiment 3\svrt_images\generated_images\results_problem_16\sample_1_0005.png,C:\Users\subject\Desktop\SVRT Experiments\SVRT Experiment 3\svrt_images\generated_images\results_problem_5\sample_0_0006.png,,,,,,,,,,,,,,,,,0,6,6,6,0,8,8,8,,,,,,,,,,,,,,f,5,A,B,27,0,Incorrect!,0.9962569999916013,1019.3351045000018,None,1019.3351045000018,None,1020.3518267000036,None,,,,,108,001,2023-10-10_11h18.02.138,uncolored_sorted,2021.2.3,60.00085201509375,
C:\Users\subject\Desktop\SVRT Experiments\SVRT Experiment 3\svrt_images\generated_images\results_problem_5,,C:\Users\subject\Desktop\SVRT Experiments\SVRT Experiment 3\svrt_images\generated_images\results_problem_6\sample_0_0012.png,,C:\Users\subject\Desktop\SVRT Experiments\SVRT Experiment 3\svrt_images\generated_images\results_problem_10\sample_0_0001.png,C:\Users\subject\Desktop\SVRT Experiments\SVRT Experiment 3\svrt_images\generated_images\results_problem_14\sample_1_0015.png,C:\Users\subject\Desktop\SVRT Experiments\SVRT Experiment 3\svrt_images\generated_images\results_problem_16\sample_1_0005.png,C:\Users\subject\Desktop\SVRT Experiments\SVRT Experiment 3\svrt_images\generated_images\results_problem_5\sample_0_0013.png,,,,,,,,,,,,,,,,,0,6,6,6,0,9,9,9,,,,,,,,,,,,,,j,5,B,B,27,1,Correct!,0.8968204999982845,1021.4184180999873,None,1021.4184180999873,None,1022.3348850999901,None,,,,,108,001,2023-10-10_11h18.02.138,uncolored_sorted,2021.2.3,60.00085201509375,
C:\Users\subject\Desktop\SVRT Experiments\SVRT Experiment 3\svrt_images\generated_images\results_problem_5,,C:\Users\subject\Desktop\SVRT Experiments\SVRT Experiment 3\svrt_images\generated_images\results_problem_6\sample_0_0012.png,,C:\Users\subject\Desktop\SVRT Experiments\SVRT Experiment 3\svrt_images\generated_images\results_problem_10\sample_0_0001.png,C:\Users\subject\Desktop\SVRT Experiments\SVRT Experiment 3\svrt_images\generated_images\results_problem_14\sample_1_0015.png,C:\Users\subject\Desktop\SVRT Experiments\SVRT Experiment 3\svrt_images\generated_images\results_problem_16\sample_1_0005.png,C:\Users\subject\Desktop\SVRT Experiments\SVRT Experiment 3\svrt_images\generated_images\results_problem_5\sample_0_0003.png,,,,,,,,,,,,,,,,,0,6,6,6,0,10,10,10,,,,,,,,,,,,,,j,5,B,B,27,1,Correct!,0.6740063000179362,1023.4014176999917,None,1023.4014176999917,None,1024.1014197999903,None,,,,,108,001,2023-10-10_11h18.02.138,uncolored_sorted,2021.2.3,60.00085201509375,
C:\Users\subject\Desktop\SVRT Experiments\SVRT Experiment 3\svrt_images\generated_images\results_problem_5,,C:\Users\subject\Desktop\SVRT Experiments\SVRT Experiment 3\svrt_images\generated_images\results_problem_6\sample_0_0012.png,,C:\Users\subject\Desktop\SVRT Experiments\SVRT Experiment 3\svrt_images\generated_images\results_problem_10\sample_0_0001.png,C:\Users\subject\Desktop\SVRT Experiments\SVRT Experiment 3\svrt_images\generated_images\results_problem_14\sample_1_0015.png,C:\Users\subject\Desktop\SVRT Experiments\SVRT Experiment 3\svrt_images\generated_images\results_problem_16\sample_1_0005.png,C:\Users\subject\Desktop\SVRT Experiments\SVRT Experiment 3\svrt_images\generated_images\results_problem_5\sample_1_0000.png,,,,,,,,,,,,,,,,,0,6,6,6,0,11,11,11,,,,,,,,,,,,,,f,5,A,A,27,1,Correct!,0.8272675000189338,1025.1680305000045,None,1025.1680305000045,None,1026.0181581999932,None,,,,,108,001,2023-10-10_11h18.02.138,uncolored_sorted,2021.2.3,60.00085201509375,
C:\Users\subject\Desktop\SVRT Experiments\SVRT Experiment 3\svrt_images\generated_images\results_problem_5,,C:\Users\subject\Desktop\SVRT Experiments\SVRT Experiment 3\svrt_images\generated_images\results_problem_6\sample_0_0012.png,,C:\Users\subject\Desktop\SVRT Experiments\SVRT Experiment 3\svrt_images\generated_images\results_problem_10\sample_0_0001.png,C:\Users\subject\Desktop\SVRT Experiments\SVRT Experiment 3\svrt_images\generated_images\results_problem_14\sample_1_0015.png,C:\Users\subject\Desktop\SVRT Experiments\SVRT Experiment 3\svrt_images\generated_images\results_problem_16\sample_1_0005.png,C:\Users\subject\Desktop\SVRT Experiments\SVRT Experiment 3\svrt_images\generated_images\results_problem_5\sample_0_0008.png,,,,,,,,,,,,,,,,,0,6,6,6,0,12,12,12,,,,,,,,,,,,,,j,5,B,B,27,1,Correct!,1.085889899986796,1027.1014274999907,None,1027.1014274999907,None,1028.2180372999865,None,,,,,108,001,2023-10-10_11h18.02.138,uncolored_sorted,2021.2.3,60.00085201509375,
C:\Users\subject\Desktop\SVRT Experiments\SVRT Experiment 3\svrt_images\generated_images\results_problem_5,,C:\Users\subject\Desktop\SVRT Experiments\SVRT Experiment 3\svrt_images\generated_images\results_problem_6\sample_0_0012.png,,C:\Users\subject\Desktop\SVRT Experiments\SVRT Experiment 3\svrt_images\generated_images\results_problem_10\sample_0_0001.png,C:\Users\subject\Desktop\SVRT Experiments\SVRT Experiment 3\svrt_images\generated_images\results_problem_14\sample_1_0015.png,C:\Users\subject\Desktop\SVRT Experiments\SVRT Experiment 3\svrt_images\generated_images\results_problem_16\sample_1_0005.png,C:\Users\subject\Desktop\SVRT Experiments\SVRT Experiment 3\svrt_images\generated_images\results_problem_5\sample_0_0011.png,,,,,,,,,,,,,,,,,0,6,6,6,0,13,13,13,,,,,,,,,,,,,,j,5,B,B,27,1,Correct!,0.854001799976686,1029.3012757000106,None,1029.3012757000106,None,1030.184578299988,None,,,,,108,001,2023-10-10_11h18.02.138,uncolored_sorted,2021.2.3,60.00085201509375,
C:\Users\subject\Desktop\SVRT Experiments\SVRT Experiment 3\svrt_images\generated_images\results_problem_5,,C:\Users\subject\Desktop\SVRT Experiments\SVRT Experiment 3\svrt_images\generated_images\results_problem_6\sample_0_0012.png,,C:\Users\subject\Desktop\SVRT Experiments\SVRT Experiment 3\svrt_images\generated_images\results_problem_10\sample_0_0001.png,C:\Users\subject\Desktop\SVRT Experiments\SVRT Experiment 3\svrt_images\generated_images\results_problem_14\sample_1_0015.png,C:\Users\subject\Desktop\SVRT Experiments\SVRT Experiment 3\svrt_images\generated_images\results_problem_16\sample_1_0005.png,C:\Users\subject\Desktop\SVRT Experiments\SVRT Experiment 3\svrt_images\generated_images\results_problem_5\sample_1_0014.png,,,,,,,,,,,,,,,,,0,6,6,6,0,14,14,14,,,,,,,,,,,,,,j,5,B,A,27,0,Incorrect!,1.0148412000271492,1031.2845209999941,None,1031.2845209999941,None,1032.3344811999996,None,,,,,108,001,2023-10-10_11h18.02.138,uncolored_sorted,2021.2.3,60.00085201509375,
C:\Users\subject\Desktop\SVRT Experiments\SVRT Experiment 3\svrt_images\generated_images\results_problem_5,,C:\Users\subject\Desktop\SVRT Experiments\SVRT Experiment 3\svrt_images\generated_images\results_problem_6\sample_0_0012.png,,C:\Users\subject\Desktop\SVRT Experiments\SVRT Experiment 3\svrt_images\generated_images\results_problem_10\sample_0_0001.png,C:\Users\subject\Desktop\SVRT Experiments\SVRT Experiment 3\svrt_images\generated_images\results_problem_14\sample_1_0015.png,C:\Users\subject\Desktop\SVRT Experiments\SVRT Experiment 3\svrt_images\generated_images\results_problem_16\sample_1_0005.png,C:\Users\subject\Desktop\SVRT Experiments\SVRT Experiment 3\svrt_images\generated_images\results_problem_5\sample_1_0011.png,,,,,,,,,,,,,,,,,0,6,6,6,0,15,15,15,,,,,,,,,,,,,,f,5,A,A,27,1,Correct!,1.1529786000028253,1033.434390999988,None,1033.434390999988,None,1034.6176528999931,None,,,,,108,001,2023-10-10_11h18.02.138,uncolored_sorted,2021.2.3,60.00085201509375,
C:\Users\subject\Desktop\SVRT Experiments\SVRT Experiment 3\svrt_images\generated_images\results_problem_5,,C:\Users\subject\Desktop\SVRT Experiments\SVRT Experiment 3\svrt_images\generated_images\results_problem_6\sample_0_0012.png,,C:\Users\subject\Desktop\SVRT Experiments\SVRT Experiment 3\svrt_images\generated_images\results_problem_10\sample_0_0001.png,C:\Users\subject\Desktop\SVRT Experiments\SVRT Experiment 3\svrt_images\generated_images\results_problem_14\sample_1_0015.png,C:\Users\subject\Desktop\SVRT Experiments\SVRT Experiment 3\svrt_images\generated_images\results_problem_16\sample_1_0005.png,C:\Users\subject\Desktop\SVRT Experiments\SVRT Experiment 3\svrt_images\generated_images\results_problem_5\sample_0_0007.png,,,,,,,,,,,,,,,,,0,6,6,6,0,16,16,16,,,,,,,,,,,,,,j,5,B,B,27,1,Correct!,1.188355699996464,1035.7509852999938,None,1035.7509852999938,None,1036.9675112999976,None,,,,,108,001,2023-10-10_11h18.02.138,uncolored_sorted,2021.2.3,60.00085201509375,
C:\Users\subject\Desktop\SVRT Experiments\SVRT Experiment 3\svrt_images\generated_images\results_problem_5,,C:\Users\subject\Desktop\SVRT Experiments\SVRT Experiment 3\svrt_images\generated_images\results_problem_6\sample_0_0012.png,,C:\Users\subject\Desktop\SVRT Experiments\SVRT Experiment 3\svrt_images\generated_images\results_problem_10\sample_0_0001.png,C:\Users\subject\Desktop\SVRT Experiments\SVRT Experiment 3\svrt_images\generated_images\results_problem_14\sample_1_0015.png,C:\Users\subject\Desktop\SVRT Experiments\SVRT Experiment 3\svrt_images\generated_images\results_problem_16\sample_1_0005.png,C:\Users\subject\Desktop\SVRT Experiments\SVRT Experiment 3\svrt_images\generated_images\results_problem_5\sample_0_0016.png,,,,,,,,,,,,,,,,,0,6,6,6,0,17,17,17,,,,,,,,,,,,,,j,5,B,B,27,1,Correct!,0.9666856999974698,1038.1007730999845,None,1038.1007730999845,None,1039.1173761999817,None,,,,,108,001,2023-10-10_11h18.02.138,uncolored_sorted,2021.2.3,60.00085201509375,
