folder,results_problem_4,results_problem_5,results_problem_10,results_problem_2,results_problem_20,results_problem_6,results_problem_11,results_problem_8,results_problem_7,results_problem_12,results_problem_16,results_problem_3,results_problem_13,results_problem_19,results_problem_18,results_problem_17,results_problem_14,results_problem_23,results_problem_15,results_problem_21,results_problem_9,results_problem_1,results_problem_22,categories.thisRepN,categories.thisTrialN,categories.thisN,categories.thisIndex,trials.thisRepN,trials.thisTrialN,trials.thisN,trials.thisIndex,consent_text.started,consent_kb.started,consent_kb.keys,consent_kb.rt,Gender.keys,Gender.rt,Age,instructions_text.started,instructions_text.stopped,instructions_kb.keys,instructions_kb.rt,instructions_kb.started,instructions_kb.stopped,trial_kb.keys,current_problem_num,category_resp,answer,seed,accuracy,feedback,trial_kb.rt,trial_kb.started,trial_kb.stopped,trial_image.started,trial_image.stopped,feedback_text.started,feedback_text.stopped,new_problem_kb.started,new_problem_text.started,new_problem_kb.keys,new_problem_kb.rt,Participant #,session,date,expName,psychopyVersion,frameRate,
,,,,,,,,,,,,,,,,,,,,,,,,,,,,,,,,12.921146100037731,12.921146100037731,y,827.3292664000764,,,,,,,,,,,,,,,,,,,,,,,,,,,,109,001,2023-10-10_11h15.35.449,colored_shuffled,2021.2.3,59.961924209301394,
,,,,,,,,,,,,,,,,,,,,,,,,,,,,,,,,,,,,w,11.630510100047104,,,,,,,,,,,,,,,,,,,,,,,,,,109,001,2023-10-10_11h15.35.449,colored_shuffled,2021.2.3,59.961924209301394,
,,,,,,,,,,,,,,,,,,,,,,,,,,,,,,,,,,,,,,19,863.5179195000092,None,space,29.332081200089306,863.5179195000092,None,,,,,,,,,,,,,,,,,,,109,001,2023-10-10_11h15.35.449,colored_shuffled,2021.2.3,59.961924209301394,
C:\Users\subject\Desktop\SVRT Experiments\SVRT Experiment 3\svrt_images\generated_images\results_problem_4,C:\Users\subject\Desktop\SVRT Experiments\SVRT Experiment 3\svrt_images\generated_images\results_problem_4\sample_0_0003.png,,,,,,,,,,,,,,,,,,,,,,,0,0,0,0,0,0,0,0,,,,,,,,,,,,,,f,4,A,B,28,0,Incorrect!,20.77652960002888,892.8733352000127,None,892.8733352000127,None,913.6723972000182,None,,,,,109,001,2023-10-10_11h15.35.449,colored_shuffled,2021.2.3,59.961924209301394,
C:\Users\subject\Desktop\SVRT Experiments\SVRT Experiment 3\svrt_images\generated_images\results_problem_4,C:\Users\subject\Desktop\SVRT Experiments\SVRT Experiment 3\svrt_images\generated_images\results_problem_4\sample_1_0005.png,,,,,,,,,,,,,,,,,,,,,,,0,0,0,0,0,1,1,1,,,,,,,,,,,,,,j,4,B,A,28,0,Incorrect!,2.168712900020182,914.6731199000496,None,914.6731199000496,None,916.874814699986,None,,,,,109,001,2023-10-10_11h15.35.449,colored_shuffled,2021.2.3,59.961924209301394,
C:\Users\subject\Desktop\SVRT Experiments\SVRT Experiment 3\svrt_images\generated_images\results_problem_4,C:\Users\subject\Desktop\SVRT Experiments\SVRT Experiment 3\svrt_images\generated_images\results_problem_4\sample_1_0002.png,,,,,,,,,,,,,,,,,,,,,,,0,0,0,0,0,2,2,2,,,,,,,,,,,,,,f,4,A,A,28,1,Correct!,1.0535514000803232,917.8922531999415,None,917.8922531999415,None,918.9764013999375,None,,,,,109,001,2023-10-10_11h15.35.449,colored_shuffled,2021.2.3,59.961924209301394,
C:\Users\subject\Desktop\SVRT Experiments\SVRT Experiment 3\svrt_images\generated_images\results_problem_4,C:\Users\subject\Desktop\SVRT Experiments\SVRT Experiment 3\svrt_images\generated_images\results_problem_4\sample_0_0010.png,,,,,,,,,,,,,,,,,,,,,,,0,0,0,0,0,3,3,3,,,,,,,,,,,,,,j,4,B,B,28,1,Correct!,1.3672800998901948,920.0105161999818,None,920.0105161999818,None,921.3948864999693,None,,,,,109,001,2023-10-10_11h15.35.449,colored_shuffled,2021.2.3,59.961924209301394,
C:\Users\subject\Desktop\SVRT Experiments\SVRT Experiment 3\svrt_images\generated_images\results_problem_4,C:\Users\subject\Desktop\SVRT Experiments\SVRT Experiment 3\svrt_images\generated_images\results_problem_4\sample_1_0008.png,,,,,,,,,,,,,,,,,,,,,,,0,0,0,0,0,4,4,4,,,,,,,,,,,,,,f,4,A,A,28,1,Correct!,0.5007769000949338,922.4290058000479,None,922.4290058000479,None,922.9627357999561,None,,,,,109,001,2023-10-10_11h15.35.449,colored_shuffled,2021.2.3,59.961924209301394,
C:\Users\subject\Desktop\SVRT Experiments\SVRT Experiment 3\svrt_images\generated_images\results_problem_4,C:\Users\subject\Desktop\SVRT Experiments\SVRT Experiment 3\svrt_images\generated_images\results_problem_4\sample_0_0007.png,,,,,,,,,,,,,,,,,,,,,,,0,0,0,0,0,5,5,5,,,,,,,,,,,,,,j,4,B,B,28,1,Correct!,0.2682299999287352,924.0135312000057,None,924.0135312000057,None,924.313753399998,None,,,,,109,001,2023-10-10_11h15.35.449,colored_shuffled,2021.2.3,59.961924209301394,
C:\Users\subject\Desktop\SVRT Experiments\SVRT Experiment 3\svrt_images\generated_images\results_problem_4,C:\Users\subject\Desktop\SVRT Experiments\SVRT Experiment 3\svrt_images\generated_images\results_problem_4\sample_0_0015.png,,,,,,,,,,,,,,,,,,,,,,,0,0,0,0,0,6,6,6,,,,,,,,,,,,,,f,4,A,B,28,0,Incorrect!,0.41254719998687506,925.3812343999743,None,925.3812343999743,None,925.814887400018,None,,,,,109,001,2023-10-10_11h15.35.449,colored_shuffled,2021.2.3,59.961924209301394,
C:\Users\subject\Desktop\SVRT Experiments\SVRT Experiment 3\svrt_images\generated_images\results_problem_4,C:\Users\subject\Desktop\SVRT Experiments\SVRT Experiment 3\svrt_images\generated_images\results_problem_4\sample_1_0015.png,,,,,,,,,,,,,,,,,,,,,,,0,0,0,0,0,7,7,7,,,,,,,,,,,,,,j,4,B,A,28,0,Incorrect!,2.1033611999591812,926.8823665999807,None,926.8823665999807,None,929.0172990999417,None,,,,,109,001,2023-10-10_11h15.35.449,colored_shuffled,2021.2.3,59.961924209301394,
C:\Users\subject\Desktop\SVRT Experiments\SVRT Experiment 3\svrt_images\generated_images\results_problem_4,C:\Users\subject\Desktop\SVRT Experiments\SVRT Experiment 3\svrt_images\generated_images\results_problem_4\sample_0_0016.png,,,,,,,,,,,,,,,,,,,,,,,0,0,0,0,0,8,8,8,,,,,,,,,,,,,,j,4,B,B,28,1,Correct!,0.908281399984844,930.1014528999804,None,930.1014528999804,None,931.0354972999776,None,,,,,109,001,2023-10-10_11h15.35.449,colored_shuffled,2021.2.3,59.961924209301394,
C:\Users\subject\Desktop\SVRT Experiments\SVRT Experiment 3\svrt_images\generated_images\results_problem_4,C:\Users\subject\Desktop\SVRT Experiments\SVRT Experiment 3\svrt_images\generated_images\results_problem_4\sample_0_0000.png,,,,,,,,,,,,,,,,,,,,,,,0,0,0,0,0,9,9,9,,,,,,,,,,,,,,f,4,A,B,28,0,Incorrect!,0.266032199957408,932.1196368000237,None,932.1196368000237,None,932.403163800016,None,,,,,109,001,2023-10-10_11h15.35.449,colored_shuffled,2021.2.3,59.961924209301394,
C:\Users\subject\Desktop\SVRT Experiments\SVRT Experiment 3\svrt_images\generated_images\results_problem_4,C:\Users\subject\Desktop\SVRT Experiments\SVRT Experiment 3\svrt_images\generated_images\results_problem_4\sample_0_0013.png,,,,,,,,,,,,,,,,,,,,,,,0,0,0,0,0,10,10,10,,,,,,,,,,,,,,j,4,B,B,28,1,Correct!,0.48170120001304895,933.5040214000037,None,933.5040214000037,None,934.0043945000507,None,,,,,109,001,2023-10-10_11h15.35.449,colored_shuffled,2021.2.3,59.961924209301394,
C:\Users\subject\Desktop\SVRT Experiments\SVRT Experiment 3\svrt_images\generated_images\results_problem_4,C:\Users\subject\Desktop\SVRT Experiments\SVRT Experiment 3\svrt_images\generated_images\results_problem_4\sample_1_0010.png,,,,,,,,,,,,,,,,,,,,,,,0,0,0,0,0,11,11,11,,,,,,,,,,,,,,j,4,B,A,28,0,Incorrect!,0.9445221000351012,935.1052299999865,None,935.1052299999865,None,936.0727099999785,None,,,,,109,001,2023-10-10_11h15.35.449,colored_shuffled,2021.2.3,59.961924209301394,
C:\Users\subject\Desktop\SVRT Experiments\SVRT Experiment 3\svrt_images\generated_images\results_problem_4,C:\Users\subject\Desktop\SVRT Experiments\SVRT Experiment 3\svrt_images\generated_images\results_problem_4\sample_1_0013.png,,,,,,,,,,,,,,,,,,,,,,,0,0,0,0,0,12,12,12,,,,,,,,,,,,,,j,4,B,A,28,0,Incorrect!,2.3554909001104534,937.1901350000408,None,937.1901350000408,None,939.5752605999587,None,,,,,109,001,2023-10-10_11h15.35.449,colored_shuffled,2021.2.3,59.961924209301394,
C:\Users\subject\Desktop\SVRT Experiments\SVRT Experiment 3\svrt_images\generated_images\results_problem_4,C:\Users\subject\Desktop\SVRT Experiments\SVRT Experiment 3\svrt_images\generated_images\results_problem_4\sample_0_0012.png,,,,,,,,,,,,,,,,,,,,,,,0,0,0,0,0,13,13,13,,,,,,,,,,,,,,j,4,B,B,28,1,Correct!,6.308858099975623,940.6927779000252,None,940.6927779000252,None,947.0308433000464,None,,,,,109,001,2023-10-10_11h15.35.449,colored_shuffled,2021.2.3,59.961924209301394,
C:\Users\subject\Desktop\SVRT Experiments\SVRT Experiment 3\svrt_images\generated_images\results_problem_4,C:\Users\subject\Desktop\SVRT Experiments\SVRT Experiment 3\svrt_images\generated_images\results_problem_4\sample_1_0004.png,,,,,,,,,,,,,,,,,,,,,,,0,0,0,0,0,14,14,14,,,,,,,,,,,,,,f,4,A,A,28,1,Correct!,0.29276119999121875,948.1650758000324,None,948.1650758000324,None,948.4819755000062,None,,,,,109,001,2023-10-10_11h15.35.449,colored_shuffled,2021.2.3,59.961924209301394,
C:\Users\subject\Desktop\SVRT Experiments\SVRT Experiment 3\svrt_images\generated_images\results_problem_4,C:\Users\subject\Desktop\SVRT Experiments\SVRT Experiment 3\svrt_images\generated_images\results_problem_4\sample_0_0001.png,,,,,,,,,,,,,,,,,,,,,,,0,0,0,0,0,15,15,15,,,,,,,,,,,,,,j,4,B,B,28,1,Correct!,0.21681819995865226,949.6328448000131,None,949.6328448000131,None,949.8663492000196,None,,,,,109,001,2023-10-10_11h15.35.449,colored_shuffled,2021.2.3,59.961924209301394,
C:\Users\subject\Desktop\SVRT Experiments\SVRT Experiment 3\svrt_images\generated_images\results_problem_4,C:\Users\subject\Desktop\SVRT Experiments\SVRT Experiment 3\svrt_images\generated_images\results_problem_4\sample_0_0005.png,,,,,,,,,,,,,,,,,,,,,,,0,0,0,0,0,16,16,16,,,,,,,,,,,,,,j,4,B,B,28,1,Correct!,0.4483508999692276,951.0172252999619,None,951.0172252999619,None,951.484232799965,None,,,,,109,001,2023-10-10_11h15.35.449,colored_shuffled,2021.2.3,59.961924209301394,
C:\Users\subject\Desktop\SVRT Experiments\SVRT Experiment 3\svrt_images\generated_images\results_problem_4,C:\Users\subject\Desktop\SVRT Experiments\SVRT Experiment 3\svrt_images\generated_images\results_problem_4\sample_0_0002.png,,,,,,,,,,,,,,,,,,,,,,,0,0,0,0,0,17,17,17,,,,,,,,,,,,,,f,4,A,B,28,0,Incorrect!,0.2697860000189394,952.6517874000128,None,952.6517874000128,None,952.9686884999974,None,,,,,109,001,2023-10-10_11h15.35.449,colored_shuffled,2021.2.3,59.961924209301394,
C:\Users\subject\Desktop\SVRT Experiments\SVRT Experiment 3\svrt_images\generated_images\results_problem_4,C:\Users\subject\Desktop\SVRT Experiments\SVRT Experiment 3\svrt_images\generated_images\results_problem_4\sample_1_0003.png,,,,,,,,,,,,,,,,,,,,,,,0,0,0,0,0,18,18,18,,,,,,,,,,,,,,j,4,B,A,28,0,Incorrect!,2.20861720002722,954.1529230000451,None,954.1529230000451,None,956.4046117999824,None,,,,,109,001,2023-10-10_11h15.35.449,colored_shuffled,2021.2.3,59.961924209301394,
C:\Users\subject\Desktop\SVRT Experiments\SVRT Experiment 3\svrt_images\generated_images\results_problem_4,C:\Users\subject\Desktop\SVRT Experiments\SVRT Experiment 3\svrt_images\generated_images\results_problem_4\sample_1_0016.png,,,,,,,,,,,,,,,,,,,,,,,0,0,0,0,0,19,19,19,,,,,,,,,,,,,,j,4,B,A,28,0,Incorrect!,4.691987399943173,957.6055212999927,None,957.6055212999927,None,962.3257406000048,None,,,,,109,001,2023-10-10_11h15.35.449,colored_shuffled,2021.2.3,59.961924209301394,
C:\Users\subject\Desktop\SVRT Experiments\SVRT Experiment 3\svrt_images\generated_images\results_problem_4,C:\Users\subject\Desktop\SVRT Experiments\SVRT Experiment 3\svrt_images\generated_images\results_problem_4\sample_0_0008.png,,,,,,,,,,,,,,,,,,,,,,,0,0,0,0,0,20,20,20,,,,,,,,,,,,,,j,4,B,B,28,1,Correct!,2.45084270008374,963.5266544000478,None,963.5266544000478,None,966.0118551000487,None,,,,,109,001,2023-10-10_11h15.35.449,colored_shuffled,2021.2.3,59.961924209301394,
C:\Users\subject\Desktop\SVRT Experiments\SVRT Experiment 3\svrt_images\generated_images\results_problem_4,C:\Users\subject\Desktop\SVRT Experiments\SVRT Experiment 3\svrt_images\generated_images\results_problem_4\sample_1_0009.png,,,,,,,,,,,,,,,,,,,,,,,0,0,0,0,0,21,21,21,,,,,,,,,,,,,,j,4,B,A,28,0,Incorrect!,0.5800208000000566,967.2294516999973,None,967.2294516999973,None,967.8465679000365,None,,,,,109,001,2023-10-10_11h15.35.449,colored_shuffled,2021.2.3,59.961924209301394,
C:\Users\subject\Desktop\SVRT Experiments\SVRT Experiment 3\svrt_images\generated_images\results_problem_4,C:\Users\subject\Desktop\SVRT Experiments\SVRT Experiment 3\svrt_images\generated_images\results_problem_4\sample_0_0009.png,,,,,,,,,,,,,,,,,,,,,,,0,0,0,0,0,22,22,22,,,,,,,,,,,,,,f,4,A,B,28,0,Incorrect!,0.6406202000798658,969.0808393999469,None,969.0808393999469,None,969.7646824000403,None,,,,,109,001,2023-10-10_11h15.35.449,colored_shuffled,2021.2.3,59.961924209301394,
C:\Users\subject\Desktop\SVRT Experiments\SVRT Experiment 3\svrt_images\generated_images\results_problem_4,C:\Users\subject\Desktop\SVRT Experiments\SVRT Experiment 3\svrt_images\generated_images\results_problem_4\sample_1_0001.png,,,,,,,,,,,,,,,,,,,,,,,0,0,0,0,0,23,23,23,,,,,,,,,,,,,,j,4,B,A,28,0,Incorrect!,0.27458630001638085,970.9989554999629,None,970.9989554999629,None,971.31584689999,None,,,,,109,001,2023-10-10_11h15.35.449,colored_shuffled,2021.2.3,59.961924209301394,
C:\Users\subject\Desktop\SVRT Experiments\SVRT Experiment 3\svrt_images\generated_images\results_problem_4,C:\Users\subject\Desktop\SVRT Experiments\SVRT Experiment 3\svrt_images\generated_images\results_problem_4\sample_1_0011.png,,,,,,,,,,,,,,,,,,,,,,,0,0,0,0,0,24,24,24,,,,,,,,,,,,,,j,4,B,A,28,0,Incorrect!,0.25064390001352876,972.5667976000113,None,972.5667976000113,None,972.8503383999923,None,,,,,109,001,2023-10-10_11h15.35.449,colored_shuffled,2021.2.3,59.961924209301394,
C:\Users\subject\Desktop\SVRT Experiments\SVRT Experiment 3\svrt_images\generated_images\results_problem_4,C:\Users\subject\Desktop\SVRT Experiments\SVRT Experiment 3\svrt_images\generated_images\results_problem_4\sample_0_0011.png,,,,,,,,,,,,,,,,,,,,,,,0,0,0,0,0,25,25,25,,,,,,,,,,,,,,j,4,B,B,28,1,Correct!,0.30744320002850145,974.1179762999527,None,974.1179762999527,None,974.4682180000236,None,,,,,109,001,2023-10-10_11h15.35.449,colored_shuffled,2021.2.3,59.961924209301394,
C:\Users\subject\Desktop\SVRT Experiments\SVRT Experiment 3\svrt_images\generated_images\results_problem_4,C:\Users\subject\Desktop\SVRT Experiments\SVRT Experiment 3\svrt_images\generated_images\results_problem_4\sample_0_0006.png,,,,,,,,,,,,,,,,,,,,,,,0,0,0,0,0,26,26,26,,,,,,,,,,,,,,f,4,A,B,28,0,Incorrect!,0.2648696999531239,975.7525343999732,None,975.7525343999732,None,976.0527311000042,None,,,,,109,001,2023-10-10_11h15.35.449,colored_shuffled,2021.2.3,59.961924209301394,
C:\Users\subject\Desktop\SVRT Experiments\SVRT Experiment 3\svrt_images\generated_images\results_problem_4,C:\Users\subject\Desktop\SVRT Experiments\SVRT Experiment 3\svrt_images\generated_images\results_problem_4\sample_0_0004.png,,,,,,,,,,,,,,,,,,,,,,,0,0,0,0,0,27,27,27,,,,,,,,,,,,,,j,4,B,B,28,1,Correct!,0.23167310003191233,977.3537432999583,None,977.3537432999583,None,977.620605199947,None,,,,,109,001,2023-10-10_11h15.35.449,colored_shuffled,2021.2.3,59.961924209301394,
C:\Users\subject\Desktop\SVRT Experiments\SVRT Experiment 3\svrt_images\generated_images\results_problem_4,C:\Users\subject\Desktop\SVRT Experiments\SVRT Experiment 3\svrt_images\generated_images\results_problem_4\sample_1_0007.png,,,,,,,,,,,,,,,,,,,,,,,0,0,0,0,0,28,28,28,,,,,,,,,,,,,,j,4,B,A,28,0,Incorrect!,1.3917994999792427,978.9215965999756,None,978.9215965999756,None,980.3393399999477,None,,,,,109,001,2023-10-10_11h15.35.449,colored_shuffled,2021.2.3,59.961924209301394,
C:\Users\subject\Desktop\SVRT Experiments\SVRT Experiment 3\svrt_images\generated_images\results_problem_4,C:\Users\subject\Desktop\SVRT Experiments\SVRT Experiment 3\svrt_images\generated_images\results_problem_4\sample_1_0012.png,,,,,,,,,,,,,,,,,,,,,,,0,0,0,0,0,29,29,29,,,,,,,,,,,,,,j,4,B,A,28,0,Incorrect!,0.3043897000607103,981.6569890000392,None,981.6569890000392,None,982.0239207999548,None,,,,,109,001,2023-10-10_11h15.35.449,colored_shuffled,2021.2.3,59.961924209301394,
C:\Users\subject\Desktop\SVRT Experiments\SVRT Experiment 3\svrt_images\generated_images\results_problem_4,C:\Users\subject\Desktop\SVRT Experiments\SVRT Experiment 3\svrt_images\generated_images\results_problem_4\sample_1_0006.png,,,,,,,,,,,,,,,,,,,,,,,0,0,0,0,0,30,30,30,,,,,,,,,,,,,,j,4,B,A,28,0,Incorrect!,0.35507659998256713,983.3582726999884,None,983.3582726999884,None,983.7752398999874,None,,,,,109,001,2023-10-10_11h15.35.449,colored_shuffled,2021.2.3,59.961924209301394,
C:\Users\subject\Desktop\SVRT Experiments\SVRT Experiment 3\svrt_images\generated_images\results_problem_4,C:\Users\subject\Desktop\SVRT Experiments\SVRT Experiment 3\svrt_images\generated_images\results_problem_4\sample_1_0014.png,,,,,,,,,,,,,,,,,,,,,,,0,0,0,0,0,31,31,31,,,,,,,,,,,,,,j,4,B,A,28,0,Incorrect!,0.41175929992459714,985.1095886999974,None,985.1095886999974,None,985.5599192000227,None,,,,,109,001,2023-10-10_11h15.35.449,colored_shuffled,2021.2.3,59.961924209301394,
C:\Users\subject\Desktop\SVRT Experiments\SVRT Experiment 3\svrt_images\generated_images\results_problem_4,C:\Users\subject\Desktop\SVRT Experiments\SVRT Experiment 3\svrt_images\generated_images\results_problem_4\sample_1_0000.png,,,,,,,,,,,,,,,,,,,,,,,0,0,0,0,0,32,32,32,,,,,,,,,,,,,,f,4,A,A,28,1,Correct!,0.3057170999236405,986.9276266000234,None,986.9276266000234,None,987.2778859999962,None,,,,,109,001,2023-10-10_11h15.35.449,colored_shuffled,2021.2.3,59.961924209301394,
C:\Users\subject\Desktop\SVRT Experiments\SVRT Experiment 3\svrt_images\generated_images\results_problem_4,C:\Users\subject\Desktop\SVRT Experiments\SVRT Experiment 3\svrt_images\generated_images\results_problem_4\sample_0_0014.png,,,,,,,,,,,,,,,,,,,,,,,0,0,0,0,0,33,33,33,,,,,,,,,,,,,,f,4,A,B,28,0,Incorrect!,0.267741100047715,988.6455883999588,None,988.6455883999588,None,988.9958471000427,None,,,,,109,001,2023-10-10_11h15.35.449,colored_shuffled,2021.2.3,59.961924209301394,
C:\Users\subject\Desktop\SVRT Experiments\SVRT Experiment 3\svrt_images\generated_images\results_problem_4,,,,,,,,,,,,,,,,,,,,,,,,0,0,0,0,,,,,,,,,,,,,,,,,,,,,,,,,,,,,,,,989.9965962000424,989.9965962000424,space,3.1967646999983117,109,001,2023-10-10_11h15.35.449,colored_shuffled,2021.2.3,59.961924209301394,
C:\Users\subject\Desktop\SVRT Experiments\SVRT Experiment 3\svrt_images\generated_images\results_problem_5,,C:\Users\subject\Desktop\SVRT Experiments\SVRT Experiment 3\svrt_images\generated_images\results_problem_5\sample_1_0002.png,,,,,,,,,,,,,,,,,,,,,,0,1,1,1,0,0,0,0,,,,,,,,,,,,,,f,5,A,A,28,1,Correct!,14.94552119995933,993.2156522000441,None,993.2156522000441,None,1008.1936475000111,None,,,,,109,001,2023-10-10_11h15.35.449,colored_shuffled,2021.2.3,59.961924209301394,
C:\Users\subject\Desktop\SVRT Experiments\SVRT Experiment 3\svrt_images\generated_images\results_problem_5,,C:\Users\subject\Desktop\SVRT Experiments\SVRT Experiment 3\svrt_images\generated_images\results_problem_5\sample_0_0007.png,,,,,,,,,,,,,,,,,,,,,,0,1,1,1,0,1,1,1,,,,,,,,,,,,,,j,5,B,B,28,1,Correct!,1.3268589000217617,1009.1944046999561,None,1009.1944046999561,None,1010.5454196999781,None,,,,,109,001,2023-10-10_11h15.35.449,colored_shuffled,2021.2.3,59.961924209301394,
C:\Users\subject\Desktop\SVRT Experiments\SVRT Experiment 3\svrt_images\generated_images\results_problem_5,,C:\Users\subject\Desktop\SVRT Experiments\SVRT Experiment 3\svrt_images\generated_images\results_problem_5\sample_0_0008.png,,,,,,,,,,,,,,,,,,,,,,0,1,1,1,0,2,2,2,,,,,,,,,,,,,,f,5,A,B,28,0,Incorrect!,0.4623851999640465,1011.5628172999714,None,1011.5628172999714,None,1012.0465534999967,None,,,,,109,001,2023-10-10_11h15.35.449,colored_shuffled,2021.2.3,59.961924209301394,
C:\Users\subject\Desktop\SVRT Experiments\SVRT Experiment 3\svrt_images\generated_images\results_problem_5,,C:\Users\subject\Desktop\SVRT Experiments\SVRT Experiment 3\svrt_images\generated_images\results_problem_5\sample_1_0003.png,,,,,,,,,,,,,,,,,,,,,,0,1,1,1,0,3,3,3,,,,,,,,,,,,,,j,5,B,A,28,0,Incorrect!,13.689076700014994,1013.0639887000434,None,1013.0639887000434,None,1026.774319899967,None,,,,,109,001,2023-10-10_11h15.35.449,colored_shuffled,2021.2.3,59.961924209301394,
C:\Users\subject\Desktop\SVRT Experiments\SVRT Experiment 3\svrt_images\generated_images\results_problem_5,,C:\Users\subject\Desktop\SVRT Experiments\SVRT Experiment 3\svrt_images\generated_images\results_problem_5\sample_1_0013.png,,,,,,,,,,,,,,,,,,,,,,0,1,1,1,0,4,4,4,,,,,,,,,,,,,,j,5,B,A,28,0,Incorrect!,0.552608500001952,1027.8084367000265,None,1027.8084367000265,None,1028.3922085999511,None,,,,,109,001,2023-10-10_11h15.35.449,colored_shuffled,2021.2.3,59.961924209301394,
C:\Users\subject\Desktop\SVRT Experiments\SVRT Experiment 3\svrt_images\generated_images\results_problem_5,,C:\Users\subject\Desktop\SVRT Experiments\SVRT Experiment 3\svrt_images\generated_images\results_problem_5\sample_0_0006.png,,,,,,,,,,,,,,,,,,,,,,0,1,1,1,0,5,5,5,,,,,,,,,,,,,,f,5,A,B,28,0,Incorrect!,0.3340667999582365,1029.4430007999763,None,1029.4430007999763,None,1029.8099398999475,None,,,,,109,001,2023-10-10_11h15.35.449,colored_shuffled,2021.2.3,59.961924209301394,
C:\Users\subject\Desktop\SVRT Experiments\SVRT Experiment 3\svrt_images\generated_images\results_problem_5,,C:\Users\subject\Desktop\SVRT Experiments\SVRT Experiment 3\svrt_images\generated_images\results_problem_5\sample_1_0012.png,,,,,,,,,,,,,,,,,,,,,,0,1,1,1,0,6,6,6,,,,,,,,,,,,,,f,5,A,A,28,1,Correct!,11.860217200010084,1030.8607431999408,None,1030.8607431999408,None,1042.7530331000453,None,,,,,109,001,2023-10-10_11h15.35.449,colored_shuffled,2021.2.3,59.961924209301394,
C:\Users\subject\Desktop\SVRT Experiments\SVRT Experiment 3\svrt_images\generated_images\results_problem_5,,C:\Users\subject\Desktop\SVRT Experiments\SVRT Experiment 3\svrt_images\generated_images\results_problem_5\sample_0_0003.png,,,,,,,,,,,,,,,,,,,,,,0,1,1,1,0,7,7,7,,,,,,,,,,,,,,f,5,A,B,28,0,Incorrect!,0.2924651000648737,1043.820505199954,None,1043.820505199954,None,1044.1374084999552,None,,,,,109,001,2023-10-10_11h15.35.449,colored_shuffled,2021.2.3,59.961924209301394,
C:\Users\subject\Desktop\SVRT Experiments\SVRT Experiment 3\svrt_images\generated_images\results_problem_5,,C:\Users\subject\Desktop\SVRT Experiments\SVRT Experiment 3\svrt_images\generated_images\results_problem_5\sample_0_0002.png,,,,,,,,,,,,,,,,,,,,,,0,1,1,1,0,8,8,8,,,,,,,,,,,,,,j,5,B,B,28,1,Correct!,1.996002099942416,1045.2048860000214,None,1045.2048860000214,None,1047.22306270001,None,,,,,109,001,2023-10-10_11h15.35.449,colored_shuffled,2021.2.3,59.961924209301394,
C:\Users\subject\Desktop\SVRT Experiments\SVRT Experiment 3\svrt_images\generated_images\results_problem_5,,C:\Users\subject\Desktop\SVRT Experiments\SVRT Experiment 3\svrt_images\generated_images\results_problem_5\sample_0_0012.png,,,,,,,,,,,,,,,,,,,,,,0,1,1,1,0,9,9,9,,,,,,,,,,,,,,f,5,A,B,28,0,Incorrect!,1.365751100005582,1048.30722279998,None,1048.30722279998,None,1049.6915965999942,None,,,,,109,001,2023-10-10_11h15.35.449,colored_shuffled,2021.2.3,59.961924209301394,
C:\Users\subject\Desktop\SVRT Experiments\SVRT Experiment 3\svrt_images\generated_images\results_problem_5,,C:\Users\subject\Desktop\SVRT Experiments\SVRT Experiment 3\svrt_images\generated_images\results_problem_5\sample_1_0005.png,,,,,,,,,,,,,,,,,,,,,,0,1,1,1,0,10,10,10,,,,,,,,,,,,,,j,5,B,A,28,0,Incorrect!,1.512448800029233,1050.79243339994,None,1050.79243339994,None,1052.3269128999673,None,,,,,109,001,2023-10-10_11h15.35.449,colored_shuffled,2021.2.3,59.961924209301394,
C:\Users\subject\Desktop\SVRT Experiments\SVRT Experiment 3\svrt_images\generated_images\results_problem_5,,C:\Users\subject\Desktop\SVRT Experiments\SVRT Experiment 3\svrt_images\generated_images\results_problem_5\sample_0_0015.png,,,,,,,,,,,,,,,,,,,,,,0,1,1,1,0,11,11,11,,,,,,,,,,,,,,f,5,A,B,28,0,Incorrect!,0.5411270000040531,1053.4277519000461,None,1053.4277519000461,None,1053.9948384000454,None,,,,,109,001,2023-10-10_11h15.35.449,colored_shuffled,2021.2.3,59.961924209301394,
C:\Users\subject\Desktop\SVRT Experiments\SVRT Experiment 3\svrt_images\generated_images\results_problem_5,,C:\Users\subject\Desktop\SVRT Experiments\SVRT Experiment 3\svrt_images\generated_images\results_problem_5\sample_0_0013.png,,,,,,,,,,,,,,,,,,,,,,0,1,1,1,0,12,12,12,,,,,,,,,,,,,,f,5,A,B,28,0,Incorrect!,1.2644978000316769,1055.1123530999757,None,1055.1123530999757,None,1056.39665530005,None,,,,,109,001,2023-10-10_11h15.35.449,colored_shuffled,2021.2.3,59.961924209301394,
C:\Users\subject\Desktop\SVRT Experiments\SVRT Experiment 3\svrt_images\generated_images\results_problem_5,,C:\Users\subject\Desktop\SVRT Experiments\SVRT Experiment 3\svrt_images\generated_images\results_problem_5\sample_1_0004.png,,,,,,,,,,,,,,,,,,,,,,0,1,1,1,0,13,13,13,,,,,,,,,,,,,,f,5,A,A,28,1,Correct!,1.7260975000681356,1057.5308452999452,None,1057.5308452999452,None,1059.282156900037,None,,,,,109,001,2023-10-10_11h15.35.449,colored_shuffled,2021.2.3,59.961924209301394,
C:\Users\subject\Desktop\SVRT Experiments\SVRT Experiment 3\svrt_images\generated_images\results_problem_5,,C:\Users\subject\Desktop\SVRT Experiments\SVRT Experiment 3\svrt_images\generated_images\results_problem_5\sample_0_0004.png,,,,,,,,,,,,,,,,,,,,,,0,1,1,1,0,14,14,14,,,,,,,,,,,,,,f,5,A,B,28,0,Incorrect!,0.3924735999898985,1060.416355399997,None,1060.416355399997,None,1060.8333270000294,None,,,,,109,001,2023-10-10_11h15.35.449,colored_shuffled,2021.2.3,59.961924209301394,
C:\Users\subject\Desktop\SVRT Experiments\SVRT Experiment 3\svrt_images\generated_images\results_problem_5,,C:\Users\subject\Desktop\SVRT Experiments\SVRT Experiment 3\svrt_images\generated_images\results_problem_5\sample_1_0001.png,,,,,,,,,,,,,,,,,,,,,,0,1,1,1,0,15,15,15,,,,,,,,,,,,,,j,5,B,A,28,0,Incorrect!,1.1845463999779895,1061.9842285000486,None,1061.9842285000486,None,1063.2017606999725,None,,,,,109,001,2023-10-10_11h15.35.449,colored_shuffled,2021.2.3,59.961924209301394,
C:\Users\subject\Desktop\SVRT Experiments\SVRT Experiment 3\svrt_images\generated_images\results_problem_5,,C:\Users\subject\Desktop\SVRT Experiments\SVRT Experiment 3\svrt_images\generated_images\results_problem_5\sample_0_0009.png,,,,,,,,,,,,,,,,,,,,,,0,1,1,1,0,16,16,16,,,,,,,,,,,,,,f,5,A,B,28,0,Incorrect!,0.7674915000097826,1064.3693299000151,None,1064.3693299000151,None,1065.1699266999494,None,,,,,109,001,2023-10-10_11h15.35.449,colored_shuffled,2021.2.3,59.961924209301394,
C:\Users\subject\Desktop\SVRT Experiments\SVRT Experiment 3\svrt_images\generated_images\results_problem_5,,C:\Users\subject\Desktop\SVRT Experiments\SVRT Experiment 3\svrt_images\generated_images\results_problem_5\sample_0_0011.png,,,,,,,,,,,,,,,,,,,,,,0,1,1,1,0,17,17,17,,,,,,,,,,,,,,j,5,B,B,28,1,Correct!,0.5832975000375882,1066.337488100049,None,1066.337488100049,None,1066.9546043999726,None,,,,,109,001,2023-10-10_11h15.35.449,colored_shuffled,2021.2.3,59.961924209301394,
C:\Users\subject\Desktop\SVRT Experiments\SVRT Experiment 3\svrt_images\generated_images\results_problem_5,,C:\Users\subject\Desktop\SVRT Experiments\SVRT Experiment 3\svrt_images\generated_images\results_problem_5\sample_1_0006.png,,,,,,,,,,,,,,,,,,,,,,0,1,1,1,0,18,18,18,,,,,,,,,,,,,,j,5,B,A,28,0,Incorrect!,1.0699224000563845,1068.138862599968,None,1068.138862599968,None,1069.2563428999856,None,,,,,109,001,2023-10-10_11h15.35.449,colored_shuffled,2021.2.3,59.961924209301394,
C:\Users\subject\Desktop\SVRT Experiments\SVRT Experiment 3\svrt_images\generated_images\results_problem_5,,C:\Users\subject\Desktop\SVRT Experiments\SVRT Experiment 3\svrt_images\generated_images\results_problem_5\sample_1_0014.png,,,,,,,,,,,,,,,,,,,,,,0,1,1,1,0,19,19,19,,,,,,,,,,,,,,f,5,A,A,28,1,Correct!,0.8154867000412196,1070.45725820004,None,1070.45725820004,None,1071.3078898999374,None,,,,,109,001,2023-10-10_11h15.35.449,colored_shuffled,2021.2.3,59.961924209301394,
C:\Users\subject\Desktop\SVRT Experiments\SVRT Experiment 3\svrt_images\generated_images\results_problem_5,,C:\Users\subject\Desktop\SVRT Experiments\SVRT Experiment 3\svrt_images\generated_images\results_problem_5\sample_1_0000.png,,,,,,,,,,,,,,,,,,,,,,0,1,1,1,0,20,20,20,,,,,,,,,,,,,,f,5,A,A,28,1,Correct!,8.851876100059599,1072.5088011999615,None,1072.5088011999615,None,1081.3988283999497,None,,,,,109,001,2023-10-10_11h15.35.449,colored_shuffled,2021.2.3,59.961924209301394,
C:\Users\subject\Desktop\SVRT Experiments\SVRT Experiment 3\svrt_images\generated_images\results_problem_5,,C:\Users\subject\Desktop\SVRT Experiments\SVRT Experiment 3\svrt_images\generated_images\results_problem_5\sample_0_0005.png,,,,,,,,,,,,,,,,,,,,,,0,1,1,1,0,21,21,21,,,,,,,,,,,,,,f,5,A,B,28,0,Incorrect!,0.6322564999572933,1082.6164251000155,None,1082.6164251000155,None,1083.2669028999517,None,,,,,109,001,2023-10-10_11h15.35.449,colored_shuffled,2021.2.3,59.961924209301394,
C:\Users\subject\Desktop\SVRT Experiments\SVRT Experiment 3\svrt_images\generated_images\results_problem_5,,C:\Users\subject\Desktop\SVRT Experiments\SVRT Experiment 3\svrt_images\generated_images\results_problem_5\sample_1_0011.png,,,,,,,,,,,,,,,,,,,,,,0,1,1,1,0,22,22,22,,,,,,,,,,,,,,f,5,A,A,28,1,Correct!,1.0274849999696016,1084.5011748999823,None,1084.5011748999823,None,1085.5519593999488,None,,,,,109,001,2023-10-10_11h15.35.449,colored_shuffled,2021.2.3,59.961924209301394,
C:\Users\subject\Desktop\SVRT Experiments\SVRT Experiment 3\svrt_images\generated_images\results_problem_5,,C:\Users\subject\Desktop\SVRT Experiments\SVRT Experiment 3\svrt_images\generated_images\results_problem_5\sample_0_0001.png,,,,,,,,,,,,,,,,,,,,,,0,1,1,1,0,23,23,23,,,,,,,,,,,,,,j,5,B,B,28,1,Correct!,1.8463982000248507,1086.7862346000038,None,1086.7862346000038,None,1088.6709783000406,None,,,,,109,001,2023-10-10_11h15.35.449,colored_shuffled,2021.2.3,59.961924209301394,
C:\Users\subject\Desktop\SVRT Experiments\SVRT Experiment 3\svrt_images\generated_images\results_problem_5,,C:\Users\subject\Desktop\SVRT Experiments\SVRT Experiment 3\svrt_images\generated_images\results_problem_5\sample_1_0007.png,,,,,,,,,,,,,,,,,,,,,,0,1,1,1,0,24,24,24,,,,,,,,,,,,,,j,5,B,A,28,0,Incorrect!,1.054681499954313,1089.9219334999798,None,1089.9219334999798,None,1091.0227384000318,None,,,,,109,001,2023-10-10_11h15.35.449,colored_shuffled,2021.2.3,59.961924209301394,
C:\Users\subject\Desktop\SVRT Experiments\SVRT Experiment 3\svrt_images\generated_images\results_problem_5,,C:\Users\subject\Desktop\SVRT Experiments\SVRT Experiment 3\svrt_images\generated_images\results_problem_5\sample_1_0008.png,,,,,,,,,,,,,,,,,,,,,,0,1,1,1,0,25,25,25,,,,,,,,,,,,,,j,5,B,A,28,0,Incorrect!,0.7662202001083642,1092.2903820000356,None,1092.2903820000356,None,1093.107657799963,None,,,,,109,001,2023-10-10_11h15.35.449,colored_shuffled,2021.2.3,59.961924209301394,
C:\Users\subject\Desktop\SVRT Experiments\SVRT Experiment 3\svrt_images\generated_images\results_problem_5,,C:\Users\subject\Desktop\SVRT Experiments\SVRT Experiment 3\svrt_images\generated_images\results_problem_5\sample_1_0009.png,,,,,,,,,,,,,,,,,,,,,,0,1,1,1,0,26,26,26,,,,,,,,,,,,,,f,5,A,A,28,1,Correct!,0.3686177000636235,1094.3919635999482,None,1094.3919635999482,None,1094.8089153999463,None,,,,,109,001,2023-10-10_11h15.35.449,colored_shuffled,2021.2.3,59.961924209301394,
C:\Users\subject\Desktop\SVRT Experiments\SVRT Experiment 3\svrt_images\generated_images\results_problem_5,,C:\Users\subject\Desktop\SVRT Experiments\SVRT Experiment 3\svrt_images\generated_images\results_problem_5\sample_1_0015.png,,,,,,,,,,,,,,,,,,,,,,0,1,1,1,0,27,27,27,,,,,,,,,,,,,,f,5,A,A,28,1,Correct!,0.4186438999604434,1096.1099268000107,None,1096.1099268000107,None,1096.576954200049,None,,,,,109,001,2023-10-10_11h15.35.449,colored_shuffled,2021.2.3,59.961924209301394,
C:\Users\subject\Desktop\SVRT Experiments\SVRT Experiment 3\svrt_images\generated_images\results_problem_5,,C:\Users\subject\Desktop\SVRT Experiments\SVRT Experiment 3\svrt_images\generated_images\results_problem_5\sample_0_0000.png,,,,,,,,,,,,,,,,,,,,,,0,1,1,1,0,28,28,28,,,,,,,,,,,,,,j,5,B,B,28,1,Correct!,0.29000110004562885,1097.894607599941,None,1097.894607599941,None,1098.211482499959,None,,,,,109,001,2023-10-10_11h15.35.449,colored_shuffled,2021.2.3,59.961924209301394,
C:\Users\subject\Desktop\SVRT Experiments\SVRT Experiment 3\svrt_images\generated_images\results_problem_5,,C:\Users\subject\Desktop\SVRT Experiments\SVRT Experiment 3\svrt_images\generated_images\results_problem_5\sample_0_0014.png,,,,,,,,,,,,,,,,,,,,,,0,1,1,1,0,29,29,29,,,,,,,,,,,,,,f,5,A,B,28,0,Incorrect!,0.3513527999166399,1099.5291725000134,None,1099.5291725000134,None,1099.9461175999604,None,,,,,109,001,2023-10-10_11h15.35.449,colored_shuffled,2021.2.3,59.961924209301394,
C:\Users\subject\Desktop\SVRT Experiments\SVRT Experiment 3\svrt_images\generated_images\results_problem_5,,C:\Users\subject\Desktop\SVRT Experiments\SVRT Experiment 3\svrt_images\generated_images\results_problem_5\sample_1_0010.png,,,,,,,,,,,,,,,,,,,,,,0,1,1,1,0,30,30,30,,,,,,,,,,,,,,j,5,B,A,28,0,Incorrect!,0.5760686000576243,1101.280490300036,None,1101.280490300036,None,1101.914293800015,None,,,,,109,001,2023-10-10_11h15.35.449,colored_shuffled,2021.2.3,59.961924209301394,
C:\Users\subject\Desktop\SVRT Experiments\SVRT Experiment 3\svrt_images\generated_images\results_problem_5,,C:\Users\subject\Desktop\SVRT Experiments\SVRT Experiment 3\svrt_images\generated_images\results_problem_5\sample_0_0010.png,,,,,,,,,,,,,,,,,,,,,,0,1,1,1,0,31,31,31,,,,,,,,,,,,,,f,5,A,B,28,0,Incorrect!,0.311211800086312,1103.2653224000242,None,1103.2653224000242,None,1103.6155805999879,None,,,,,109,001,2023-10-10_11h15.35.449,colored_shuffled,2021.2.3,59.961924209301394,
C:\Users\subject\Desktop\SVRT Experiments\SVRT Experiment 3\svrt_images\generated_images\results_problem_5,,C:\Users\subject\Desktop\SVRT Experiments\SVRT Experiment 3\svrt_images\generated_images\results_problem_5\sample_0_0016.png,,,,,,,,,,,,,,,,,,,,,,0,1,1,1,0,32,32,32,,,,,,,,,,,,,,f,5,A,B,28,0,Incorrect!,0.7459121000720188,1104.966602899949,None,1104.966602899949,None,1105.7838750999654,None,,,,,109,001,2023-10-10_11h15.35.449,colored_shuffled,2021.2.3,59.961924209301394,
C:\Users\subject\Desktop\SVRT Experiments\SVRT Experiment 3\svrt_images\generated_images\results_problem_5,,C:\Users\subject\Desktop\SVRT Experiments\SVRT Experiment 3\svrt_images\generated_images\results_problem_5\sample_1_0016.png,,,,,,,,,,,,,,,,,,,,,,0,1,1,1,0,33,33,33,,,,,,,,,,,,,,f,5,A,A,28,1,Correct!,0.3878679999615997,1107.244636700023,None,1107.244636700023,None,1107.6519523999887,None,,,,,109,001,2023-10-10_11h15.35.449,colored_shuffled,2021.2.3,59.961924209301394,
C:\Users\subject\Desktop\SVRT Experiments\SVRT Experiment 3\svrt_images\generated_images\results_problem_5,,,,,,,,,,,,,,,,,,,,,,,,0,1,1,1,,,,,,,,,,,,,,,,,,,,,,,,,,,,,,,,1108.652705800021,1108.652705800021,space,1.707736299955286,109,001,2023-10-10_11h15.35.449,colored_shuffled,2021.2.3,59.961924209301394,
C:\Users\subject\Desktop\SVRT Experiments\SVRT Experiment 3\svrt_images\generated_images\results_problem_10,,,C:\Users\subject\Desktop\SVRT Experiments\SVRT Experiment 3\svrt_images\generated_images\results_problem_10\sample_1_0003.png,,,,,,,,,,,,,,,,,,,,,0,2,2,2,0,0,0,0,,,,,,,,,,,,,,f,10,A,A,28,1,Correct!,1.757167199975811,1110.3873065999942,None,1110.3873065999942,None,1112.1720255999826,None,,,,,109,001,2023-10-10_11h15.35.449,colored_shuffled,2021.2.3,59.961924209301394,
C:\Users\subject\Desktop\SVRT Experiments\SVRT Experiment 3\svrt_images\generated_images\results_problem_10,,,C:\Users\subject\Desktop\SVRT Experiments\SVRT Experiment 3\svrt_images\generated_images\results_problem_10\sample_0_0007.png,,,,,,,,,,,,,,,,,,,,,0,2,2,2,0,1,1,1,,,,,,,,,,,,,,j,10,B,B,28,1,Correct!,0.39567509992048144,1113.172781900037,None,1113.172781900037,None,1113.5897616000148,None,,,,,109,001,2023-10-10_11h15.35.449,colored_shuffled,2021.2.3,59.961924209301394,
C:\Users\subject\Desktop\SVRT Experiments\SVRT Experiment 3\svrt_images\generated_images\results_problem_10,,,C:\Users\subject\Desktop\SVRT Experiments\SVRT Experiment 3\svrt_images\generated_images\results_problem_10\sample_0_0012.png,,,,,,,,,,,,,,,,,,,,,0,2,2,2,0,2,2,2,,,,,,,,,,,,,,f,10,A,B,28,0,Incorrect!,0.6973451999947429,1114.6071993999649,None,1114.6071993999649,None,1115.324397600023,None,,,,,109,001,2023-10-10_11h15.35.449,colored_shuffled,2021.2.3,59.961924209301394,
C:\Users\subject\Desktop\SVRT Experiments\SVRT Experiment 3\svrt_images\generated_images\results_problem_10,,,C:\Users\subject\Desktop\SVRT Experiments\SVRT Experiment 3\svrt_images\generated_images\results_problem_10\sample_0_0001.png,,,,,,,,,,,,,,,,,,,,,0,2,2,2,0,3,3,3,,,,,,,,,,,,,,j,10,B,B,28,1,Correct!,0.46592680003959686,1116.358516999986,None,1116.358516999986,None,1116.8422120000469,None,,,,,109,001,2023-10-10_11h15.35.449,colored_shuffled,2021.2.3,59.961924209301394,
C:\Users\subject\Desktop\SVRT Experiments\SVRT Experiment 3\svrt_images\generated_images\results_problem_10,,,C:\Users\subject\Desktop\SVRT Experiments\SVRT Experiment 3\svrt_images\generated_images\results_problem_10\sample_1_0016.png,,,,,,,,,,,,,,,,,,,,,0,2,2,2,0,4,4,4,,,,,,,,,,,,,,j,10,B,A,28,0,Incorrect!,0.4361307999351993,1117.876339499955,None,1117.876339499955,None,1118.3433123000432,None,,,,,109,001,2023-10-10_11h15.35.449,colored_shuffled,2021.2.3,59.961924209301394,
C:\Users\subject\Desktop\SVRT Experiments\SVRT Experiment 3\svrt_images\generated_images\results_problem_10,,,C:\Users\subject\Desktop\SVRT Experiments\SVRT Experiment 3\svrt_images\generated_images\results_problem_10\sample_1_0010.png,,,,,,,,,,,,,,,,,,,,,0,2,2,2,0,5,5,5,,,,,,,,,,,,,,f,10,A,A,28,1,Correct!,0.29427519999444485,1119.3941432000138,None,1119.3941432000138,None,1119.7110446000006,None,,,,,109,001,2023-10-10_11h15.35.449,colored_shuffled,2021.2.3,59.961924209301394,
C:\Users\subject\Desktop\SVRT Experiments\SVRT Experiment 3\svrt_images\generated_images\results_problem_10,,,C:\Users\subject\Desktop\SVRT Experiments\SVRT Experiment 3\svrt_images\generated_images\results_problem_10\sample_0_0016.png,,,,,,,,,,,,,,,,,,,,,0,2,2,2,0,6,6,6,,,,,,,,,,,,,,j,10,B,B,28,1,Correct!,0.39059460000135005,1120.7618386000395,None,1120.7618386000395,None,1121.1788139999844,None,,,,,109,001,2023-10-10_11h15.35.449,colored_shuffled,2021.2.3,59.961924209301394,
C:\Users\subject\Desktop\SVRT Experiments\SVRT Experiment 3\svrt_images\generated_images\results_problem_10,,,C:\Users\subject\Desktop\SVRT Experiments\SVRT Experiment 3\svrt_images\generated_images\results_problem_10\sample_0_0015.png,,,,,,,,,,,,,,,,,,,,,0,2,2,2,0,7,7,7,,,,,,,,,,,,,,f,10,A,B,28,0,Incorrect!,0.2980942000867799,1122.2462930999463,None,1122.2462930999463,None,1122.5631699999794,None,,,,,109,001,2023-10-10_11h15.35.449,colored_shuffled,2021.2.3,59.961924209301394,
C:\Users\subject\Desktop\SVRT Experiments\SVRT Experiment 3\svrt_images\generated_images\results_problem_10,,,C:\Users\subject\Desktop\SVRT Experiments\SVRT Experiment 3\svrt_images\generated_images\results_problem_10\sample_0_0010.png,,,,,,,,,,,,,,,,,,,,,0,2,2,2,0,8,8,8,,,,,,,,,,,,,,j,10,B,B,28,1,Correct!,0.2737314000260085,1123.6306727000047,None,1123.6306727000047,None,1123.9308947999962,None,,,,,109,001,2023-10-10_11h15.35.449,colored_shuffled,2021.2.3,59.961924209301394,
C:\Users\subject\Desktop\SVRT Experiments\SVRT Experiment 3\svrt_images\generated_images\results_problem_10,,,C:\Users\subject\Desktop\SVRT Experiments\SVRT Experiment 3\svrt_images\generated_images\results_problem_10\sample_0_0002.png,,,,,,,,,,,,,,,,,,,,,0,2,2,2,0,9,9,9,,,,,,,,,,,,,,f,10,A,B,28,0,Incorrect!,0.3613336000125855,1125.0150470000226,None,1125.0150470000226,None,1125.3986532000126,None,,,,,109,001,2023-10-10_11h15.35.449,colored_shuffled,2021.2.3,59.961924209301394,
C:\Users\subject\Desktop\SVRT Experiments\SVRT Experiment 3\svrt_images\generated_images\results_problem_10,,,C:\Users\subject\Desktop\SVRT Experiments\SVRT Experiment 3\svrt_images\generated_images\results_problem_10\sample_1_0011.png,,,,,,,,,,,,,,,,,,,,,0,2,2,2,0,10,10,10,,,,,,,,,,,,,,j,10,B,A,28,0,Incorrect!,0.35686649999115616,1126.4994972000131,None,1126.4994972000131,None,1126.8831144999713,None,,,,,109,001,2023-10-10_11h15.35.449,colored_shuffled,2021.2.3,59.961924209301394,
C:\Users\subject\Desktop\SVRT Experiments\SVRT Experiment 3\svrt_images\generated_images\results_problem_10,,,C:\Users\subject\Desktop\SVRT Experiments\SVRT Experiment 3\svrt_images\generated_images\results_problem_10\sample_1_0001.png,,,,,,,,,,,,,,,,,,,,,0,2,2,2,0,11,11,11,,,,,,,,,,,,,,j,10,B,A,28,0,Incorrect!,0.272512000054121,1127.9839470000006,None,1127.9839470000006,None,1128.2841694999952,None,,,,,109,001,2023-10-10_11h15.35.449,colored_shuffled,2021.2.3,59.961924209301394,
C:\Users\subject\Desktop\SVRT Experiments\SVRT Experiment 3\svrt_images\generated_images\results_problem_10,,,C:\Users\subject\Desktop\SVRT Experiments\SVRT Experiment 3\svrt_images\generated_images\results_problem_10\sample_1_0009.png,,,,,,,,,,,,,,,,,,,,,0,2,2,2,0,12,12,12,,,,,,,,,,,,,,j,10,B,A,28,0,Incorrect!,0.4226608999306336,1129.401684200042,None,1129.401684200042,None,1129.8520214000018,None,,,,,109,001,2023-10-10_11h15.35.449,colored_shuffled,2021.2.3,59.961924209301394,
C:\Users\subject\Desktop\SVRT Experiments\SVRT Experiment 3\svrt_images\generated_images\results_problem_10,,,C:\Users\subject\Desktop\SVRT Experiments\SVRT Experiment 3\svrt_images\generated_images\results_problem_10\sample_0_0013.png,,,,,,,,,,,,,,,,,,,,,0,2,2,2,0,13,13,13,,,,,,,,,,,,,,j,10,B,B,28,1,Correct!,0.3268170999363065,1130.9695329000242,None,1130.9695329000242,None,1131.3197935000062,None,,,,,109,001,2023-10-10_11h15.35.449,colored_shuffled,2021.2.3,59.961924209301394,
C:\Users\subject\Desktop\SVRT Experiments\SVRT Experiment 3\svrt_images\generated_images\results_problem_10,,,C:\Users\subject\Desktop\SVRT Experiments\SVRT Experiment 3\svrt_images\generated_images\results_problem_10\sample_0_0000.png,,,,,,,,,,,,,,,,,,,,,0,2,2,2,0,14,14,14,,,,,,,,,,,,,,f,10,A,B,28,0,Incorrect!,0.32233820005785674,1132.4539864000399,None,1132.4539864000399,None,1132.804247800028,None,,,,,109,001,2023-10-10_11h15.35.449,colored_shuffled,2021.2.3,59.961924209301394,
C:\Users\subject\Desktop\SVRT Experiments\SVRT Experiment 3\svrt_images\generated_images\results_problem_10,,,C:\Users\subject\Desktop\SVRT Experiments\SVRT Experiment 3\svrt_images\generated_images\results_problem_10\sample_1_0014.png,,,,,,,,,,,,,,,,,,,,,0,2,2,2,0,15,15,15,,,,,,,,,,,,,,j,10,B,A,28,0,Incorrect!,0.18922270007897168,1133.9551189000485,None,1133.9551189000485,None,1134.171944999951,None,,,,,109,001,2023-10-10_11h15.35.449,colored_shuffled,2021.2.3,59.961924209301394,
C:\Users\subject\Desktop\SVRT Experiments\SVRT Experiment 3\svrt_images\generated_images\results_problem_10,,,C:\Users\subject\Desktop\SVRT Experiments\SVRT Experiment 3\svrt_images\generated_images\results_problem_10\sample_0_0011.png,,,,,,,,,,,,,,,,,,,,,0,2,2,2,0,16,16,16,,,,,,,,,,,,,,j,10,B,B,28,1,Correct!,0.24549040000420064,1135.3228149999632,None,1135.3228149999632,None,1135.5896787999664,None,,,,,109,001,2023-10-10_11h15.35.449,colored_shuffled,2021.2.3,59.961924209301394,
C:\Users\subject\Desktop\SVRT Experiments\SVRT Experiment 3\svrt_images\generated_images\results_problem_10,,,C:\Users\subject\Desktop\SVRT Experiments\SVRT Experiment 3\svrt_images\generated_images\results_problem_10\sample_0_0006.png,,,,,,,,,,,,,,,,,,,,,0,2,2,2,0,17,17,17,,,,,,,,,,,,,,j,10,B,B,28,1,Correct!,0.3070621000370011,1136.7571976999752,None,1136.7571976999752,None,1137.1074848000426,None,,,,,109,001,2023-10-10_11h15.35.449,colored_shuffled,2021.2.3,59.961924209301394,
C:\Users\subject\Desktop\SVRT Experiments\SVRT Experiment 3\svrt_images\generated_images\results_problem_10,,,C:\Users\subject\Desktop\SVRT Experiments\SVRT Experiment 3\svrt_images\generated_images\results_problem_10\sample_1_0005.png,,,,,,,,,,,,,,,,,,,,,0,2,2,2,0,18,18,18,,,,,,,,,,,,,,j,10,B,A,28,0,Incorrect!,0.5805764000397176,1138.2917130000424,None,1138.2917130000424,None,1138.908848399995,None,,,,,109,001,2023-10-10_11h15.35.449,colored_shuffled,2021.2.3,59.961924209301394,
C:\Users\subject\Desktop\SVRT Experiments\SVRT Experiment 3\svrt_images\generated_images\results_problem_10,,,C:\Users\subject\Desktop\SVRT Experiments\SVRT Experiment 3\svrt_images\generated_images\results_problem_10\sample_1_0000.png,,,,,,,,,,,,,,,,,,,,,0,2,2,2,0,19,19,19,,,,,,,,,,,,,,f,10,A,A,28,1,Correct!,0.2745424999156967,1140.1097600000212,None,1140.1097600000212,None,1140.4266572999768,None,,,,,109,001,2023-10-10_11h15.35.449,colored_shuffled,2021.2.3,59.961924209301394,
C:\Users\subject\Desktop\SVRT Experiments\SVRT Experiment 3\svrt_images\generated_images\results_problem_10,,,C:\Users\subject\Desktop\SVRT Experiments\SVRT Experiment 3\svrt_images\generated_images\results_problem_10\sample_0_0004.png,,,,,,,,,,,,,,,,,,,,,0,2,2,2,0,20,20,20,,,,,,,,,,,,,,j,10,B,B,28,1,Correct!,0.100694700027816,1141.6275750000495,None,1141.6275750000495,None,1141.7776775000384,None,,,,,109,001,2023-10-10_11h15.35.449,colored_shuffled,2021.2.3,59.961924209301394,
C:\Users\subject\Desktop\SVRT Experiments\SVRT Experiment 3\svrt_images\generated_images\results_problem_10,,,C:\Users\subject\Desktop\SVRT Experiments\SVRT Experiment 3\svrt_images\generated_images\results_problem_10\sample_0_0014.png,,,,,,,,,,,,,,,,,,,,,0,2,2,2,0,21,21,21,,,,,,,,,,,,,,f,10,A,B,28,0,Incorrect!,0.33298950002063066,1142.9952772000106,None,1142.9952772000106,None,1143.34552480001,None,,,,,109,001,2023-10-10_11h15.35.449,colored_shuffled,2021.2.3,59.961924209301394,
C:\Users\subject\Desktop\SVRT Experiments\SVRT Experiment 3\svrt_images\generated_images\results_problem_10,,,C:\Users\subject\Desktop\SVRT Experiments\SVRT Experiment 3\svrt_images\generated_images\results_problem_10\sample_0_0008.png,,,,,,,,,,,,,,,,,,,,,0,2,2,2,0,22,22,22,,,,,,,,,,,,,,j,10,B,B,28,1,Correct!,0.5404797999653965,1144.5798071000027,None,1144.5798071000027,None,1145.1635681999614,None,,,,,109,001,2023-10-10_11h15.35.449,colored_shuffled,2021.2.3,59.961924209301394,
C:\Users\subject\Desktop\SVRT Experiments\SVRT Experiment 3\svrt_images\generated_images\results_problem_10,,,C:\Users\subject\Desktop\SVRT Experiments\SVRT Experiment 3\svrt_images\generated_images\results_problem_10\sample_1_0008.png,,,,,,,,,,,,,,,,,,,,,0,2,2,2,0,23,23,23,,,,,,,,,,,,,,f,10,A,A,28,1,Correct!,0.18639469996560365,1146.3978354999563,None,1146.3978354999563,None,1146.61465699994,None,,,,,109,001,2023-10-10_11h15.35.449,colored_shuffled,2021.2.3,59.961924209301394,
C:\Users\subject\Desktop\SVRT Experiments\SVRT Experiment 3\svrt_images\generated_images\results_problem_10,,,C:\Users\subject\Desktop\SVRT Experiments\SVRT Experiment 3\svrt_images\generated_images\results_problem_10\sample_0_0009.png,,,,,,,,,,,,,,,,,,,,,0,2,2,2,0,24,24,24,,,,,,,,,,,,,,j,10,B,B,28,1,Correct!,0.03862839995417744,1147.8656100999797,None,1147.8656100999797,None,1147.932280799956,None,,,,,109,001,2023-10-10_11h15.35.449,colored_shuffled,2021.2.3,59.961924209301394,
C:\Users\subject\Desktop\SVRT Experiments\SVRT Experiment 3\svrt_images\generated_images\results_problem_10,,,C:\Users\subject\Desktop\SVRT Experiments\SVRT Experiment 3\svrt_images\generated_images\results_problem_10\sample_1_0013.png,,,,,,,,,,,,,,,,,,,,,0,2,2,2,0,25,25,25,,,,,,,,,,,,,,f,10,A,A,28,1,Correct!,0.21626529993955046,1149.1999445999973,None,1149.1999445999973,None,1149.466806499986,None,,,,,109,001,2023-10-10_11h15.35.449,colored_shuffled,2021.2.3,59.961924209301394,
C:\Users\subject\Desktop\SVRT Experiments\SVRT Experiment 3\svrt_images\generated_images\results_problem_10,,,C:\Users\subject\Desktop\SVRT Experiments\SVRT Experiment 3\svrt_images\generated_images\results_problem_10\sample_1_0012.png,,,,,,,,,,,,,,,,,,,,,0,2,2,2,0,26,26,26,,,,,,,,,,,,,,j,10,B,A,28,0,Incorrect!,0.4970864000497386,1150.751111599966,None,1150.751111599966,None,1151.2681642000098,None,,,,,109,001,2023-10-10_11h15.35.449,colored_shuffled,2021.2.3,59.961924209301394,
C:\Users\subject\Desktop\SVRT Experiments\SVRT Experiment 3\svrt_images\generated_images\results_problem_10,,,C:\Users\subject\Desktop\SVRT Experiments\SVRT Experiment 3\svrt_images\generated_images\results_problem_10\sample_1_0007.png,,,,,,,,,,,,,,,,,,,,,0,2,2,2,0,27,27,27,,,,,,,,,,,,,,j,10,B,A,28,0,Incorrect!,0.06372520001605153,1152.5524631999433,None,1152.5524631999433,None,1152.6692235999508,None,,,,,109,001,2023-10-10_11h15.35.449,colored_shuffled,2021.2.3,59.961924209301394,
C:\Users\subject\Desktop\SVRT Experiments\SVRT Experiment 3\svrt_images\generated_images\results_problem_10,,,C:\Users\subject\Desktop\SVRT Experiments\SVRT Experiment 3\svrt_images\generated_images\results_problem_10\sample_1_0015.png,,,,,,,,,,,,,,,,,,,,,0,2,2,2,0,28,28,28,,,,,,,,,,,,,,j,10,B,A,28,0,Incorrect!,0.10996140004135668,1153.9702084000455,None,1153.9702084000455,None,1154.1369956999552,None,,,,,109,001,2023-10-10_11h15.35.449,colored_shuffled,2021.2.3,59.961924209301394,
C:\Users\subject\Desktop\SVRT Experiments\SVRT Experiment 3\svrt_images\generated_images\results_problem_10,,,C:\Users\subject\Desktop\SVRT Experiments\SVRT Experiment 3\svrt_images\generated_images\results_problem_10\sample_0_0003.png,,,,,,,,,,,,,,,,,,,,,0,2,2,2,0,29,29,29,,,,,,,,,,,,,,j,10,B,B,28,1,Correct!,0.16218169999774545,1155.4379811999388,None,1155.4379811999388,None,1155.654808399966,None,,,,,109,001,2023-10-10_11h15.35.449,colored_shuffled,2021.2.3,59.961924209301394,
C:\Users\subject\Desktop\SVRT Experiments\SVRT Experiment 3\svrt_images\generated_images\results_problem_10,,,C:\Users\subject\Desktop\SVRT Experiments\SVRT Experiment 3\svrt_images\generated_images\results_problem_10\sample_0_0005.png,,,,,,,,,,,,,,,,,,,,,0,2,2,2,0,30,30,30,,,,,,,,,,,,,,j,10,B,B,28,1,Correct!,0.5150067999493331,1156.98914900003,None,1156.98914900003,None,1157.522879899945,None,,,,,109,001,2023-10-10_11h15.35.449,colored_shuffled,2021.2.3,59.961924209301394,
C:\Users\subject\Desktop\SVRT Experiments\SVRT Experiment 3\svrt_images\generated_images\results_problem_10,,,C:\Users\subject\Desktop\SVRT Experiments\SVRT Experiment 3\svrt_images\generated_images\results_problem_10\sample_1_0006.png,,,,,,,,,,,,,,,,,,,,,0,2,2,2,0,31,31,31,,,,,,,,,,,,,,j,10,B,A,28,0,Incorrect!,0.8622137999627739,1158.8739066999406,None,1158.8739066999406,None,1159.7578812999418,None,,,,,109,001,2023-10-10_11h15.35.449,colored_shuffled,2021.2.3,59.961924209301394,
C:\Users\subject\Desktop\SVRT Experiments\SVRT Experiment 3\svrt_images\generated_images\results_problem_10,,,C:\Users\subject\Desktop\SVRT Experiments\SVRT Experiment 3\svrt_images\generated_images\results_problem_10\sample_1_0002.png,,,,,,,,,,,,,,,,,,,,,0,2,2,2,0,32,32,32,,,,,,,,,,,,,,j,10,B,A,28,0,Incorrect!,0.4912233999930322,1161.1089223000454,None,1161.1089223000454,None,1161.6593310999451,None,,,,,109,001,2023-10-10_11h15.35.449,colored_shuffled,2021.2.3,59.961924209301394,
C:\Users\subject\Desktop\SVRT Experiments\SVRT Experiment 3\svrt_images\generated_images\results_problem_10,,,C:\Users\subject\Desktop\SVRT Experiments\SVRT Experiment 3\svrt_images\generated_images\results_problem_10\sample_1_0004.png,,,,,,,,,,,,,,,,,,,,,0,2,2,2,0,33,33,33,,,,,,,,,,,,,,f,10,A,A,28,1,Correct!,0.3170875000068918,1163.0270345000317,None,1163.0270345000317,None,1163.3772952000145,None,,,,,109,001,2023-10-10_11h15.35.449,colored_shuffled,2021.2.3,59.961924209301394,
C:\Users\subject\Desktop\SVRT Experiments\SVRT Experiment 3\svrt_images\generated_images\results_problem_10,,,,,,,,,,,,,,,,,,,,,,,,0,2,2,2,,,,,,,,,,,,,,,,,,,,,,,,,,,,,,,,1164.3780455000233,1164.3780455000233,space,1.5660330000100657,109,001,2023-10-10_11h15.35.449,colored_shuffled,2021.2.3,59.961924209301394,
C:\Users\subject\Desktop\SVRT Experiments\SVRT Experiment 3\svrt_images\generated_images\results_problem_2,,,,C:\Users\subject\Desktop\SVRT Experiments\SVRT Experiment 3\svrt_images\generated_images\results_problem_2\sample_0_0011.png,,,,,,,,,,,,,,,,,,,,0,3,3,3,0,0,0,0,,,,,,,,,,,,,,f,2,A,B,28,0,Incorrect!,5.261514800018631,1165.962551799952,None,1165.962551799952,None,1171.2498978000367,None,,,,,109,001,2023-10-10_11h15.35.449,colored_shuffled,2021.2.3,59.961924209301394,
C:\Users\subject\Desktop\SVRT Experiments\SVRT Experiment 3\svrt_images\generated_images\results_problem_2,,,,C:\Users\subject\Desktop\SVRT Experiments\SVRT Experiment 3\svrt_images\generated_images\results_problem_2\sample_1_0003.png,,,,,,,,,,,,,,,,,,,,0,3,3,3,0,1,1,1,,,,,,,,,,,,,,j,2,B,A,28,0,Incorrect!,0.23669229994993657,1172.2673272000393,None,1172.2673272000393,None,1172.5341868000105,None,,,,,109,001,2023-10-10_11h15.35.449,colored_shuffled,2021.2.3,59.961924209301394,
C:\Users\subject\Desktop\SVRT Experiments\SVRT Experiment 3\svrt_images\generated_images\results_problem_2,,,,C:\Users\subject\Desktop\SVRT Experiments\SVRT Experiment 3\svrt_images\generated_images\results_problem_2\sample_1_0001.png,,,,,,,,,,,,,,,,,,,,0,3,3,3,0,2,2,2,,,,,,,,,,,,,,f,2,A,A,28,1,Correct!,0.2644226999254897,1173.55163370003,None,1173.55163370003,None,1173.8351777000353,None,,,,,109,001,2023-10-10_11h15.35.449,colored_shuffled,2021.2.3,59.961924209301394,
C:\Users\subject\Desktop\SVRT Experiments\SVRT Experiment 3\svrt_images\generated_images\results_problem_2,,,,C:\Users\subject\Desktop\SVRT Experiments\SVRT Experiment 3\svrt_images\generated_images\results_problem_2\sample_0_0007.png,,,,,,,,,,,,,,,,,,,,0,3,3,3,0,3,3,3,,,,,,,,,,,,,,f,2,A,B,28,0,Incorrect!,0.36274110001977533,1174.86928860005,None,1174.86928860005,None,1175.2529106000438,None,,,,,109,001,2023-10-10_11h15.35.449,colored_shuffled,2021.2.3,59.961924209301394,
C:\Users\subject\Desktop\SVRT Experiments\SVRT Experiment 3\svrt_images\generated_images\results_problem_2,,,,C:\Users\subject\Desktop\SVRT Experiments\SVRT Experiment 3\svrt_images\generated_images\results_problem_2\sample_1_0000.png,,,,,,,,,,,,,,,,,,,,0,3,3,3,0,4,4,4,,,,,,,,,,,,,,f,2,A,A,28,1,Correct!,0.04898940003477037,1176.2870284999954,None,1176.2870284999954,None,1176.3537213000236,None,,,,,109,001,2023-10-10_11h15.35.449,colored_shuffled,2021.2.3,59.961924209301394,
C:\Users\subject\Desktop\SVRT Experiments\SVRT Experiment 3\svrt_images\generated_images\results_problem_2,,,,C:\Users\subject\Desktop\SVRT Experiments\SVRT Experiment 3\svrt_images\generated_images\results_problem_2\sample_0_0001.png,,,,,,,,,,,,,,,,,,,,0,3,3,3,0,5,5,5,,,,,,,,,,,,,,j,2,B,B,28,1,Correct!,0.002825999981723726,1177.4052013000473,None,1177.4052013000473,None,1177.4378904999467,None,,,,,109,001,2023-10-10_11h15.35.449,colored_shuffled,2021.2.3,59.961924209301394,
C:\Users\subject\Desktop\SVRT Experiments\SVRT Experiment 3\svrt_images\generated_images\results_problem_2,,,,C:\Users\subject\Desktop\SVRT Experiments\SVRT Experiment 3\svrt_images\generated_images\results_problem_2\sample_1_0012.png,,,,,,,,,,,,,,,,,,,,0,3,3,3,0,6,6,6,,,,,,,,,,,,,,f,2,A,A,28,1,Correct!,0.12735320010688156,1178.4886469000485,None,1178.4886469000485,None,1178.638799599954,None,,,,,109,001,2023-10-10_11h15.35.449,colored_shuffled,2021.2.3,59.961924209301394,
C:\Users\subject\Desktop\SVRT Experiments\SVRT Experiment 3\svrt_images\generated_images\results_problem_2,,,,C:\Users\subject\Desktop\SVRT Experiments\SVRT Experiment 3\svrt_images\generated_images\results_problem_2\sample_0_0005.png,,,,,,,,,,,,,,,,,,,,0,3,3,3,0,7,7,7,,,,,,,,,,,,,,j,2,B,B,28,1,Correct!,0.40571750001981854,1179.706258899998,None,1179.706258899998,None,1180.139927500044,None,,,,,109,001,2023-10-10_11h15.35.449,colored_shuffled,2021.2.3,59.961924209301394,
C:\Users\subject\Desktop\SVRT Experiments\SVRT Experiment 3\svrt_images\generated_images\results_problem_2,,,,C:\Users\subject\Desktop\SVRT Experiments\SVRT Experiment 3\svrt_images\generated_images\results_problem_2\sample_0_0004.png,,,,,,,,,,,,,,,,,,,,0,3,3,3,0,8,8,8,,,,,,,,,,,,,,f,2,A,B,28,0,Incorrect!,0.5119711000006646,1181.224086400005,None,1181.224086400005,None,1181.7578121999977,None,,,,,109,001,2023-10-10_11h15.35.449,colored_shuffled,2021.2.3,59.961924209301394,
C:\Users\subject\Desktop\SVRT Experiments\SVRT Experiment 3\svrt_images\generated_images\results_problem_2,,,,C:\Users\subject\Desktop\SVRT Experiments\SVRT Experiment 3\svrt_images\generated_images\results_problem_2\sample_1_0011.png,,,,,,,,,,,,,,,,,,,,0,3,3,3,0,9,9,9,,,,,,,,,,,,,,j,2,B,A,28,0,Incorrect!,0.3499683999689296,1182.841976900003,None,1182.841976900003,None,1183.2088897000067,None,,,,,109,001,2023-10-10_11h15.35.449,colored_shuffled,2021.2.3,59.961924209301394,
C:\Users\subject\Desktop\SVRT Experiments\SVRT Experiment 3\svrt_images\generated_images\results_problem_2,,,,C:\Users\subject\Desktop\SVRT Experiments\SVRT Experiment 3\svrt_images\generated_images\results_problem_2\sample_0_0013.png,,,,,,,,,,,,,,,,,,,,0,3,3,3,0,10,10,10,,,,,,,,,,,,,,f,2,A,B,28,0,Incorrect!,0.4902124999789521,1184.30974279996,None,1184.30974279996,None,1184.8267978000222,None,,,,,109,001,2023-10-10_11h15.35.449,colored_shuffled,2021.2.3,59.961924209301394,
C:\Users\subject\Desktop\SVRT Experiments\SVRT Experiment 3\svrt_images\generated_images\results_problem_2,,,,C:\Users\subject\Desktop\SVRT Experiments\SVRT Experiment 3\svrt_images\generated_images\results_problem_2\sample_1_0004.png,,,,,,,,,,,,,,,,,,,,0,3,3,3,0,11,11,11,,,,,,,,,,,,,,j,2,B,A,28,0,Incorrect!,0.3123262000735849,1185.927630799939,None,1185.927630799939,None,1186.26120790001,None,,,,,109,001,2023-10-10_11h15.35.449,colored_shuffled,2021.2.3,59.961924209301394,
C:\Users\subject\Desktop\SVRT Experiments\SVRT Experiment 3\svrt_images\generated_images\results_problem_2,,,,C:\Users\subject\Desktop\SVRT Experiments\SVRT Experiment 3\svrt_images\generated_images\results_problem_2\sample_0_0010.png,,,,,,,,,,,,,,,,,,,,0,3,3,3,0,12,12,12,,,,,,,,,,,,,,j,2,B,B,28,1,Correct!,0.3732419000007212,1187.3787234999472,None,1187.3787234999472,None,1187.779021000024,None,,,,,109,001,2023-10-10_11h15.35.449,colored_shuffled,2021.2.3,59.961924209301394,
C:\Users\subject\Desktop\SVRT Experiments\SVRT Experiment 3\svrt_images\generated_images\results_problem_2,,,,C:\Users\subject\Desktop\SVRT Experiments\SVRT Experiment 3\svrt_images\generated_images\results_problem_2\sample_1_0016.png,,,,,,,,,,,,,,,,,,,,0,3,3,3,0,13,13,13,,,,,,,,,,,,,,j,2,B,A,28,0,Incorrect!,0.046769200009293854,1188.9131761000026,None,1188.9131761000026,None,1188.9799267000053,None,,,,,109,001,2023-10-10_11h15.35.449,colored_shuffled,2021.2.3,59.961924209301394,
C:\Users\subject\Desktop\SVRT Experiments\SVRT Experiment 3\svrt_images\generated_images\results_problem_2,,,,C:\Users\subject\Desktop\SVRT Experiments\SVRT Experiment 3\svrt_images\generated_images\results_problem_2\sample_1_0008.png,,,,,,,,,,,,,,,,,,,,0,3,3,3,0,14,14,14,,,,,,,,,,,,,,j,2,B,A,28,0,Incorrect!,0.19782210001721978,1190.114115400007,None,1190.114115400007,None,1190.3309443000471,None,,,,,109,001,2023-10-10_11h15.35.449,colored_shuffled,2021.2.3,59.961924209301394,
C:\Users\subject\Desktop\SVRT Experiments\SVRT Experiment 3\svrt_images\generated_images\results_problem_2,,,,C:\Users\subject\Desktop\SVRT Experiments\SVRT Experiment 3\svrt_images\generated_images\results_problem_2\sample_0_0000.png,,,,,,,,,,,,,,,,,,,,0,3,3,3,0,15,15,15,,,,,,,,,,,,,,j,2,B,B,28,1,Correct!,0.08611919998656958,1191.4818173999665,None,1191.4818173999665,None,1191.598562499974,None,,,,,109,001,2023-10-10_11h15.35.449,colored_shuffled,2021.2.3,59.961924209301394,
C:\Users\subject\Desktop\SVRT Experiments\SVRT Experiment 3\svrt_images\generated_images\results_problem_2,,,,C:\Users\subject\Desktop\SVRT Experiments\SVRT Experiment 3\svrt_images\generated_images\results_problem_2\sample_1_0014.png,,,,,,,,,,,,,,,,,,,,0,3,3,3,0,16,16,16,,,,,,,,,,,,,,f,2,A,A,28,1,Correct!,0.6338867000304163,1192.7660789999645,None,1192.7660789999645,None,1193.43327160005,None,,,,,109,001,2023-10-10_11h15.35.449,colored_shuffled,2021.2.3,59.961924209301394,
C:\Users\subject\Desktop\SVRT Experiments\SVRT Experiment 3\svrt_images\generated_images\results_problem_2,,,,C:\Users\subject\Desktop\SVRT Experiments\SVRT Experiment 3\svrt_images\generated_images\results_problem_2\sample_1_0007.png,,,,,,,,,,,,,,,,,,,,0,3,3,3,0,17,17,17,,,,,,,,,,,,,,f,2,A,A,28,1,Correct!,0.3110518000321463,1194.600834300043,None,1194.600834300043,None,1194.9510942000197,None,,,,,109,001,2023-10-10_11h15.35.449,colored_shuffled,2021.2.3,59.961924209301394,
C:\Users\subject\Desktop\SVRT Experiments\SVRT Experiment 3\svrt_images\generated_images\results_problem_2,,,,C:\Users\subject\Desktop\SVRT Experiments\SVRT Experiment 3\svrt_images\generated_images\results_problem_2\sample_0_0006.png,,,,,,,,,,,,,,,,,,,,0,3,3,3,0,18,18,18,,,,,,,,,,,,,,j,2,B,B,28,1,Correct!,0.22457239998038858,1196.1353229000233,None,1196.1353229000233,None,1196.385508700041,None,,,,,109,001,2023-10-10_11h15.35.449,colored_shuffled,2021.2.3,59.961924209301394,
C:\Users\subject\Desktop\SVRT Experiments\SVRT Experiment 3\svrt_images\generated_images\results_problem_2,,,,C:\Users\subject\Desktop\SVRT Experiments\SVRT Experiment 3\svrt_images\generated_images\results_problem_2\sample_0_0009.png,,,,,,,,,,,,,,,,,,,,0,3,3,3,0,19,19,19,,,,,,,,,,,,,,f,2,A,B,28,0,Incorrect!,0.26944790000561625,1197.5864187999396,None,1197.5864187999396,None,1197.9033196000382,None,,,,,109,001,2023-10-10_11h15.35.449,colored_shuffled,2021.2.3,59.961924209301394,
C:\Users\subject\Desktop\SVRT Experiments\SVRT Experiment 3\svrt_images\generated_images\results_problem_2,,,,C:\Users\subject\Desktop\SVRT Experiments\SVRT Experiment 3\svrt_images\generated_images\results_problem_2\sample_0_0014.png,,,,,,,,,,,,,,,,,,,,0,3,3,3,0,20,20,20,,,,,,,,,,,,,,j,2,B,B,28,1,Correct!,0.04763919999822974,1199.1042325999588,None,1199.1042325999588,None,1199.1876179999672,None,,,,,109,001,2023-10-10_11h15.35.449,colored_shuffled,2021.2.3,59.961924209301394,
C:\Users\subject\Desktop\SVRT Experiments\SVRT Experiment 3\svrt_images\generated_images\results_problem_2,,,,C:\Users\subject\Desktop\SVRT Experiments\SVRT Experiment 3\svrt_images\generated_images\results_problem_2\sample_0_0003.png,,,,,,,,,,,,,,,,,,,,0,3,3,3,0,21,21,21,,,,,,,,,,,,,,j,2,B,B,28,1,Correct!,0.09065929998178035,1200.4052139000269,None,1200.4052139000269,None,1200.5219241000013,None,,,,,109,001,2023-10-10_11h15.35.449,colored_shuffled,2021.2.3,59.961924209301394,
C:\Users\subject\Desktop\SVRT Experiments\SVRT Experiment 3\svrt_images\generated_images\results_problem_2,,,,C:\Users\subject\Desktop\SVRT Experiments\SVRT Experiment 3\svrt_images\generated_images\results_problem_2\sample_1_0013.png,,,,,,,,,,,,,,,,,,,,0,3,3,3,0,22,22,22,,,,,,,,,,,,,,f,2,A,A,28,1,Correct!,0.33963679999578744,1201.756230399944,None,1201.756230399944,None,1202.1398486000253,None,,,,,109,001,2023-10-10_11h15.35.449,colored_shuffled,2021.2.3,59.961924209301394,
C:\Users\subject\Desktop\SVRT Experiments\SVRT Experiment 3\svrt_images\generated_images\results_problem_2,,,,C:\Users\subject\Desktop\SVRT Experiments\SVRT Experiment 3\svrt_images\generated_images\results_problem_2\sample_1_0010.png,,,,,,,,,,,,,,,,,,,,0,3,3,3,0,23,23,23,,,,,,,,,,,,,,j,2,B,A,28,0,Incorrect!,0.07372719992417842,1203.3741170000285,None,1203.3741170000285,None,1203.4908610000275,None,,,,,109,001,2023-10-10_11h15.35.449,colored_shuffled,2021.2.3,59.961924209301394,
C:\Users\subject\Desktop\SVRT Experiments\SVRT Experiment 3\svrt_images\generated_images\results_problem_2,,,,C:\Users\subject\Desktop\SVRT Experiments\SVRT Experiment 3\svrt_images\generated_images\results_problem_2\sample_1_0006.png,,,,,,,,,,,,,,,,,,,,0,3,3,3,0,24,24,24,,,,,,,,,,,,,,f,2,A,A,28,1,Correct!,0.25802559999283403,1204.7418129999423,None,1204.7418129999423,None,1205.042031000019,None,,,,,109,001,2023-10-10_11h15.35.449,colored_shuffled,2021.2.3,59.961924209301394,
C:\Users\subject\Desktop\SVRT Experiments\SVRT Experiment 3\svrt_images\generated_images\results_problem_2,,,,C:\Users\subject\Desktop\SVRT Experiments\SVRT Experiment 3\svrt_images\generated_images\results_problem_2\sample_0_0008.png,,,,,,,,,,,,,,,,,,,,0,3,3,3,0,25,25,25,,,,,,,,,,,,,,f,2,A,B,28,0,Incorrect!,0.09809069999027997,1206.3096654999536,None,1206.3096654999536,None,1206.4263553000055,None,,,,,109,001,2023-10-10_11h15.35.449,colored_shuffled,2021.2.3,59.961924209301394,
C:\Users\subject\Desktop\SVRT Experiments\SVRT Experiment 3\svrt_images\generated_images\results_problem_2,,,,C:\Users\subject\Desktop\SVRT Experiments\SVRT Experiment 3\svrt_images\generated_images\results_problem_2\sample_1_0015.png,,,,,,,,,,,,,,,,,,,,0,3,3,3,0,26,26,26,,,,,,,,,,,,,,f,2,A,A,28,1,Correct!,0.01777319994289428,1207.6940440000035,None,1207.6940440000035,None,1207.7607470999938,None,,,,,109,001,2023-10-10_11h15.35.449,colored_shuffled,2021.2.3,59.961924209301394,
C:\Users\subject\Desktop\SVRT Experiments\SVRT Experiment 3\svrt_images\generated_images\results_problem_2,,,,C:\Users\subject\Desktop\SVRT Experiments\SVRT Experiment 3\svrt_images\generated_images\results_problem_2\sample_1_0002.png,,,,,,,,,,,,,,,,,,,,0,3,3,3,0,27,27,27,,,,,,,,,,,,,,j,2,B,A,28,0,Incorrect!,0.48207589995581657,1209.0617371000117,None,1209.0617371000117,None,1209.5787835000083,None,,,,,109,001,2023-10-10_11h15.35.449,colored_shuffled,2021.2.3,59.961924209301394,
C:\Users\subject\Desktop\SVRT Experiments\SVRT Experiment 3\svrt_images\generated_images\results_problem_2,,,,C:\Users\subject\Desktop\SVRT Experiments\SVRT Experiment 3\svrt_images\generated_images\results_problem_2\sample_0_0002.png,,,,,,,,,,,,,,,,,,,,0,3,3,3,0,28,28,28,,,,,,,,,,,,,,j,2,B,B,28,1,Correct!,0.3193485999945551,1210.8964221000206,None,1210.8964221000206,None,1211.2633721999591,None,,,,,109,001,2023-10-10_11h15.35.449,colored_shuffled,2021.2.3,59.961924209301394,
C:\Users\subject\Desktop\SVRT Experiments\SVRT Experiment 3\svrt_images\generated_images\results_problem_2,,,,C:\Users\subject\Desktop\SVRT Experiments\SVRT Experiment 3\svrt_images\generated_images\results_problem_2\sample_0_0016.png,,,,,,,,,,,,,,,,,,,,0,3,3,3,0,29,29,29,,,,,,,,,,,,,,f,2,A,B,28,0,Incorrect!,0.17875880002975464,1212.5810211000498,None,1212.5810211000498,None,1212.7978769999463,None,,,,,109,001,2023-10-10_11h15.35.449,colored_shuffled,2021.2.3,59.961924209301394,
C:\Users\subject\Desktop\SVRT Experiments\SVRT Experiment 3\svrt_images\generated_images\results_problem_2,,,,C:\Users\subject\Desktop\SVRT Experiments\SVRT Experiment 3\svrt_images\generated_images\results_problem_2\sample_0_0015.png,,,,,,,,,,,,,,,,,,,,0,3,3,3,0,30,30,30,,,,,,,,,,,,,,j,2,B,B,28,1,Correct!,0.05959000007715076,1214.1321911000414,None,1214.1321911000414,None,1214.2489697999554,None,,,,,109,001,2023-10-10_11h15.35.449,colored_shuffled,2021.2.3,59.961924209301394,
C:\Users\subject\Desktop\SVRT Experiments\SVRT Experiment 3\svrt_images\generated_images\results_problem_2,,,,C:\Users\subject\Desktop\SVRT Experiments\SVRT Experiment 3\svrt_images\generated_images\results_problem_2\sample_1_0005.png,,,,,,,,,,,,,,,,,,,,0,3,3,3,0,31,31,31,,,,,,,,,,,,,,j,2,B,A,28,0,Incorrect!,0.42970819992478937,1215.650043200003,None,1215.650043200003,None,1216.1337251999648,None,,,,,109,001,2023-10-10_11h15.35.449,colored_shuffled,2021.2.3,59.961924209301394,
C:\Users\subject\Desktop\SVRT Experiments\SVRT Experiment 3\svrt_images\generated_images\results_problem_2,,,,C:\Users\subject\Desktop\SVRT Experiments\SVRT Experiment 3\svrt_images\generated_images\results_problem_2\sample_0_0012.png,,,,,,,,,,,,,,,,,,,,0,3,3,3,0,32,32,32,,,,,,,,,,,,,,f,2,A,B,28,0,Incorrect!,0.28241039998829365,1217.5014329999685,None,1217.5014329999685,None,1217.8516883000266,None,,,,,109,001,2023-10-10_11h15.35.449,colored_shuffled,2021.2.3,59.961924209301394,
C:\Users\subject\Desktop\SVRT Experiments\SVRT Experiment 3\svrt_images\generated_images\results_problem_2,,,,C:\Users\subject\Desktop\SVRT Experiments\SVRT Experiment 3\svrt_images\generated_images\results_problem_2\sample_1_0009.png,,,,,,,,,,,,,,,,,,,,0,3,3,3,0,33,33,33,,,,,,,,,,,,,,j,2,B,A,28,0,Incorrect!,0.2523370999842882,1219.219391199993,None,1219.219391199993,None,1219.5029304999625,None,,,,,109,001,2023-10-10_11h15.35.449,colored_shuffled,2021.2.3,59.961924209301394,
C:\Users\subject\Desktop\SVRT Experiments\SVRT Experiment 3\svrt_images\generated_images\results_problem_2,,,,,,,,,,,,,,,,,,,,,,,,0,3,3,3,,,,,,,,,,,,,,,,,,,,,,,,,,,,,,,,1220.5036859000102,1220.5036859000102,space,1.256038899999112,109,001,2023-10-10_11h15.35.449,colored_shuffled,2021.2.3,59.961924209301394,
C:\Users\subject\Desktop\SVRT Experiments\SVRT Experiment 3\svrt_images\generated_images\results_problem_20,,,,,C:\Users\subject\Desktop\SVRT Experiments\SVRT Experiment 3\svrt_images\generated_images\results_problem_20\sample_0_0007.png,,,,,,,,,,,,,,,,,,,0,4,4,4,0,0,0,0,,,,,,,,,,,,,,j,20,B,B,28,1,Correct!,0.6436331999721006,1221.7879888999742,None,1221.7879888999742,None,1222.455125699984,None,,,,,109,001,2023-10-10_11h15.35.449,colored_shuffled,2021.2.3,59.961924209301394,
C:\Users\subject\Desktop\SVRT Experiments\SVRT Experiment 3\svrt_images\generated_images\results_problem_20,,,,,C:\Users\subject\Desktop\SVRT Experiments\SVRT Experiment 3\svrt_images\generated_images\results_problem_20\sample_1_0015.png,,,,,,,,,,,,,,,,,,,0,4,4,4,0,1,1,1,,,,,,,,,,,,,,f,20,A,A,28,1,Correct!,0.2877847000490874,1223.4559143999359,None,1223.4559143999359,None,1223.7728170000482,None,,,,,109,001,2023-10-10_11h15.35.449,colored_shuffled,2021.2.3,59.961924209301394,
C:\Users\subject\Desktop\SVRT Experiments\SVRT Experiment 3\svrt_images\generated_images\results_problem_20,,,,,C:\Users\subject\Desktop\SVRT Experiments\SVRT Experiment 3\svrt_images\generated_images\results_problem_20\sample_1_0006.png,,,,,,,,,,,,,,,,,,,0,4,4,4,0,2,2,2,,,,,,,,,,,,,,j,20,B,A,28,0,Incorrect!,0.2574400999583304,1224.7902524999809,None,1224.7902524999809,None,1225.0737980999984,None,,,,,109,001,2023-10-10_11h15.35.449,colored_shuffled,2021.2.3,59.961924209301394,
C:\Users\subject\Desktop\SVRT Experiments\SVRT Experiment 3\svrt_images\generated_images\results_problem_20,,,,,C:\Users\subject\Desktop\SVRT Experiments\SVRT Experiment 3\svrt_images\generated_images\results_problem_20\sample_0_0008.png,,,,,,,,,,,,,,,,,,,0,4,4,4,0,3,3,3,,,,,,,,,,,,,,j,20,B,B,28,1,Correct!,0.21960670000407845,1226.1081771999598,None,1226.1081771999598,None,1226.3581025999738,None,,,,,109,001,2023-10-10_11h15.35.449,colored_shuffled,2021.2.3,59.961924209301394,
C:\Users\subject\Desktop\SVRT Experiments\SVRT Experiment 3\svrt_images\generated_images\results_problem_20,,,,,C:\Users\subject\Desktop\SVRT Experiments\SVRT Experiment 3\svrt_images\generated_images\results_problem_20\sample_0_0016.png,,,,,,,,,,,,,,,,,,,0,4,4,4,0,4,4,4,,,,,,,,,,,,,,f,20,A,B,28,0,Incorrect!,0.055455699912272394,1227.3922185000265,None,1227.3922185000265,None,1227.4756093999604,None,,,,,109,001,2023-10-10_11h15.35.449,colored_shuffled,2021.2.3,59.961924209301394,
C:\Users\subject\Desktop\SVRT Experiments\SVRT Experiment 3\svrt_images\generated_images\results_problem_20,,,,,C:\Users\subject\Desktop\SVRT Experiments\SVRT Experiment 3\svrt_images\generated_images\results_problem_20\sample_0_0004.png,,,,,,,,,,,,,,,,,,,0,4,4,4,0,5,5,5,,,,,,,,,,,,,,j,20,B,B,28,1,Correct!,0.34529199998360127,1228.5264068000251,None,1228.5264068000251,None,1228.8933436999796,None,,,,,109,001,2023-10-10_11h15.35.449,colored_shuffled,2021.2.3,59.961924209301394,
C:\Users\subject\Desktop\SVRT Experiments\SVRT Experiment 3\svrt_images\generated_images\results_problem_20,,,,,C:\Users\subject\Desktop\SVRT Experiments\SVRT Experiment 3\svrt_images\generated_images\results_problem_20\sample_1_0000.png,,,,,,,,,,,,,,,,,,,0,4,4,4,0,6,6,6,,,,,,,,,,,,,,j,20,B,A,28,0,Incorrect!,0.21553089993540198,1229.9441377000185,None,1229.9441377000185,None,1230.1776508999756,None,,,,,109,001,2023-10-10_11h15.35.449,colored_shuffled,2021.2.3,59.961924209301394,
C:\Users\subject\Desktop\SVRT Experiments\SVRT Experiment 3\svrt_images\generated_images\results_problem_20,,,,,C:\Users\subject\Desktop\SVRT Experiments\SVRT Experiment 3\svrt_images\generated_images\results_problem_20\sample_0_0015.png,,,,,,,,,,,,,,,,,,,0,4,4,4,0,7,7,7,,,,,,,,,,,,,,f,20,A,B,28,0,Incorrect!,0.05853550008032471,1231.2451168999542,None,1231.2451168999542,None,1231.3285171999596,None,,,,,109,001,2023-10-10_11h15.35.449,colored_shuffled,2021.2.3,59.961924209301394,
C:\Users\subject\Desktop\SVRT Experiments\SVRT Experiment 3\svrt_images\generated_images\results_problem_20,,,,,C:\Users\subject\Desktop\SVRT Experiments\SVRT Experiment 3\svrt_images\generated_images\results_problem_20\sample_1_0010.png,,,,,,,,,,,,,,,,,,,0,4,4,4,0,8,8,8,,,,,,,,,,,,,,j,20,B,A,28,0,Incorrect!,0.10767800000030547,1232.3959884999786,None,1232.3959884999786,None,1232.52941930003,None,,,,,109,001,2023-10-10_11h15.35.449,colored_shuffled,2021.2.3,59.961924209301394,
C:\Users\subject\Desktop\SVRT Experiments\SVRT Experiment 3\svrt_images\generated_images\results_problem_20,,,,,C:\Users\subject\Desktop\SVRT Experiments\SVRT Experiment 3\svrt_images\generated_images\results_problem_20\sample_0_0000.png,,,,,,,,,,,,,,,,,,,0,4,4,4,0,9,9,9,,,,,,,,,,,,,,f,20,A,B,28,0,Incorrect!,0.010068800067529082,1233.6135730999522,None,1233.6135730999522,None,1233.6469286000356,None,,,,,109,001,2023-10-10_11h15.35.449,colored_shuffled,2021.2.3,59.961924209301394,
C:\Users\subject\Desktop\SVRT Experiments\SVRT Experiment 3\svrt_images\generated_images\results_problem_20,,,,,C:\Users\subject\Desktop\SVRT Experiments\SVRT Experiment 3\svrt_images\generated_images\results_problem_20\sample_0_0002.png,,,,,,,,,,,,,,,,,,,0,4,4,4,0,10,10,10,,,,,,,,,,,,,,j,20,B,B,28,1,Correct!,0.06785599992144853,1234.7477668999927,None,1234.7477668999927,None,1234.847834300017,None,,,,,109,001,2023-10-10_11h15.35.449,colored_shuffled,2021.2.3,59.961924209301394,
C:\Users\subject\Desktop\SVRT Experiments\SVRT Experiment 3\svrt_images\generated_images\results_problem_20,,,,,C:\Users\subject\Desktop\SVRT Experiments\SVRT Experiment 3\svrt_images\generated_images\results_problem_20\sample_1_0014.png,,,,,,,,,,,,,,,,,,,0,4,4,4,0,11,11,11,,,,,,,,,,,,,,f,20,A,A,28,1,Correct!,0.3149443999864161,1235.9486687999452,None,1235.9486687999452,None,1236.2822574999882,None,,,,,109,001,2023-10-10_11h15.35.449,colored_shuffled,2021.2.3,59.961924209301394,
C:\Users\subject\Desktop\SVRT Experiments\SVRT Experiment 3\svrt_images\generated_images\results_problem_20,,,,,C:\Users\subject\Desktop\SVRT Experiments\SVRT Experiment 3\svrt_images\generated_images\results_problem_20\sample_1_0003.png,,,,,,,,,,,,,,,,,,,0,4,4,4,0,12,12,12,,,,,,,,,,,,,,j,20,B,A,28,0,Incorrect!,0.27984259999357164,1237.3997614999535,None,1237.3997614999535,None,1237.6999854999594,None,,,,,109,001,2023-10-10_11h15.35.449,colored_shuffled,2021.2.3,59.961924209301394,
C:\Users\subject\Desktop\SVRT Experiments\SVRT Experiment 3\svrt_images\generated_images\results_problem_20,,,,,C:\Users\subject\Desktop\SVRT Experiments\SVRT Experiment 3\svrt_images\generated_images\results_problem_20\sample_0_0003.png,,,,,,,,,,,,,,,,,,,0,4,4,4,0,13,13,13,,,,,,,,,,,,,,f,20,A,B,28,0,Incorrect!,0.2539961999282241,1238.8174906000495,None,1238.8174906000495,None,1239.1010464000283,None,,,,,109,001,2023-10-10_11h15.35.449,colored_shuffled,2021.2.3,59.961924209301394,
C:\Users\subject\Desktop\SVRT Experiments\SVRT Experiment 3\svrt_images\generated_images\results_problem_20,,,,,C:\Users\subject\Desktop\SVRT Experiments\SVRT Experiment 3\svrt_images\generated_images\results_problem_20\sample_1_0016.png,,,,,,,,,,,,,,,,,,,0,4,4,4,0,14,14,14,,,,,,,,,,,,,,j,20,B,A,28,0,Incorrect!,0.19635720003861934,1240.2351967999712,None,1240.2351967999712,None,1240.4520393999992,None,,,,,109,001,2023-10-10_11h15.35.449,colored_shuffled,2021.2.3,59.961924209301394,
C:\Users\subject\Desktop\SVRT Experiments\SVRT Experiment 3\svrt_images\generated_images\results_problem_20,,,,,C:\Users\subject\Desktop\SVRT Experiments\SVRT Experiment 3\svrt_images\generated_images\results_problem_20\sample_0_0011.png,,,,,,,,,,,,,,,,,,,0,4,4,4,0,15,15,15,,,,,,,,,,,,,,j,20,B,B,28,1,Correct!,0.10869710007682443,1241.602890499984,None,1241.602890499984,None,1241.7363608999876,None,,,,,109,001,2023-10-10_11h15.35.449,colored_shuffled,2021.2.3,59.961924209301394,
C:\Users\subject\Desktop\SVRT Experiments\SVRT Experiment 3\svrt_images\generated_images\results_problem_20,,,,,C:\Users\subject\Desktop\SVRT Experiments\SVRT Experiment 3\svrt_images\generated_images\results_problem_20\sample_1_0008.png,,,,,,,,,,,,,,,,,,,0,4,4,4,0,16,16,16,,,,,,,,,,,,,,j,20,B,A,28,0,Incorrect!,0.3683005999773741,1242.8872320000082,None,1242.8872320000082,None,1243.287528899964,None,,,,,109,001,2023-10-10_11h15.35.449,colored_shuffled,2021.2.3,59.961924209301394,
C:\Users\subject\Desktop\SVRT Experiments\SVRT Experiment 3\svrt_images\generated_images\results_problem_20,,,,,C:\Users\subject\Desktop\SVRT Experiments\SVRT Experiment 3\svrt_images\generated_images\results_problem_20\sample_1_0012.png,,,,,,,,,,,,,,,,,,,0,4,4,4,0,17,17,17,,,,,,,,,,,,,,j,20,B,A,28,0,Incorrect!,0.056481200037524104,1244.4550848000217,None,1244.4550848000217,None,1244.5384716000408,None,,,,,109,001,2023-10-10_11h15.35.449,colored_shuffled,2021.2.3,59.961924209301394,
C:\Users\subject\Desktop\SVRT Experiments\SVRT Experiment 3\svrt_images\generated_images\results_problem_20,,,,,C:\Users\subject\Desktop\SVRT Experiments\SVRT Experiment 3\svrt_images\generated_images\results_problem_20\sample_0_0005.png,,,,,,,,,,,,,,,,,,,0,4,4,4,0,18,18,18,,,,,,,,,,,,,,j,20,B,B,28,1,Correct!,0.1888365000486374,1245.7227041999577,None,1245.7227041999577,None,1245.9395273999544,None,,,,,109,001,2023-10-10_11h15.35.449,colored_shuffled,2021.2.3,59.961924209301394,
C:\Users\subject\Desktop\SVRT Experiments\SVRT Experiment 3\svrt_images\generated_images\results_problem_20,,,,,C:\Users\subject\Desktop\SVRT Experiments\SVRT Experiment 3\svrt_images\generated_images\results_problem_20\sample_1_0013.png,,,,,,,,,,,,,,,,,,,0,4,4,4,0,19,19,19,,,,,,,,,,,,,,f,20,A,A,28,1,Correct!,0.19929069990757853,1247.264255899936,None,1247.264255899936,None,1247.507376799942,None,,,,,109,001,2023-10-10_11h15.35.449,colored_shuffled,2021.2.3,59.961924209301394,
C:\Users\subject\Desktop\SVRT Experiments\SVRT Experiment 3\svrt_images\generated_images\results_problem_20,,,,,C:\Users\subject\Desktop\SVRT Experiments\SVRT Experiment 3\svrt_images\generated_images\results_problem_20\sample_1_0009.png,,,,,,,,,,,,,,,,,,,0,4,4,4,0,20,20,20,,,,,,,,,,,,,,f,20,A,A,28,1,Correct!,0.25123379996512085,1248.7082896999782,None,1248.7082896999782,None,1248.991829699953,None,,,,,109,001,2023-10-10_11h15.35.449,colored_shuffled,2021.2.3,59.961924209301394,
C:\Users\subject\Desktop\SVRT Experiments\SVRT Experiment 3\svrt_images\generated_images\results_problem_20,,,,,C:\Users\subject\Desktop\SVRT Experiments\SVRT Experiment 3\svrt_images\generated_images\results_problem_20\sample_0_0014.png,,,,,,,,,,,,,,,,,,,0,4,4,4,0,21,21,21,,,,,,,,,,,,,,f,20,A,B,28,0,Incorrect!,0.18209639994893223,1250.209423799999,None,1250.209423799999,None,1250.426234500017,None,,,,,109,001,2023-10-10_11h15.35.449,colored_shuffled,2021.2.3,59.961924209301394,
C:\Users\subject\Desktop\SVRT Experiments\SVRT Experiment 3\svrt_images\generated_images\results_problem_20,,,,,C:\Users\subject\Desktop\SVRT Experiments\SVRT Experiment 3\svrt_images\generated_images\results_problem_20\sample_0_0010.png,,,,,,,,,,,,,,,,,,,0,4,4,4,0,22,22,22,,,,,,,,,,,,,,j,20,B,B,28,1,Correct!,0.3149604999925941,1251.6605072999373,None,1251.6605072999373,None,1252.0107546999352,None,,,,,109,001,2023-10-10_11h15.35.449,colored_shuffled,2021.2.3,59.961924209301394,
C:\Users\subject\Desktop\SVRT Experiments\SVRT Experiment 3\svrt_images\generated_images\results_problem_20,,,,,C:\Users\subject\Desktop\SVRT Experiments\SVRT Experiment 3\svrt_images\generated_images\results_problem_20\sample_1_0011.png,,,,,,,,,,,,,,,,,,,0,4,4,4,0,23,23,23,,,,,,,,,,,,,,f,20,A,A,28,1,Correct!,0.08246359997428954,1253.2450486000162,None,1253.2450486000162,None,1253.361753199948,None,,,,,109,001,2023-10-10_11h15.35.449,colored_shuffled,2021.2.3,59.961924209301394,
C:\Users\subject\Desktop\SVRT Experiments\SVRT Experiment 3\svrt_images\generated_images\results_problem_20,,,,,C:\Users\subject\Desktop\SVRT Experiments\SVRT Experiment 3\svrt_images\generated_images\results_problem_20\sample_1_0002.png,,,,,,,,,,,,,,,,,,,0,4,4,4,0,24,24,24,,,,,,,,,,,,,,j,20,B,A,28,0,Incorrect!,0.2020133000332862,1254.6294172999915,None,1254.6294172999915,None,1254.862918799976,None,,,,,109,001,2023-10-10_11h15.35.449,colored_shuffled,2021.2.3,59.961924209301394,
C:\Users\subject\Desktop\SVRT Experiments\SVRT Experiment 3\svrt_images\generated_images\results_problem_20,,,,,C:\Users\subject\Desktop\SVRT Experiments\SVRT Experiment 3\svrt_images\generated_images\results_problem_20\sample_0_0009.png,,,,,,,,,,,,,,,,,,,0,4,4,4,0,25,25,25,,,,,,,,,,,,,,f,20,A,B,28,0,Incorrect!,0.3809210999170318,1256.1305612999713,None,1256.1305612999713,None,1256.5475253999466,None,,,,,109,001,2023-10-10_11h15.35.449,colored_shuffled,2021.2.3,59.961924209301394,
C:\Users\subject\Desktop\SVRT Experiments\SVRT Experiment 3\svrt_images\generated_images\results_problem_20,,,,,C:\Users\subject\Desktop\SVRT Experiments\SVRT Experiment 3\svrt_images\generated_images\results_problem_20\sample_1_0004.png,,,,,,,,,,,,,,,,,,,0,4,4,4,0,26,26,26,,,,,,,,,,,,,,j,20,B,A,28,0,Incorrect!,0.45618970005307347,1257.8151519999374,None,1257.8151519999374,None,1258.332219199976,None,,,,,109,001,2023-10-10_11h15.35.449,colored_shuffled,2021.2.3,59.961924209301394,
C:\Users\subject\Desktop\SVRT Experiments\SVRT Experiment 3\svrt_images\generated_images\results_problem_20,,,,,C:\Users\subject\Desktop\SVRT Experiments\SVRT Experiment 3\svrt_images\generated_images\results_problem_20\sample_1_0007.png,,,,,,,,,,,,,,,,,,,0,4,4,4,0,27,27,27,,,,,,,,,,,,,,j,20,B,A,28,0,Incorrect!,0.35093890002463013,1259.6165212000487,None,1259.6165212000487,None,1260.0334879000438,None,,,,,109,001,2023-10-10_11h15.35.449,colored_shuffled,2021.2.3,59.961924209301394,
C:\Users\subject\Desktop\SVRT Experiments\SVRT Experiment 3\svrt_images\generated_images\results_problem_20,,,,,C:\Users\subject\Desktop\SVRT Experiments\SVRT Experiment 3\svrt_images\generated_images\results_problem_20\sample_0_0006.png,,,,,,,,,,,,,,,,,,,0,4,4,4,0,28,28,28,,,,,,,,,,,,,,f,20,A,B,28,0,Incorrect!,4.232906399993226,1261.3344735000283,None,1261.3344735000283,None,1265.604347000015,None,,,,,109,001,2023-10-10_11h15.35.449,colored_shuffled,2021.2.3,59.961924209301394,
C:\Users\subject\Desktop\SVRT Experiments\SVRT Experiment 3\svrt_images\generated_images\results_problem_20,,,,,C:\Users\subject\Desktop\SVRT Experiments\SVRT Experiment 3\svrt_images\generated_images\results_problem_20\sample_1_0005.png,,,,,,,,,,,,,,,,,,,0,4,4,4,0,29,29,29,,,,,,,,,,,,,,j,20,B,A,28,0,Incorrect!,0.22205420001409948,1266.9053431999637,None,1266.9053431999637,None,1267.1722024000483,None,,,,,109,001,2023-10-10_11h15.35.449,colored_shuffled,2021.2.3,59.961924209301394,
C:\Users\subject\Desktop\SVRT Experiments\SVRT Experiment 3\svrt_images\generated_images\results_problem_20,,,,,C:\Users\subject\Desktop\SVRT Experiments\SVRT Experiment 3\svrt_images\generated_images\results_problem_20\sample_0_0001.png,,,,,,,,,,,,,,,,,,,0,4,4,4,0,30,30,30,,,,,,,,,,,,,,j,20,B,B,28,1,Correct!,0.2935251999879256,1268.4898642000044,None,1268.4898642000044,None,1268.823444299982,None,,,,,109,001,2023-10-10_11h15.35.449,colored_shuffled,2021.2.3,59.961924209301394,
C:\Users\subject\Desktop\SVRT Experiments\SVRT Experiment 3\svrt_images\generated_images\results_problem_20,,,,,C:\Users\subject\Desktop\SVRT Experiments\SVRT Experiment 3\svrt_images\generated_images\results_problem_20\sample_0_0012.png,,,,,,,,,,,,,,,,,,,0,4,4,4,0,31,31,31,,,,,,,,,,,,,,f,20,A,B,28,0,Incorrect!,0.29687610000837594,1270.1744549999712,None,1270.1744549999712,None,1270.524706600001,None,,,,,109,001,2023-10-10_11h15.35.449,colored_shuffled,2021.2.3,59.961924209301394,
C:\Users\subject\Desktop\SVRT Experiments\SVRT Experiment 3\svrt_images\generated_images\results_problem_20,,,,,C:\Users\subject\Desktop\SVRT Experiments\SVRT Experiment 3\svrt_images\generated_images\results_problem_20\sample_1_0001.png,,,,,,,,,,,,,,,,,,,0,4,4,4,0,32,32,32,,,,,,,,,,,,,,f,20,A,A,28,1,Correct!,0.22771099989768118,1271.8757520000217,None,1271.8757520000217,None,1272.1592532000504,None,,,,,109,001,2023-10-10_11h15.35.449,colored_shuffled,2021.2.3,59.961924209301394,
C:\Users\subject\Desktop\SVRT Experiments\SVRT Experiment 3\svrt_images\generated_images\results_problem_20,,,,,C:\Users\subject\Desktop\SVRT Experiments\SVRT Experiment 3\svrt_images\generated_images\results_problem_20\sample_0_0013.png,,,,,,,,,,,,,,,,,,,0,4,4,4,0,33,33,33,,,,,,,,,,,,,,f,20,A,B,28,0,Incorrect!,0.2163917999714613,1273.5269623999484,None,1273.5269623999484,None,1273.8105384999653,None,,,,,109,001,2023-10-10_11h15.35.449,colored_shuffled,2021.2.3,59.961924209301394,
C:\Users\subject\Desktop\SVRT Experiments\SVRT Experiment 3\svrt_images\generated_images\results_problem_20,,,,,,,,,,,,,,,,,,,,,,,,0,4,4,4,,,,,,,,,,,,,,,,,,,,,,,,,,,,,,,,1274.8112905999878,1274.8112905999878,space,0.9880588001105934,109,001,2023-10-10_11h15.35.449,colored_shuffled,2021.2.3,59.961924209301394,
C:\Users\subject\Desktop\SVRT Experiments\SVRT Experiment 3\svrt_images\generated_images\results_problem_6,,,,,,C:\Users\subject\Desktop\SVRT Experiments\SVRT Experiment 3\svrt_images\generated_images\results_problem_6\sample_1_0006.png,,,,,,,,,,,,,,,,,,0,5,5,5,0,0,0,0,,,,,,,,,,,,,,f,6,A,A,28,1,Correct!,32.06646450003609,1275.8286606000038,None,1275.8286606000038,None,1307.9195828000084,None,,,,,109,001,2023-10-10_11h15.35.449,colored_shuffled,2021.2.3,59.961924209301394,
C:\Users\subject\Desktop\SVRT Experiments\SVRT Experiment 3\svrt_images\generated_images\results_problem_6,,,,,,C:\Users\subject\Desktop\SVRT Experiments\SVRT Experiment 3\svrt_images\generated_images\results_problem_6\sample_1_0010.png,,,,,,,,,,,,,,,,,,0,5,5,5,0,1,1,1,,,,,,,,,,,,,,j,6,B,A,28,0,Incorrect!,0.1827720000874251,1308.9203011000063,None,1308.9203011000063,None,1309.1204846999608,None,,,,,109,001,2023-10-10_11h15.35.449,colored_shuffled,2021.2.3,59.961924209301394,
C:\Users\subject\Desktop\SVRT Experiments\SVRT Experiment 3\svrt_images\generated_images\results_problem_6,,,,,,C:\Users\subject\Desktop\SVRT Experiments\SVRT Experiment 3\svrt_images\generated_images\results_problem_6\sample_1_0012.png,,,,,,,,,,,,,,,,,,0,5,5,5,0,2,2,2,,,,,,,,,,,,,,f,6,A,A,28,1,Correct!,0.3491412999574095,1310.1379244000418,None,1310.1379244000418,None,1310.5048552999506,None,,,,,109,001,2023-10-10_11h15.35.449,colored_shuffled,2021.2.3,59.961924209301394,
C:\Users\subject\Desktop\SVRT Experiments\SVRT Experiment 3\svrt_images\generated_images\results_problem_6,,,,,,C:\Users\subject\Desktop\SVRT Experiments\SVRT Experiment 3\svrt_images\generated_images\results_problem_6\sample_0_0008.png,,,,,,,,,,,,,,,,,,0,5,5,5,0,3,3,3,,,,,,,,,,,,,,j,6,B,B,28,1,Correct!,0.2849517000140622,1311.5222651000367,None,1311.5222651000367,None,1311.8392007000512,None,,,,,109,001,2023-10-10_11h15.35.449,colored_shuffled,2021.2.3,59.961924209301394,
C:\Users\subject\Desktop\SVRT Experiments\SVRT Experiment 3\svrt_images\generated_images\results_problem_6,,,,,,C:\Users\subject\Desktop\SVRT Experiments\SVRT Experiment 3\svrt_images\generated_images\results_problem_6\sample_1_0009.png,,,,,,,,,,,,,,,,,,0,5,5,5,0,4,4,4,,,,,,,,,,,,,,j,6,B,A,28,0,Incorrect!,0.27777609997428954,1312.8732780000428,None,1312.8732780000428,None,1313.1735380999744,None,,,,,109,001,2023-10-10_11h15.35.449,colored_shuffled,2021.2.3,59.961924209301394,
C:\Users\subject\Desktop\SVRT Experiments\SVRT Experiment 3\svrt_images\generated_images\results_problem_6,,,,,,C:\Users\subject\Desktop\SVRT Experiments\SVRT Experiment 3\svrt_images\generated_images\results_problem_6\sample_1_0014.png,,,,,,,,,,,,,,,,,,0,5,5,5,0,5,5,5,,,,,,,,,,,,,,f,6,A,A,28,1,Correct!,0.16684650001116097,1314.224298599991,None,1314.224298599991,None,1314.4244849999668,None,,,,,109,001,2023-10-10_11h15.35.449,colored_shuffled,2021.2.3,59.961924209301394,
C:\Users\subject\Desktop\SVRT Experiments\SVRT Experiment 3\svrt_images\generated_images\results_problem_6,,,,,,C:\Users\subject\Desktop\SVRT Experiments\SVRT Experiment 3\svrt_images\generated_images\results_problem_6\sample_1_0002.png,,,,,,,,,,,,,,,,,,0,5,5,5,0,6,6,6,,,,,,,,,,,,,,f,6,A,A,28,1,Correct!,0.1478847999824211,1315.4752832000377,None,1315.4752832000377,None,1315.6420616999967,None,,,,,109,001,2023-10-10_11h15.35.449,colored_shuffled,2021.2.3,59.961924209301394,
C:\Users\subject\Desktop\SVRT Experiments\SVRT Experiment 3\svrt_images\generated_images\results_problem_6,,,,,,C:\Users\subject\Desktop\SVRT Experiments\SVRT Experiment 3\svrt_images\generated_images\results_problem_6\sample_1_0011.png,,,,,,,,,,,,,,,,,,0,5,5,5,0,7,7,7,,,,,,,,,,,,,,j,6,B,A,28,0,Incorrect!,0.009612400084733963,1316.7095510000363,None,1316.7095510000363,None,1316.7428999999538,None,,,,,109,001,2023-10-10_11h15.35.449,colored_shuffled,2021.2.3,59.961924209301394,
C:\Users\subject\Desktop\SVRT Experiments\SVRT Experiment 3\svrt_images\generated_images\results_problem_6,,,,,,C:\Users\subject\Desktop\SVRT Experiments\SVRT Experiment 3\svrt_images\generated_images\results_problem_6\sample_0_0003.png,,,,,,,,,,,,,,,,,,0,5,5,5,0,8,8,8,,,,,,,,,,,,,,f,6,A,B,28,0,Incorrect!,0.2687018000287935,1317.8103745999979,None,1317.8103745999979,None,1318.1105902999407,None,,,,,109,001,2023-10-10_11h15.35.449,colored_shuffled,2021.2.3,59.961924209301394,
C:\Users\subject\Desktop\SVRT Experiments\SVRT Experiment 3\svrt_images\generated_images\results_problem_6,,,,,,C:\Users\subject\Desktop\SVRT Experiments\SVRT Experiment 3\svrt_images\generated_images\results_problem_6\sample_0_0012.png,,,,,,,,,,,,,,,,,,0,5,5,5,0,9,9,9,,,,,,,,,,,,,,f,6,A,B,28,0,Incorrect!,0.29227560001891106,1319.194752600044,None,1319.194752600044,None,1319.5116544000339,None,,,,,109,001,2023-10-10_11h15.35.449,colored_shuffled,2021.2.3,59.961924209301394,
C:\Users\subject\Desktop\SVRT Experiments\SVRT Experiment 3\svrt_images\generated_images\results_problem_6,,,,,,C:\Users\subject\Desktop\SVRT Experiments\SVRT Experiment 3\svrt_images\generated_images\results_problem_6\sample_1_0003.png,,,,,,,,,,,,,,,,,,0,5,5,5,0,10,10,10,,,,,,,,,,,,,,j,6,B,A,28,0,Incorrect!,0.02652809990104288,1320.6124886999605,None,1320.6124886999605,None,1320.6625181999989,None,,,,,109,001,2023-10-10_11h15.35.449,colored_shuffled,2021.2.3,59.961924209301394,
C:\Users\subject\Desktop\SVRT Experiments\SVRT Experiment 3\svrt_images\generated_images\results_problem_6,,,,,,C:\Users\subject\Desktop\SVRT Experiments\SVRT Experiment 3\svrt_images\generated_images\results_problem_6\sample_0_0001.png,,,,,,,,,,,,,,,,,,0,5,5,5,0,11,11,11,,,,,,,,,,,,,,f,6,A,B,28,0,Incorrect!,0.25969289999920875,1321.7633625000017,None,1321.7633625000017,None,1322.046899799956,None,,,,,109,001,2023-10-10_11h15.35.449,colored_shuffled,2021.2.3,59.961924209301394,
C:\Users\subject\Desktop\SVRT Experiments\SVRT Experiment 3\svrt_images\generated_images\results_problem_6,,,,,,C:\Users\subject\Desktop\SVRT Experiments\SVRT Experiment 3\svrt_images\generated_images\results_problem_6\sample_0_0002.png,,,,,,,,,,,,,,,,,,0,5,5,5,0,12,12,12,,,,,,,,,,,,,,f,6,A,B,28,0,Incorrect!,0.05062090000137687,1323.164392799954,None,1323.164392799954,None,1323.2478053999366,None,,,,,109,001,2023-10-10_11h15.35.449,colored_shuffled,2021.2.3,59.961924209301394,
C:\Users\subject\Desktop\SVRT Experiments\SVRT Experiment 3\svrt_images\generated_images\results_problem_6,,,,,,C:\Users\subject\Desktop\SVRT Experiments\SVRT Experiment 3\svrt_images\generated_images\results_problem_6\sample_0_0013.png,,,,,,,,,,,,,,,,,,0,5,5,5,0,13,13,13,,,,,,,,,,,,,,f,6,A,B,28,0,Incorrect!,0.21768040000461042,1324.3653252000222,None,1324.3653252000222,None,1324.6154879999813,None,,,,,109,001,2023-10-10_11h15.35.449,colored_shuffled,2021.2.3,59.961924209301394,
C:\Users\subject\Desktop\SVRT Experiments\SVRT Experiment 3\svrt_images\generated_images\results_problem_6,,,,,,C:\Users\subject\Desktop\SVRT Experiments\SVRT Experiment 3\svrt_images\generated_images\results_problem_6\sample_0_0006.png,,,,,,,,,,,,,,,,,,0,5,5,5,0,14,14,14,,,,,,,,,,,,,,f,6,A,B,28,0,Incorrect!,0.09663079993333668,1325.7663771000225,None,1325.7663771000225,None,1325.8831194000086,None,,,,,109,001,2023-10-10_11h15.35.449,colored_shuffled,2021.2.3,59.961924209301394,
C:\Users\subject\Desktop\SVRT Experiments\SVRT Experiment 3\svrt_images\generated_images\results_problem_6,,,,,,C:\Users\subject\Desktop\SVRT Experiments\SVRT Experiment 3\svrt_images\generated_images\results_problem_6\sample_1_0013.png,,,,,,,,,,,,,,,,,,0,5,5,5,0,15,15,15,,,,,,,,,,,,,,f,6,A,A,28,1,Correct!,0.2530068999622017,1327.0339976999676,None,1327.0339976999676,None,1327.317536000046,None,,,,,109,001,2023-10-10_11h15.35.449,colored_shuffled,2021.2.3,59.961924209301394,
C:\Users\subject\Desktop\SVRT Experiments\SVRT Experiment 3\svrt_images\generated_images\results_problem_6,,,,,,C:\Users\subject\Desktop\SVRT Experiments\SVRT Experiment 3\svrt_images\generated_images\results_problem_6\sample_1_0016.png,,,,,,,,,,,,,,,,,,0,5,5,5,0,16,16,16,,,,,,,,,,,,,,j,6,B,A,28,0,Incorrect!,0.2907157000154257,1328.468416000018,None,1328.468416000018,None,1328.7853100999491,None,,,,,109,001,2023-10-10_11h15.35.449,colored_shuffled,2021.2.3,59.961924209301394,
C:\Users\subject\Desktop\SVRT Experiments\SVRT Experiment 3\svrt_images\generated_images\results_problem_6,,,,,,C:\Users\subject\Desktop\SVRT Experiments\SVRT Experiment 3\svrt_images\generated_images\results_problem_6\sample_0_0004.png,,,,,,,,,,,,,,,,,,0,5,5,5,0,17,17,17,,,,,,,,,,,,,,f,6,A,B,28,0,Incorrect!,0.062148199998773634,1329.9528627999825,None,1329.9528627999825,None,1330.0362479999894,None,,,,,109,001,2023-10-10_11h15.35.449,colored_shuffled,2021.2.3,59.961924209301394,
C:\Users\subject\Desktop\SVRT Experiments\SVRT Experiment 3\svrt_images\generated_images\results_problem_6,,,,,,C:\Users\subject\Desktop\SVRT Experiments\SVRT Experiment 3\svrt_images\generated_images\results_problem_6\sample_0_0000.png,,,,,,,,,,,,,,,,,,0,5,5,5,0,18,18,18,,,,,,,,,,,,,,j,6,B,B,28,1,Correct!,0.010469799977727234,1331.2204874999588,None,1331.2204874999588,None,1331.2705182000063,None,,,,,109,001,2023-10-10_11h15.35.449,colored_shuffled,2021.2.3,59.961924209301394,
C:\Users\subject\Desktop\SVRT Experiments\SVRT Experiment 3\svrt_images\generated_images\results_problem_6,,,,,,C:\Users\subject\Desktop\SVRT Experiments\SVRT Experiment 3\svrt_images\generated_images\results_problem_6\sample_0_0009.png,,,,,,,,,,,,,,,,,,0,5,5,5,0,19,19,19,,,,,,,,,,,,,,j,6,B,B,28,1,Correct!,0.42343119997531176,1332.4714251999976,None,1332.4714251999976,None,1332.9217580000404,None,,,,,109,001,2023-10-10_11h15.35.449,colored_shuffled,2021.2.3,59.961924209301394,
C:\Users\subject\Desktop\SVRT Experiments\SVRT Experiment 3\svrt_images\generated_images\results_problem_6,,,,,,C:\Users\subject\Desktop\SVRT Experiments\SVRT Experiment 3\svrt_images\generated_images\results_problem_6\sample_1_0007.png,,,,,,,,,,,,,,,,,,0,5,5,5,0,20,20,20,,,,,,,,,,,,,,j,6,B,A,28,0,Incorrect!,0.1963646000949666,1334.122674299986,None,1334.122674299986,None,1334.3394955999684,None,,,,,109,001,2023-10-10_11h15.35.449,colored_shuffled,2021.2.3,59.961924209301394,
C:\Users\subject\Desktop\SVRT Experiments\SVRT Experiment 3\svrt_images\generated_images\results_problem_6,,,,,,C:\Users\subject\Desktop\SVRT Experiments\SVRT Experiment 3\svrt_images\generated_images\results_problem_6\sample_0_0016.png,,,,,,,,,,,,,,,,,,0,5,5,5,0,21,21,21,,,,,,,,,,,,,,j,6,B,B,28,1,Correct!,0.28982529998756945,1335.5570891000098,None,1335.5570891000098,None,1335.8739850999555,None,,,,,109,001,2023-10-10_11h15.35.449,colored_shuffled,2021.2.3,59.961924209301394,
C:\Users\subject\Desktop\SVRT Experiments\SVRT Experiment 3\svrt_images\generated_images\results_problem_6,,,,,,C:\Users\subject\Desktop\SVRT Experiments\SVRT Experiment 3\svrt_images\generated_images\results_problem_6\sample_1_0000.png,,,,,,,,,,,,,,,,,,0,5,5,5,0,22,22,22,,,,,,,,,,,,,,f,6,A,A,28,1,Correct!,0.17062530003022403,1337.1082572999876,None,1337.1082572999876,None,1337.325081499992,None,,,,,109,001,2023-10-10_11h15.35.449,colored_shuffled,2021.2.3,59.961924209301394,
C:\Users\subject\Desktop\SVRT Experiments\SVRT Experiment 3\svrt_images\generated_images\results_problem_6,,,,,,C:\Users\subject\Desktop\SVRT Experiments\SVRT Experiment 3\svrt_images\generated_images\results_problem_6\sample_0_0010.png,,,,,,,,,,,,,,,,,,0,5,5,5,0,23,23,23,,,,,,,,,,,,,,j,6,B,B,28,1,Correct!,0.39153519994579256,1338.559352500015,None,1338.559352500015,None,1338.97632529994,None,,,,,109,001,2023-10-10_11h15.35.449,colored_shuffled,2021.2.3,59.961924209301394,
C:\Users\subject\Desktop\SVRT Experiments\SVRT Experiment 3\svrt_images\generated_images\results_problem_6,,,,,,C:\Users\subject\Desktop\SVRT Experiments\SVRT Experiment 3\svrt_images\generated_images\results_problem_6\sample_1_0005.png,,,,,,,,,,,,,,,,,,0,5,5,5,0,24,24,24,,,,,,,,,,,,,,j,6,B,A,28,0,Incorrect!,0.24370600003749132,1340.2272788999835,None,1340.2272788999835,None,1340.4941363999387,None,,,,,109,001,2023-10-10_11h15.35.449,colored_shuffled,2021.2.3,59.961924209301394,
C:\Users\subject\Desktop\SVRT Experiments\SVRT Experiment 3\svrt_images\generated_images\results_problem_6,,,,,,C:\Users\subject\Desktop\SVRT Experiments\SVRT Experiment 3\svrt_images\generated_images\results_problem_6\sample_0_0011.png,,,,,,,,,,,,,,,,,,0,5,5,5,0,25,25,25,,,,,,,,,,,,,,j,6,B,B,28,1,Correct!,0.23714520002249628,1341.7617674999638,None,1341.7617674999638,None,1342.0286227000179,None,,,,,109,001,2023-10-10_11h15.35.449,colored_shuffled,2021.2.3,59.961924209301394,
C:\Users\subject\Desktop\SVRT Experiments\SVRT Experiment 3\svrt_images\generated_images\results_problem_6,,,,,,C:\Users\subject\Desktop\SVRT Experiments\SVRT Experiment 3\svrt_images\generated_images\results_problem_6\sample_0_0005.png,,,,,,,,,,,,,,,,,,0,5,5,5,0,26,26,26,,,,,,,,,,,,,,f,6,A,B,28,0,Incorrect!,0.4539043999975547,1343.312956299982,None,1343.312956299982,None,1343.8299780000234,None,,,,,109,001,2023-10-10_11h15.35.449,colored_shuffled,2021.2.3,59.961924209301394,
C:\Users\subject\Desktop\SVRT Experiments\SVRT Experiment 3\svrt_images\generated_images\results_problem_6,,,,,,C:\Users\subject\Desktop\SVRT Experiments\SVRT Experiment 3\svrt_images\generated_images\results_problem_6\sample_1_0004.png,,,,,,,,,,,,,,,,,,0,5,5,5,0,27,27,27,,,,,,,,,,,,,,j,6,B,A,28,0,Incorrect!,0.3158584999619052,1345.1309650000185,None,1345.1309650000185,None,1345.4979033999844,None,,,,,109,001,2023-10-10_11h15.35.449,colored_shuffled,2021.2.3,59.961924209301394,
C:\Users\subject\Desktop\SVRT Experiments\SVRT Experiment 3\svrt_images\generated_images\results_problem_6,,,,,,C:\Users\subject\Desktop\SVRT Experiments\SVRT Experiment 3\svrt_images\generated_images\results_problem_6\sample_0_0015.png,,,,,,,,,,,,,,,,,,0,5,5,5,0,28,28,28,,,,,,,,,,,,,,j,6,B,B,28,1,Correct!,0.5359067000681534,1346.7988976000343,None,1346.7988976000343,None,1347.365958099952,None,,,,,109,001,2023-10-10_11h15.35.449,colored_shuffled,2021.2.3,59.961924209301394,
C:\Users\subject\Desktop\SVRT Experiments\SVRT Experiment 3\svrt_images\generated_images\results_problem_6,,,,,,C:\Users\subject\Desktop\SVRT Experiments\SVRT Experiment 3\svrt_images\generated_images\results_problem_6\sample_1_0015.png,,,,,,,,,,,,,,,,,,0,5,5,5,0,29,29,29,,,,,,,,,,,,,,f,6,A,A,28,1,Correct!,0.23516539996489882,1348.6836571999593,None,1348.6836571999593,None,1348.950511300005,None,,,,,109,001,2023-10-10_11h15.35.449,colored_shuffled,2021.2.3,59.961924209301394,
