folder,results_problem_4,results_problem_5,results_problem_10,results_problem_2,results_problem_20,results_problem_6,results_problem_11,results_problem_8,results_problem_7,results_problem_12,results_problem_16,results_problem_3,results_problem_13,results_problem_19,results_problem_18,results_problem_17,results_problem_14,results_problem_23,results_problem_15,results_problem_21,results_problem_9,results_problem_1,results_problem_22,categories.thisRepN,categories.thisTrialN,categories.thisN,categories.thisIndex,trials.thisRepN,trials.thisTrialN,trials.thisN,trials.thisIndex,consent_text.started,consent_kb.started,consent_kb.keys,consent_kb.rt,Gender.keys,Gender.rt,Age,instructions_text.started,instructions_text.stopped,instructions_kb.keys,instructions_kb.rt,instructions_kb.started,instructions_kb.stopped,trial_kb.keys,current_problem_num,category_resp,answer,seed,accuracy,feedback,trial_kb.rt,trial_kb.started,trial_kb.stopped,trial_image.started,trial_image.stopped,feedback_text.started,feedback_text.stopped,new_problem_kb.started,new_problem_text.started,new_problem_kb.keys,new_problem_kb.rt,Participant #,session,date,expName,psychopyVersion,frameRate,
,,,,,,,,,,,,,,,,,,,,,,,,,,,,,,,,39.65281719999621,39.65281719999621,y,878.5246338999714,,,,,,,,,,,,,,,,,,,,,,,,,,,,110,001,2023-10-10_11h16.33.605,colored_sorted,2021.2.3,60.00513642290505,
,,,,,,,,,,,,,,,,,,,,,,,,,,,,,,,,,,,,m,4.851853600004688,,,,,,,,,,,,,,,,,,,,,,,,,,110,001,2023-10-10_11h16.33.605,colored_sorted,2021.2.3,60.00513642290505,
,,,,,,,,,,,,,,,,,,,,,,,,,,,,,,,,,,,,,,22,928.9141256000148,None,space,20.80733689997578,928.9141256000148,None,,,,,,,,,,,,,,,,,,,110,001,2023-10-10_11h16.33.605,colored_sorted,2021.2.3,60.00513642290505,
C:\Users\subject\Desktop\SVRT Experiments\SVRT Experiment 3\svrt_images\generated_images\results_problem_4,C:\Users\subject\Desktop\SVRT Experiments\SVRT Experiment 3\svrt_images\generated_images\results_problem_4\sample_1_0007.png,,,,,,,,,,,,,,,,,,,,,,,0,0,0,0,0,0,0,0,,,,,,,,,,,,,,f,4,A,A,28,1,Correct!,11.165672799979802,949.7637477000244,None,949.7637477000244,None,960.9635633000289,None,,,,,110,001,2023-10-10_11h16.33.605,colored_sorted,2021.2.3,60.00513642290505,
C:\Users\subject\Desktop\SVRT Experiments\SVRT Experiment 3\svrt_images\generated_images\results_problem_4,C:\Users\subject\Desktop\SVRT Experiments\SVRT Experiment 3\svrt_images\generated_images\results_problem_4\sample_1_0013.png,,,,,,,,,,,,,,,,,,,,,,,0,0,0,0,0,1,1,1,,,,,,,,,,,,,,f,4,A,A,28,1,Correct!,14.301360699988436,961.9801955000148,None,961.9801955000148,None,976.3133089999901,None,,,,,110,001,2023-10-10_11h16.33.605,colored_sorted,2021.2.3,60.00513642290505,
C:\Users\subject\Desktop\SVRT Experiments\SVRT Experiment 3\svrt_images\generated_images\results_problem_4,C:\Users\subject\Desktop\SVRT Experiments\SVRT Experiment 3\svrt_images\generated_images\results_problem_4\sample_0_0003.png,,,,,,,,,,,,,,,,,,,,,,,0,0,0,0,0,2,2,2,,,,,,,,,,,,,,j,4,B,B,28,1,Correct!,0.7670964000280946,977.3466235999949,None,977.3466235999949,None,978.1465993999736,None,,,,,110,001,2023-10-10_11h16.33.605,colored_sorted,2021.2.3,60.00513642290505,
C:\Users\subject\Desktop\SVRT Experiments\SVRT Experiment 3\svrt_images\generated_images\results_problem_4,C:\Users\subject\Desktop\SVRT Experiments\SVRT Experiment 3\svrt_images\generated_images\results_problem_4\sample_0_0015.png,,,,,,,,,,,,,,,,,,,,,,,0,0,0,0,0,3,3,3,,,,,,,,,,,,,,j,4,B,B,28,1,Correct!,0.5895844000042416,979.1798461999861,None,979.1798461999861,None,979.7965606999933,None,,,,,110,001,2023-10-10_11h16.33.605,colored_sorted,2021.2.3,60.00513642290505,
C:\Users\subject\Desktop\SVRT Experiments\SVRT Experiment 3\svrt_images\generated_images\results_problem_4,C:\Users\subject\Desktop\SVRT Experiments\SVRT Experiment 3\svrt_images\generated_images\results_problem_4\sample_0_0011.png,,,,,,,,,,,,,,,,,,,,,,,0,0,0,0,0,4,4,4,,,,,,,,,,,,,,j,4,B,B,28,1,Correct!,0.634878300013952,980.8465495000128,None,980.8465495000128,None,981.5131922999863,None,,,,,110,001,2023-10-10_11h16.33.605,colored_sorted,2021.2.3,60.00513642290505,
C:\Users\subject\Desktop\SVRT Experiments\SVRT Experiment 3\svrt_images\generated_images\results_problem_4,C:\Users\subject\Desktop\SVRT Experiments\SVRT Experiment 3\svrt_images\generated_images\results_problem_4\sample_0_0010.png,,,,,,,,,,,,,,,,,,,,,,,0,0,0,0,0,5,5,5,,,,,,,,,,,,,,j,4,B,B,28,1,Correct!,0.5575246000080369,982.5799256999744,None,982.5799256999744,None,983.1631669999915,None,,,,,110,001,2023-10-10_11h16.33.605,colored_sorted,2021.2.3,60.00513642290505,
C:\Users\subject\Desktop\SVRT Experiments\SVRT Experiment 3\svrt_images\generated_images\results_problem_4,C:\Users\subject\Desktop\SVRT Experiments\SVRT Experiment 3\svrt_images\generated_images\results_problem_4\sample_0_0001.png,,,,,,,,,,,,,,,,,,,,,,,0,0,0,0,0,6,6,6,,,,,,,,,,,,,,j,4,B,B,28,1,Correct!,0.5796383999986574,984.2298252999899,None,984.2298252999899,None,984.8298597999965,None,,,,,110,001,2023-10-10_11h16.33.605,colored_sorted,2021.2.3,60.00513642290505,
C:\Users\subject\Desktop\SVRT Experiments\SVRT Experiment 3\svrt_images\generated_images\results_problem_4,C:\Users\subject\Desktop\SVRT Experiments\SVRT Experiment 3\svrt_images\generated_images\results_problem_4\sample_1_0015.png,,,,,,,,,,,,,,,,,,,,,,,0,0,0,0,0,7,7,7,,,,,,,,,,,,,,,,,,,,,,,,,,,,985.8298109999741,985.8298109999741,space,1.867614999995567,110,001,2023-10-10_11h16.33.605,colored_sorted,2021.2.3,60.00513642290505,
C:\Users\subject\Desktop\SVRT Experiments\SVRT Experiment 3\svrt_images\generated_images\results_problem_5,C:\Users\subject\Desktop\SVRT Experiments\SVRT Experiment 3\svrt_images\generated_images\results_problem_4\sample_1_0015.png,C:\Users\subject\Desktop\SVRT Experiments\SVRT Experiment 3\svrt_images\generated_images\results_problem_5\sample_0_0014.png,,,,,,,,,,,,,,,,,,,,,,0,1,1,1,0,0,0,0,,,,,,,,,,,,,,f,5,A,B,28,0,Incorrect!,2.343670700036455,987.7297455000225,None,987.7297455000225,None,990.0963635999942,None,,,,,110,001,2023-10-10_11h16.33.605,colored_sorted,2021.2.3,60.00513642290505,
C:\Users\subject\Desktop\SVRT Experiments\SVRT Experiment 3\svrt_images\generated_images\results_problem_5,C:\Users\subject\Desktop\SVRT Experiments\SVRT Experiment 3\svrt_images\generated_images\results_problem_4\sample_1_0015.png,C:\Users\subject\Desktop\SVRT Experiments\SVRT Experiment 3\svrt_images\generated_images\results_problem_5\sample_1_0012.png,,,,,,,,,,,,,,,,,,,,,,0,1,1,1,0,1,1,1,,,,,,,,,,,,,,j,5,B,A,28,0,Incorrect!,2.3683264999999665,991.1130574999843,None,991.1130574999843,None,993.5129848999786,None,,,,,110,001,2023-10-10_11h16.33.605,colored_sorted,2021.2.3,60.00513642290505,
C:\Users\subject\Desktop\SVRT Experiments\SVRT Experiment 3\svrt_images\generated_images\results_problem_5,C:\Users\subject\Desktop\SVRT Experiments\SVRT Experiment 3\svrt_images\generated_images\results_problem_4\sample_1_0015.png,C:\Users\subject\Desktop\SVRT Experiments\SVRT Experiment 3\svrt_images\generated_images\results_problem_5\sample_1_0013.png,,,,,,,,,,,,,,,,,,,,,,0,1,1,1,0,2,2,2,,,,,,,,,,,,,,f,5,A,A,28,1,Correct!,3.3112432999769226,994.5463075999869,None,994.5463075999869,None,997.8795802000095,None,,,,,110,001,2023-10-10_11h16.33.605,colored_sorted,2021.2.3,60.00513642290505,
C:\Users\subject\Desktop\SVRT Experiments\SVRT Experiment 3\svrt_images\generated_images\results_problem_5,C:\Users\subject\Desktop\SVRT Experiments\SVRT Experiment 3\svrt_images\generated_images\results_problem_4\sample_1_0015.png,C:\Users\subject\Desktop\SVRT Experiments\SVRT Experiment 3\svrt_images\generated_images\results_problem_5\sample_1_0006.png,,,,,,,,,,,,,,,,,,,,,,0,1,1,1,0,3,3,3,,,,,,,,,,,,,,f,5,A,A,28,1,Correct!,5.288724799989723,998.9128455999889,None,998.9128455999889,None,1004.229447300022,None,,,,,110,001,2023-10-10_11h16.33.605,colored_sorted,2021.2.3,60.00513642290505,
C:\Users\subject\Desktop\SVRT Experiments\SVRT Experiment 3\svrt_images\generated_images\results_problem_5,C:\Users\subject\Desktop\SVRT Experiments\SVRT Experiment 3\svrt_images\generated_images\results_problem_4\sample_1_0015.png,C:\Users\subject\Desktop\SVRT Experiments\SVRT Experiment 3\svrt_images\generated_images\results_problem_5\sample_0_0013.png,,,,,,,,,,,,,,,,,,,,,,0,1,1,1,0,4,4,4,,,,,,,,,,,,,,j,5,B,B,28,1,Correct!,0.6739102000137791,1005.2794557000161,None,1005.2794557000161,None,1005.9794599000015,None,,,,,110,001,2023-10-10_11h16.33.605,colored_sorted,2021.2.3,60.00513642290505,
C:\Users\subject\Desktop\SVRT Experiments\SVRT Experiment 3\svrt_images\generated_images\results_problem_5,C:\Users\subject\Desktop\SVRT Experiments\SVRT Experiment 3\svrt_images\generated_images\results_problem_4\sample_1_0015.png,C:\Users\subject\Desktop\SVRT Experiments\SVRT Experiment 3\svrt_images\generated_images\results_problem_5\sample_0_0000.png,,,,,,,,,,,,,,,,,,,,,,0,1,1,1,0,5,5,5,,,,,,,,,,,,,,j,5,B,B,28,1,Correct!,0.8914190999930725,1007.0460447000223,None,1007.0460447000223,None,1007.9627254999941,None,,,,,110,001,2023-10-10_11h16.33.605,colored_sorted,2021.2.3,60.00513642290505,
C:\Users\subject\Desktop\SVRT Experiments\SVRT Experiment 3\svrt_images\generated_images\results_problem_5,C:\Users\subject\Desktop\SVRT Experiments\SVRT Experiment 3\svrt_images\generated_images\results_problem_4\sample_1_0015.png,C:\Users\subject\Desktop\SVRT Experiments\SVRT Experiment 3\svrt_images\generated_images\results_problem_5\sample_0_0012.png,,,,,,,,,,,,,,,,,,,,,,0,1,1,1,0,6,6,6,,,,,,,,,,,,,,f,5,A,B,28,0,Incorrect!,1.3241209000116214,1009.0293684999924,None,1009.0293684999924,None,1010.3793583000079,None,,,,,110,001,2023-10-10_11h16.33.605,colored_sorted,2021.2.3,60.00513642290505,
C:\Users\subject\Desktop\SVRT Experiments\SVRT Experiment 3\svrt_images\generated_images\results_problem_5,C:\Users\subject\Desktop\SVRT Experiments\SVRT Experiment 3\svrt_images\generated_images\results_problem_4\sample_1_0015.png,C:\Users\subject\Desktop\SVRT Experiments\SVRT Experiment 3\svrt_images\generated_images\results_problem_5\sample_0_0016.png,,,,,,,,,,,,,,,,,,,,,,0,1,1,1,0,7,7,7,,,,,,,,,,,,,,f,5,A,B,28,0,Incorrect!,3.402933800010942,1011.4626772999763,None,1011.4626772999763,None,1014.8959455000004,None,,,,,110,001,2023-10-10_11h16.33.605,colored_sorted,2021.2.3,60.00513642290505,
C:\Users\subject\Desktop\SVRT Experiments\SVRT Experiment 3\svrt_images\generated_images\results_problem_5,C:\Users\subject\Desktop\SVRT Experiments\SVRT Experiment 3\svrt_images\generated_images\results_problem_4\sample_1_0015.png,C:\Users\subject\Desktop\SVRT Experiments\SVRT Experiment 3\svrt_images\generated_images\results_problem_5\sample_1_0010.png,,,,,,,,,,,,,,,,,,,,,,0,1,1,1,0,8,8,8,,,,,,,,,,,,,,j,5,B,A,28,0,Incorrect!,0.6215834000031464,1015.9959513000213,None,1015.9959513000213,None,1016.6459187000291,None,,,,,110,001,2023-10-10_11h16.33.605,colored_sorted,2021.2.3,60.00513642290505,
C:\Users\subject\Desktop\SVRT Experiments\SVRT Experiment 3\svrt_images\generated_images\results_problem_5,C:\Users\subject\Desktop\SVRT Experiments\SVRT Experiment 3\svrt_images\generated_images\results_problem_4\sample_1_0015.png,C:\Users\subject\Desktop\SVRT Experiments\SVRT Experiment 3\svrt_images\generated_images\results_problem_5\sample_0_0015.png,,,,,,,,,,,,,,,,,,,,,,0,1,1,1,0,9,9,9,,,,,,,,,,,,,,f,5,A,B,28,0,Incorrect!,0.41485840000677854,1017.7625684000086,None,1017.7625684000086,None,1018.1958533999859,None,,,,,110,001,2023-10-10_11h16.33.605,colored_sorted,2021.2.3,60.00513642290505,
C:\Users\subject\Desktop\SVRT Experiments\SVRT Experiment 3\svrt_images\generated_images\results_problem_5,C:\Users\subject\Desktop\SVRT Experiments\SVRT Experiment 3\svrt_images\generated_images\results_problem_4\sample_1_0015.png,C:\Users\subject\Desktop\SVRT Experiments\SVRT Experiment 3\svrt_images\generated_images\results_problem_5\sample_0_0003.png,,,,,,,,,,,,,,,,,,,,,,0,1,1,1,0,10,10,10,,,,,,,,,,,,,,f,5,A,B,28,0,Incorrect!,0.26483219995861873,1019.3125203999807,None,1019.3125203999807,None,1019.595831100014,None,,,,,110,001,2023-10-10_11h16.33.605,colored_sorted,2021.2.3,60.00513642290505,
C:\Users\subject\Desktop\SVRT Experiments\SVRT Experiment 3\svrt_images\generated_images\results_problem_5,C:\Users\subject\Desktop\SVRT Experiments\SVRT Experiment 3\svrt_images\generated_images\results_problem_4\sample_1_0015.png,C:\Users\subject\Desktop\SVRT Experiments\SVRT Experiment 3\svrt_images\generated_images\results_problem_5\sample_1_0007.png,,,,,,,,,,,,,,,,,,,,,,0,1,1,1,0,11,11,11,,,,,,,,,,,,,,j,5,B,A,28,0,Incorrect!,0.8482232000096701,1020.7291714000166,None,1020.7291714000166,None,1021.6125132999732,None,,,,,110,001,2023-10-10_11h16.33.605,colored_sorted,2021.2.3,60.00513642290505,
C:\Users\subject\Desktop\SVRT Experiments\SVRT Experiment 3\svrt_images\generated_images\results_problem_5,C:\Users\subject\Desktop\SVRT Experiments\SVRT Experiment 3\svrt_images\generated_images\results_problem_4\sample_1_0015.png,C:\Users\subject\Desktop\SVRT Experiments\SVRT Experiment 3\svrt_images\generated_images\results_problem_5\sample_1_0016.png,,,,,,,,,,,,,,,,,,,,,,0,1,1,1,0,12,12,12,,,,,,,,,,,,,,j,5,B,A,28,0,Incorrect!,5.974861799972132,1022.762479899975,None,1022.762479899975,None,1028.7790436000214,None,,,,,110,001,2023-10-10_11h16.33.605,colored_sorted,2021.2.3,60.00513642290505,
C:\Users\subject\Desktop\SVRT Experiments\SVRT Experiment 3\svrt_images\generated_images\results_problem_5,C:\Users\subject\Desktop\SVRT Experiments\SVRT Experiment 3\svrt_images\generated_images\results_problem_4\sample_1_0015.png,C:\Users\subject\Desktop\SVRT Experiments\SVRT Experiment 3\svrt_images\generated_images\results_problem_5\sample_0_0002.png,,,,,,,,,,,,,,,,,,,,,,0,1,1,1,0,13,13,13,,,,,,,,,,,,,,f,5,A,B,28,0,Incorrect!,1.3437629000400193,1029.945718300005,None,1029.945718300005,None,1031.328979599988,None,,,,,110,001,2023-10-10_11h16.33.605,colored_sorted,2021.2.3,60.00513642290505,
C:\Users\subject\Desktop\SVRT Experiments\SVRT Experiment 3\svrt_images\generated_images\results_problem_5,C:\Users\subject\Desktop\SVRT Experiments\SVRT Experiment 3\svrt_images\generated_images\results_problem_4\sample_1_0015.png,C:\Users\subject\Desktop\SVRT Experiments\SVRT Experiment 3\svrt_images\generated_images\results_problem_5\sample_1_0014.png,,,,,,,,,,,,,,,,,,,,,,0,1,1,1,0,14,14,14,,,,,,,,,,,,,,f,5,A,A,28,1,Correct!,2.449755900015589,1032.4956352000008,None,1032.4956352000008,None,1034.9789323000005,None,,,,,110,001,2023-10-10_11h16.33.605,colored_sorted,2021.2.3,60.00513642290505,
C:\Users\subject\Desktop\SVRT Experiments\SVRT Experiment 3\svrt_images\generated_images\results_problem_5,C:\Users\subject\Desktop\SVRT Experiments\SVRT Experiment 3\svrt_images\generated_images\results_problem_4\sample_1_0015.png,C:\Users\subject\Desktop\SVRT Experiments\SVRT Experiment 3\svrt_images\generated_images\results_problem_5\sample_1_0009.png,,,,,,,,,,,,,,,,,,,,,,0,1,1,1,0,15,15,15,,,,,,,,,,,,,,f,5,A,A,28,1,Correct!,1.039128000033088,1036.1622611000203,None,1036.1622611000203,None,1037.2455608000164,None,,,,,110,001,2023-10-10_11h16.33.605,colored_sorted,2021.2.3,60.00513642290505,
C:\Users\subject\Desktop\SVRT Experiments\SVRT Experiment 3\svrt_images\generated_images\results_problem_5,C:\Users\subject\Desktop\SVRT Experiments\SVRT Experiment 3\svrt_images\generated_images\results_problem_4\sample_1_0015.png,C:\Users\subject\Desktop\SVRT Experiments\SVRT Experiment 3\svrt_images\generated_images\results_problem_5\sample_0_0010.png,,,,,,,,,,,,,,,,,,,,,,0,1,1,1,0,16,16,16,,,,,,,,,,,,,,f,5,A,B,28,0,Incorrect!,0.7718760999850929,1038.4455645999988,None,1038.4455645999988,None,1039.2622121000313,None,,,,,110,001,2023-10-10_11h16.33.605,colored_sorted,2021.2.3,60.00513642290505,
C:\Users\subject\Desktop\SVRT Experiments\SVRT Experiment 3\svrt_images\generated_images\results_problem_5,C:\Users\subject\Desktop\SVRT Experiments\SVRT Experiment 3\svrt_images\generated_images\results_problem_4\sample_1_0015.png,C:\Users\subject\Desktop\SVRT Experiments\SVRT Experiment 3\svrt_images\generated_images\results_problem_5\sample_1_0011.png,,,,,,,,,,,,,,,,,,,,,,0,1,1,1,0,17,17,17,,,,,,,,,,,,,,j,5,B,A,28,0,Incorrect!,0.442469900008291,1040.4789602999808,None,1040.4789602999808,None,1040.945495699998,None,,,,,110,001,2023-10-10_11h16.33.605,colored_sorted,2021.2.3,60.00513642290505,
C:\Users\subject\Desktop\SVRT Experiments\SVRT Experiment 3\svrt_images\generated_images\results_problem_5,C:\Users\subject\Desktop\SVRT Experiments\SVRT Experiment 3\svrt_images\generated_images\results_problem_4\sample_1_0015.png,C:\Users\subject\Desktop\SVRT Experiments\SVRT Experiment 3\svrt_images\generated_images\results_problem_5\sample_0_0007.png,,,,,,,,,,,,,,,,,,,,,,0,1,1,1,0,18,18,18,,,,,,,,,,,,,,f,5,A,B,28,0,Incorrect!,0.6066543000051752,1042.178806699987,None,1042.178806699987,None,1042.8454474000027,None,,,,,110,001,2023-10-10_11h16.33.605,colored_sorted,2021.2.3,60.00513642290505,
C:\Users\subject\Desktop\SVRT Experiments\SVRT Experiment 3\svrt_images\generated_images\results_problem_5,C:\Users\subject\Desktop\SVRT Experiments\SVRT Experiment 3\svrt_images\generated_images\results_problem_4\sample_1_0015.png,C:\Users\subject\Desktop\SVRT Experiments\SVRT Experiment 3\svrt_images\generated_images\results_problem_5\sample_0_0005.png,,,,,,,,,,,,,,,,,,,,,,0,1,1,1,0,19,19,19,,,,,,,,,,,,,,f,5,A,B,28,0,Incorrect!,0.7779014999978244,1044.0954515999765,None,1044.0954515999765,None,1044.912111499987,None,,,,,110,001,2023-10-10_11h16.33.605,colored_sorted,2021.2.3,60.00513642290505,
C:\Users\subject\Desktop\SVRT Experiments\SVRT Experiment 3\svrt_images\generated_images\results_problem_5,C:\Users\subject\Desktop\SVRT Experiments\SVRT Experiment 3\svrt_images\generated_images\results_problem_4\sample_1_0015.png,C:\Users\subject\Desktop\SVRT Experiments\SVRT Experiment 3\svrt_images\generated_images\results_problem_5\sample_0_0009.png,,,,,,,,,,,,,,,,,,,,,,0,1,1,1,0,20,20,20,,,,,,,,,,,,,,j,5,B,B,28,1,Correct!,18.278556099976413,1046.1788116000243,None,1046.1788116000243,None,1064.4951086000074,None,,,,,110,001,2023-10-10_11h16.33.605,colored_sorted,2021.2.3,60.00513642290505,
C:\Users\subject\Desktop\SVRT Experiments\SVRT Experiment 3\svrt_images\generated_images\results_problem_5,C:\Users\subject\Desktop\SVRT Experiments\SVRT Experiment 3\svrt_images\generated_images\results_problem_4\sample_1_0015.png,C:\Users\subject\Desktop\SVRT Experiments\SVRT Experiment 3\svrt_images\generated_images\results_problem_5\sample_1_0001.png,,,,,,,,,,,,,,,,,,,,,,0,1,1,1,0,21,21,21,,,,,,,,,,,,,,f,5,A,A,28,1,Correct!,4.246911399997771,1065.7784087000182,None,1065.7784087000182,None,1070.0783285999787,None,,,,,110,001,2023-10-10_11h16.33.605,colored_sorted,2021.2.3,60.00513642290505,
C:\Users\subject\Desktop\SVRT Experiments\SVRT Experiment 3\svrt_images\generated_images\results_problem_5,C:\Users\subject\Desktop\SVRT Experiments\SVRT Experiment 3\svrt_images\generated_images\results_problem_4\sample_1_0015.png,C:\Users\subject\Desktop\SVRT Experiments\SVRT Experiment 3\svrt_images\generated_images\results_problem_5\sample_1_0004.png,,,,,,,,,,,,,,,,,,,,,,0,1,1,1,0,22,22,22,,,,,,,,,,,,,,f,5,A,A,28,1,Correct!,2.4878246000153013,1071.3616767000058,None,1071.3616767000058,None,1073.8949142000056,None,,,,,110,001,2023-10-10_11h16.33.605,colored_sorted,2021.2.3,60.00513642290505,
C:\Users\subject\Desktop\SVRT Experiments\SVRT Experiment 3\svrt_images\generated_images\results_problem_5,C:\Users\subject\Desktop\SVRT Experiments\SVRT Experiment 3\svrt_images\generated_images\results_problem_4\sample_1_0015.png,C:\Users\subject\Desktop\SVRT Experiments\SVRT Experiment 3\svrt_images\generated_images\results_problem_5\sample_0_0008.png,,,,,,,,,,,,,,,,,,,,,,0,1,1,1,0,23,23,23,,,,,,,,,,,,,,j,5,B,B,28,1,Correct!,1.422556200006511,1075.194893100008,None,1075.194893100008,None,1076.6781986000133,None,,,,,110,001,2023-10-10_11h16.33.605,colored_sorted,2021.2.3,60.00513642290505,
C:\Users\subject\Desktop\SVRT Experiments\SVRT Experiment 3\svrt_images\generated_images\results_problem_5,C:\Users\subject\Desktop\SVRT Experiments\SVRT Experiment 3\svrt_images\generated_images\results_problem_4\sample_1_0015.png,C:\Users\subject\Desktop\SVRT Experiments\SVRT Experiment 3\svrt_images\generated_images\results_problem_5\sample_1_0003.png,,,,,,,,,,,,,,,,,,,,,,0,1,1,1,0,24,24,24,,,,,,,,,,,,,,f,5,A,A,28,1,Correct!,3.4058999000117183,1078.011513800011,None,1078.011513800011,None,1081.494806099974,None,,,,,110,001,2023-10-10_11h16.33.605,colored_sorted,2021.2.3,60.00513642290505,
C:\Users\subject\Desktop\SVRT Experiments\SVRT Experiment 3\svrt_images\generated_images\results_problem_5,C:\Users\subject\Desktop\SVRT Experiments\SVRT Experiment 3\svrt_images\generated_images\results_problem_4\sample_1_0015.png,C:\Users\subject\Desktop\SVRT Experiments\SVRT Experiment 3\svrt_images\generated_images\results_problem_5\sample_1_0002.png,,,,,,,,,,,,,,,,,,,,,,0,1,1,1,0,25,25,25,,,,,,,,,,,,,,f,5,A,A,28,1,Correct!,1.517345000000205,1082.828104300017,None,1082.828104300017,None,1084.3781017999863,None,,,,,110,001,2023-10-10_11h16.33.605,colored_sorted,2021.2.3,60.00513642290505,
C:\Users\subject\Desktop\SVRT Experiments\SVRT Experiment 3\svrt_images\generated_images\results_problem_5,C:\Users\subject\Desktop\SVRT Experiments\SVRT Experiment 3\svrt_images\generated_images\results_problem_4\sample_1_0015.png,C:\Users\subject\Desktop\SVRT Experiments\SVRT Experiment 3\svrt_images\generated_images\results_problem_5\sample_0_0001.png,,,,,,,,,,,,,,,,,,,,,,0,1,1,1,0,26,26,26,,,,,,,,,,,,,,j,5,B,B,28,1,Correct!,1.425251999986358,1085.7280715000234,None,1085.7280715000234,None,1087.2113684000215,None,,,,,110,001,2023-10-10_11h16.33.605,colored_sorted,2021.2.3,60.00513642290505,
C:\Users\subject\Desktop\SVRT Experiments\SVRT Experiment 3\svrt_images\generated_images\results_problem_5,C:\Users\subject\Desktop\SVRT Experiments\SVRT Experiment 3\svrt_images\generated_images\results_problem_4\sample_1_0015.png,C:\Users\subject\Desktop\SVRT Experiments\SVRT Experiment 3\svrt_images\generated_images\results_problem_5\sample_0_0004.png,,,,,,,,,,,,,,,,,,,,,,0,1,1,1,0,27,27,27,,,,,,,,,,,,,,,,,,,,,,,,,,,,1088.2113404999836,1088.2113404999836,space,1.6939998000161722,110,001,2023-10-10_11h16.33.605,colored_sorted,2021.2.3,60.00513642290505,
C:\Users\subject\Desktop\SVRT Experiments\SVRT Experiment 3\svrt_images\generated_images\results_problem_10,C:\Users\subject\Desktop\SVRT Experiments\SVRT Experiment 3\svrt_images\generated_images\results_problem_4\sample_1_0015.png,C:\Users\subject\Desktop\SVRT Experiments\SVRT Experiment 3\svrt_images\generated_images\results_problem_5\sample_0_0004.png,C:\Users\subject\Desktop\SVRT Experiments\SVRT Experiment 3\svrt_images\generated_images\results_problem_10\sample_1_0012.png,,,,,,,,,,,,,,,,,,,,,0,2,2,2,0,0,0,0,,,,,,,,,,,,,,f,10,A,A,28,1,Correct!,2.00139059999492,1089.9280140000046,None,1089.9280140000046,None,1091.96130179998,None,,,,,110,001,2023-10-10_11h16.33.605,colored_sorted,2021.2.3,60.00513642290505,
C:\Users\subject\Desktop\SVRT Experiments\SVRT Experiment 3\svrt_images\generated_images\results_problem_10,C:\Users\subject\Desktop\SVRT Experiments\SVRT Experiment 3\svrt_images\generated_images\results_problem_4\sample_1_0015.png,C:\Users\subject\Desktop\SVRT Experiments\SVRT Experiment 3\svrt_images\generated_images\results_problem_5\sample_0_0004.png,C:\Users\subject\Desktop\SVRT Experiments\SVRT Experiment 3\svrt_images\generated_images\results_problem_10\sample_1_0007.png,,,,,,,,,,,,,,,,,,,,,0,2,2,2,0,1,1,1,,,,,,,,,,,,,,f,10,A,A,28,1,Correct!,1.015518800006248,1092.9779367999872,None,1092.9779367999872,None,1094.0112574999803,None,,,,,110,001,2023-10-10_11h16.33.605,colored_sorted,2021.2.3,60.00513642290505,
C:\Users\subject\Desktop\SVRT Experiments\SVRT Experiment 3\svrt_images\generated_images\results_problem_10,C:\Users\subject\Desktop\SVRT Experiments\SVRT Experiment 3\svrt_images\generated_images\results_problem_4\sample_1_0015.png,C:\Users\subject\Desktop\SVRT Experiments\SVRT Experiment 3\svrt_images\generated_images\results_problem_5\sample_0_0004.png,C:\Users\subject\Desktop\SVRT Experiments\SVRT Experiment 3\svrt_images\generated_images\results_problem_10\sample_0_0011.png,,,,,,,,,,,,,,,,,,,,,0,2,2,2,0,2,2,2,,,,,,,,,,,,,,f,10,A,B,28,0,Incorrect!,0.6854668000014499,1095.0278533999808,None,1095.0278533999808,None,1095.7445629999856,None,,,,,110,001,2023-10-10_11h16.33.605,colored_sorted,2021.2.3,60.00513642290505,
C:\Users\subject\Desktop\SVRT Experiments\SVRT Experiment 3\svrt_images\generated_images\results_problem_10,C:\Users\subject\Desktop\SVRT Experiments\SVRT Experiment 3\svrt_images\generated_images\results_problem_4\sample_1_0015.png,C:\Users\subject\Desktop\SVRT Experiments\SVRT Experiment 3\svrt_images\generated_images\results_problem_5\sample_0_0004.png,C:\Users\subject\Desktop\SVRT Experiments\SVRT Experiment 3\svrt_images\generated_images\results_problem_10\sample_0_0008.png,,,,,,,,,,,,,,,,,,,,,0,2,2,2,0,3,3,3,,,,,,,,,,,,,,f,10,A,B,28,0,Incorrect!,5.5275230999686755,1096.7778850999894,None,1096.7778850999894,None,1102.3278051000088,None,,,,,110,001,2023-10-10_11h16.33.605,colored_sorted,2021.2.3,60.00513642290505,
C:\Users\subject\Desktop\SVRT Experiments\SVRT Experiment 3\svrt_images\generated_images\results_problem_10,C:\Users\subject\Desktop\SVRT Experiments\SVRT Experiment 3\svrt_images\generated_images\results_problem_4\sample_1_0015.png,C:\Users\subject\Desktop\SVRT Experiments\SVRT Experiment 3\svrt_images\generated_images\results_problem_5\sample_0_0004.png,C:\Users\subject\Desktop\SVRT Experiments\SVRT Experiment 3\svrt_images\generated_images\results_problem_10\sample_0_0003.png,,,,,,,,,,,,,,,,,,,,,0,2,2,2,0,4,4,4,,,,,,,,,,,,,,f,10,A,B,28,0,Incorrect!,1.1517101000063121,1103.3777234000154,None,1103.3777234000154,None,1104.561092399992,None,,,,,110,001,2023-10-10_11h16.33.605,colored_sorted,2021.2.3,60.00513642290505,
C:\Users\subject\Desktop\SVRT Experiments\SVRT Experiment 3\svrt_images\generated_images\results_problem_10,C:\Users\subject\Desktop\SVRT Experiments\SVRT Experiment 3\svrt_images\generated_images\results_problem_4\sample_1_0015.png,C:\Users\subject\Desktop\SVRT Experiments\SVRT Experiment 3\svrt_images\generated_images\results_problem_5\sample_0_0004.png,C:\Users\subject\Desktop\SVRT Experiments\SVRT Experiment 3\svrt_images\generated_images\results_problem_10\sample_0_0004.png,,,,,,,,,,,,,,,,,,,,,0,2,2,2,0,5,5,5,,,,,,,,,,,,,,j,10,B,B,28,1,Correct!,0.6056268999818712,1105.6277494999813,None,1105.6277494999813,None,1106.261049200024,None,,,,,110,001,2023-10-10_11h16.33.605,colored_sorted,2021.2.3,60.00513642290505,
C:\Users\subject\Desktop\SVRT Experiments\SVRT Experiment 3\svrt_images\generated_images\results_problem_10,C:\Users\subject\Desktop\SVRT Experiments\SVRT Experiment 3\svrt_images\generated_images\results_problem_4\sample_1_0015.png,C:\Users\subject\Desktop\SVRT Experiments\SVRT Experiment 3\svrt_images\generated_images\results_problem_5\sample_0_0004.png,C:\Users\subject\Desktop\SVRT Experiments\SVRT Experiment 3\svrt_images\generated_images\results_problem_10\sample_1_0010.png,,,,,,,,,,,,,,,,,,,,,0,2,2,2,0,6,6,6,,,,,,,,,,,,,,j,10,B,A,28,0,Incorrect!,0.6737049000221305,1107.3277061000117,None,1107.3277061000117,None,1108.0276720999973,None,,,,,110,001,2023-10-10_11h16.33.605,colored_sorted,2021.2.3,60.00513642290505,
C:\Users\subject\Desktop\SVRT Experiments\SVRT Experiment 3\svrt_images\generated_images\results_problem_10,C:\Users\subject\Desktop\SVRT Experiments\SVRT Experiment 3\svrt_images\generated_images\results_problem_4\sample_1_0015.png,C:\Users\subject\Desktop\SVRT Experiments\SVRT Experiment 3\svrt_images\generated_images\results_problem_5\sample_0_0004.png,C:\Users\subject\Desktop\SVRT Experiments\SVRT Experiment 3\svrt_images\generated_images\results_problem_10\sample_1_0013.png,,,,,,,,,,,,,,,,,,,,,0,2,2,2,0,7,7,7,,,,,,,,,,,,,,f,10,A,A,28,1,Correct!,10.522405600000639,1109.1109493999975,None,1109.1109493999975,None,1119.660836199997,None,,,,,110,001,2023-10-10_11h16.33.605,colored_sorted,2021.2.3,60.00513642290505,
C:\Users\subject\Desktop\SVRT Experiments\SVRT Experiment 3\svrt_images\generated_images\results_problem_10,C:\Users\subject\Desktop\SVRT Experiments\SVRT Experiment 3\svrt_images\generated_images\results_problem_4\sample_1_0015.png,C:\Users\subject\Desktop\SVRT Experiments\SVRT Experiment 3\svrt_images\generated_images\results_problem_5\sample_0_0004.png,C:\Users\subject\Desktop\SVRT Experiments\SVRT Experiment 3\svrt_images\generated_images\results_problem_10\sample_0_0006.png,,,,,,,,,,,,,,,,,,,,,0,2,2,2,0,8,8,8,,,,,,,,,,,,,,f,10,A,B,28,0,Incorrect!,0.5286335999844596,1120.7608031000127,None,1120.7608031000127,None,1121.310949000006,None,,,,,110,001,2023-10-10_11h16.33.605,colored_sorted,2021.2.3,60.00513642290505,
C:\Users\subject\Desktop\SVRT Experiments\SVRT Experiment 3\svrt_images\generated_images\results_problem_10,C:\Users\subject\Desktop\SVRT Experiments\SVRT Experiment 3\svrt_images\generated_images\results_problem_4\sample_1_0015.png,C:\Users\subject\Desktop\SVRT Experiments\SVRT Experiment 3\svrt_images\generated_images\results_problem_5\sample_0_0004.png,C:\Users\subject\Desktop\SVRT Experiments\SVRT Experiment 3\svrt_images\generated_images\results_problem_10\sample_0_0014.png,,,,,,,,,,,,,,,,,,,,,0,2,2,2,0,9,9,9,,,,,,,,,,,,,,j,10,B,B,28,1,Correct!,0.7586552000138909,1122.4107338999747,None,1122.4107338999747,None,1123.1940932000289,None,,,,,110,001,2023-10-10_11h16.33.605,colored_sorted,2021.2.3,60.00513642290505,
C:\Users\subject\Desktop\SVRT Experiments\SVRT Experiment 3\svrt_images\generated_images\results_problem_10,C:\Users\subject\Desktop\SVRT Experiments\SVRT Experiment 3\svrt_images\generated_images\results_problem_4\sample_1_0015.png,C:\Users\subject\Desktop\SVRT Experiments\SVRT Experiment 3\svrt_images\generated_images\results_problem_5\sample_0_0004.png,C:\Users\subject\Desktop\SVRT Experiments\SVRT Experiment 3\svrt_images\generated_images\results_problem_10\sample_1_0011.png,,,,,,,,,,,,,,,,,,,,,0,2,2,2,0,10,10,10,,,,,,,,,,,,,,f,10,A,A,28,1,Correct!,0.6746835000230931,1124.3107448000228,None,1124.3107448000228,None,1125.0107291000313,None,,,,,110,001,2023-10-10_11h16.33.605,colored_sorted,2021.2.3,60.00513642290505,
C:\Users\subject\Desktop\SVRT Experiments\SVRT Experiment 3\svrt_images\generated_images\results_problem_10,C:\Users\subject\Desktop\SVRT Experiments\SVRT Experiment 3\svrt_images\generated_images\results_problem_4\sample_1_0015.png,C:\Users\subject\Desktop\SVRT Experiments\SVRT Experiment 3\svrt_images\generated_images\results_problem_5\sample_0_0004.png,C:\Users\subject\Desktop\SVRT Experiments\SVRT Experiment 3\svrt_images\generated_images\results_problem_10\sample_1_0006.png,,,,,,,,,,,,,,,,,,,,,0,2,2,2,0,11,11,11,,,,,,,,,,,,,,f,10,A,A,28,1,Correct!,0.6253981000045314,1126.14405599999,None,1126.14405599999,None,1126.794032900012,None,,,,,110,001,2023-10-10_11h16.33.605,colored_sorted,2021.2.3,60.00513642290505,
C:\Users\subject\Desktop\SVRT Experiments\SVRT Experiment 3\svrt_images\generated_images\results_problem_10,C:\Users\subject\Desktop\SVRT Experiments\SVRT Experiment 3\svrt_images\generated_images\results_problem_4\sample_1_0015.png,C:\Users\subject\Desktop\SVRT Experiments\SVRT Experiment 3\svrt_images\generated_images\results_problem_5\sample_0_0004.png,C:\Users\subject\Desktop\SVRT Experiments\SVRT Experiment 3\svrt_images\generated_images\results_problem_10\sample_0_0002.png,,,,,,,,,,,,,,,,,,,,,0,2,2,2,0,12,12,12,,,,,,,,,,,,,,j,10,B,B,28,1,Correct!,0.7054287999635562,1127.944041699986,None,1127.944041699986,None,1128.6940004000207,None,,,,,110,001,2023-10-10_11h16.33.605,colored_sorted,2021.2.3,60.00513642290505,
C:\Users\subject\Desktop\SVRT Experiments\SVRT Experiment 3\svrt_images\generated_images\results_problem_10,C:\Users\subject\Desktop\SVRT Experiments\SVRT Experiment 3\svrt_images\generated_images\results_problem_4\sample_1_0015.png,C:\Users\subject\Desktop\SVRT Experiments\SVRT Experiment 3\svrt_images\generated_images\results_problem_5\sample_0_0004.png,C:\Users\subject\Desktop\SVRT Experiments\SVRT Experiment 3\svrt_images\generated_images\results_problem_10\sample_1_0015.png,,,,,,,,,,,,,,,,,,,,,0,2,2,2,0,13,13,13,,,,,,,,,,,,,,f,10,A,A,28,1,Correct!,0.5327466999879107,1129.8606799999834,None,1129.8606799999834,None,1130.4106233000057,None,,,,,110,001,2023-10-10_11h16.33.605,colored_sorted,2021.2.3,60.00513642290505,
C:\Users\subject\Desktop\SVRT Experiments\SVRT Experiment 3\svrt_images\generated_images\results_problem_10,C:\Users\subject\Desktop\SVRT Experiments\SVRT Experiment 3\svrt_images\generated_images\results_problem_4\sample_1_0015.png,C:\Users\subject\Desktop\SVRT Experiments\SVRT Experiment 3\svrt_images\generated_images\results_problem_5\sample_0_0004.png,C:\Users\subject\Desktop\SVRT Experiments\SVRT Experiment 3\svrt_images\generated_images\results_problem_10\sample_1_0016.png,,,,,,,,,,,,,,,,,,,,,0,2,2,2,0,14,14,14,,,,,,,,,,,,,,f,10,A,A,28,1,Correct!,0.49602959997719154,1131.5772956000292,None,1131.5772956000292,None,1132.0939319999889,None,,,,,110,001,2023-10-10_11h16.33.605,colored_sorted,2021.2.3,60.00513642290505,
C:\Users\subject\Desktop\SVRT Experiments\SVRT Experiment 3\svrt_images\generated_images\results_problem_10,C:\Users\subject\Desktop\SVRT Experiments\SVRT Experiment 3\svrt_images\generated_images\results_problem_4\sample_1_0015.png,C:\Users\subject\Desktop\SVRT Experiments\SVRT Experiment 3\svrt_images\generated_images\results_problem_5\sample_0_0004.png,C:\Users\subject\Desktop\SVRT Experiments\SVRT Experiment 3\svrt_images\generated_images\results_problem_10\sample_1_0004.png,,,,,,,,,,,,,,,,,,,,,0,2,2,2,0,15,15,15,,,,,,,,,,,,,,f,10,A,A,28,1,Correct!,0.42003370000747964,1133.2772604000056,None,1133.2772604000056,None,1133.727277100028,None,,,,,110,001,2023-10-10_11h16.33.605,colored_sorted,2021.2.3,60.00513642290505,
C:\Users\subject\Desktop\SVRT Experiments\SVRT Experiment 3\svrt_images\generated_images\results_problem_10,C:\Users\subject\Desktop\SVRT Experiments\SVRT Experiment 3\svrt_images\generated_images\results_problem_4\sample_1_0015.png,C:\Users\subject\Desktop\SVRT Experiments\SVRT Experiment 3\svrt_images\generated_images\results_problem_5\sample_0_0004.png,C:\Users\subject\Desktop\SVRT Experiments\SVRT Experiment 3\svrt_images\generated_images\results_problem_10\sample_1_0014.png,,,,,,,,,,,,,,,,,,,,,0,2,2,2,0,16,16,16,,,,,,,,,,,,,,,,,,,,,,,,,,,,1134.7272280000034,1134.7272280000034,space,0.5861618000199087,110,001,2023-10-10_11h16.33.605,colored_sorted,2021.2.3,60.00513642290505,
C:\Users\subject\Desktop\SVRT Experiments\SVRT Experiment 3\svrt_images\generated_images\results_problem_2,C:\Users\subject\Desktop\SVRT Experiments\SVRT Experiment 3\svrt_images\generated_images\results_problem_4\sample_1_0015.png,C:\Users\subject\Desktop\SVRT Experiments\SVRT Experiment 3\svrt_images\generated_images\results_problem_5\sample_0_0004.png,C:\Users\subject\Desktop\SVRT Experiments\SVRT Experiment 3\svrt_images\generated_images\results_problem_10\sample_1_0014.png,C:\Users\subject\Desktop\SVRT Experiments\SVRT Experiment 3\svrt_images\generated_images\results_problem_2\sample_1_0003.png,,,,,,,,,,,,,,,,,,,,0,3,3,3,0,0,0,0,,,,,,,,,,,,,,f,2,A,A,28,1,Correct!,0.8254261999973096,1135.3438508000108,None,1135.3438508000108,None,1136.1938534000074,None,,,,,110,001,2023-10-10_11h16.33.605,colored_sorted,2021.2.3,60.00513642290505,
C:\Users\subject\Desktop\SVRT Experiments\SVRT Experiment 3\svrt_images\generated_images\results_problem_2,C:\Users\subject\Desktop\SVRT Experiments\SVRT Experiment 3\svrt_images\generated_images\results_problem_4\sample_1_0015.png,C:\Users\subject\Desktop\SVRT Experiments\SVRT Experiment 3\svrt_images\generated_images\results_problem_5\sample_0_0004.png,C:\Users\subject\Desktop\SVRT Experiments\SVRT Experiment 3\svrt_images\generated_images\results_problem_10\sample_1_0014.png,C:\Users\subject\Desktop\SVRT Experiments\SVRT Experiment 3\svrt_images\generated_images\results_problem_2\sample_1_0016.png,,,,,,,,,,,,,,,,,,,,0,3,3,3,0,1,1,1,,,,,,,,,,,,,,f,2,A,A,28,1,Correct!,1.3749147999915294,1137.210511400015,None,1137.210511400015,None,1138.610518899979,None,,,,,110,001,2023-10-10_11h16.33.605,colored_sorted,2021.2.3,60.00513642290505,
C:\Users\subject\Desktop\SVRT Experiments\SVRT Experiment 3\svrt_images\generated_images\results_problem_2,C:\Users\subject\Desktop\SVRT Experiments\SVRT Experiment 3\svrt_images\generated_images\results_problem_4\sample_1_0015.png,C:\Users\subject\Desktop\SVRT Experiments\SVRT Experiment 3\svrt_images\generated_images\results_problem_5\sample_0_0004.png,C:\Users\subject\Desktop\SVRT Experiments\SVRT Experiment 3\svrt_images\generated_images\results_problem_10\sample_1_0014.png,C:\Users\subject\Desktop\SVRT Experiments\SVRT Experiment 3\svrt_images\generated_images\results_problem_2\sample_1_0008.png,,,,,,,,,,,,,,,,,,,,0,3,3,3,0,2,2,2,,,,,,,,,,,,,,f,2,A,A,28,1,Correct!,0.4215013000066392,1139.6438047999982,None,1139.6438047999982,None,1140.0937799999956,None,,,,,110,001,2023-10-10_11h16.33.605,colored_sorted,2021.2.3,60.00513642290505,
C:\Users\subject\Desktop\SVRT Experiments\SVRT Experiment 3\svrt_images\generated_images\results_problem_2,C:\Users\subject\Desktop\SVRT Experiments\SVRT Experiment 3\svrt_images\generated_images\results_problem_4\sample_1_0015.png,C:\Users\subject\Desktop\SVRT Experiments\SVRT Experiment 3\svrt_images\generated_images\results_problem_5\sample_0_0004.png,C:\Users\subject\Desktop\SVRT Experiments\SVRT Experiment 3\svrt_images\generated_images\results_problem_10\sample_1_0014.png,C:\Users\subject\Desktop\SVRT Experiments\SVRT Experiment 3\svrt_images\generated_images\results_problem_2\sample_0_0015.png,,,,,,,,,,,,,,,,,,,,0,3,3,3,0,3,3,3,,,,,,,,,,,,,,f,2,A,B,28,0,Incorrect!,0.37597319995984435,1141.1294098999933,None,1141.1294098999933,None,1141.5271346999798,None,,,,,110,001,2023-10-10_11h16.33.605,colored_sorted,2021.2.3,60.00513642290505,
C:\Users\subject\Desktop\SVRT Experiments\SVRT Experiment 3\svrt_images\generated_images\results_problem_2,C:\Users\subject\Desktop\SVRT Experiments\SVRT Experiment 3\svrt_images\generated_images\results_problem_4\sample_1_0015.png,C:\Users\subject\Desktop\SVRT Experiments\SVRT Experiment 3\svrt_images\generated_images\results_problem_5\sample_0_0004.png,C:\Users\subject\Desktop\SVRT Experiments\SVRT Experiment 3\svrt_images\generated_images\results_problem_10\sample_1_0014.png,C:\Users\subject\Desktop\SVRT Experiments\SVRT Experiment 3\svrt_images\generated_images\results_problem_2\sample_1_0007.png,,,,,,,,,,,,,,,,,,,,0,3,3,3,0,4,4,4,,,,,,,,,,,,,,j,2,B,A,28,0,Incorrect!,0.5522090999875218,1142.5771037000231,None,1142.5771037000231,None,1143.1604292999837,None,,,,,110,001,2023-10-10_11h16.33.605,colored_sorted,2021.2.3,60.00513642290505,
C:\Users\subject\Desktop\SVRT Experiments\SVRT Experiment 3\svrt_images\generated_images\results_problem_2,C:\Users\subject\Desktop\SVRT Experiments\SVRT Experiment 3\svrt_images\generated_images\results_problem_4\sample_1_0015.png,C:\Users\subject\Desktop\SVRT Experiments\SVRT Experiment 3\svrt_images\generated_images\results_problem_5\sample_0_0004.png,C:\Users\subject\Desktop\SVRT Experiments\SVRT Experiment 3\svrt_images\generated_images\results_problem_10\sample_1_0014.png,C:\Users\subject\Desktop\SVRT Experiments\SVRT Experiment 3\svrt_images\generated_images\results_problem_2\sample_1_0000.png,,,,,,,,,,,,,,,,,,,,0,3,3,3,0,5,5,5,,,,,,,,,,,,,,f,2,A,A,28,1,Correct!,0.2549244000110775,1144.2103974000202,None,1144.2103974000202,None,1144.4937264000182,None,,,,,110,001,2023-10-10_11h16.33.605,colored_sorted,2021.2.3,60.00513642290505,
C:\Users\subject\Desktop\SVRT Experiments\SVRT Experiment 3\svrt_images\generated_images\results_problem_2,C:\Users\subject\Desktop\SVRT Experiments\SVRT Experiment 3\svrt_images\generated_images\results_problem_4\sample_1_0015.png,C:\Users\subject\Desktop\SVRT Experiments\SVRT Experiment 3\svrt_images\generated_images\results_problem_5\sample_0_0004.png,C:\Users\subject\Desktop\SVRT Experiments\SVRT Experiment 3\svrt_images\generated_images\results_problem_10\sample_1_0014.png,C:\Users\subject\Desktop\SVRT Experiments\SVRT Experiment 3\svrt_images\generated_images\results_problem_2\sample_1_0015.png,,,,,,,,,,,,,,,,,,,,0,3,3,3,0,6,6,6,,,,,,,,,,,,,,f,2,A,A,28,1,Correct!,0.6568714000168256,1145.5603897999972,None,1145.5603897999972,None,1146.2437492000172,None,,,,,110,001,2023-10-10_11h16.33.605,colored_sorted,2021.2.3,60.00513642290505,
C:\Users\subject\Desktop\SVRT Experiments\SVRT Experiment 3\svrt_images\generated_images\results_problem_2,C:\Users\subject\Desktop\SVRT Experiments\SVRT Experiment 3\svrt_images\generated_images\results_problem_4\sample_1_0015.png,C:\Users\subject\Desktop\SVRT Experiments\SVRT Experiment 3\svrt_images\generated_images\results_problem_5\sample_0_0004.png,C:\Users\subject\Desktop\SVRT Experiments\SVRT Experiment 3\svrt_images\generated_images\results_problem_10\sample_1_0014.png,C:\Users\subject\Desktop\SVRT Experiments\SVRT Experiment 3\svrt_images\generated_images\results_problem_2\sample_0_0003.png,,,,,,,,,,,,,,,,,,,,0,3,3,3,0,7,7,7,,,,,,,,,,,,,,j,2,B,B,28,1,Correct!,4.826508000027388,1147.3269713000045,None,1147.3269713000045,None,1152.176942799997,None,,,,,110,001,2023-10-10_11h16.33.605,colored_sorted,2021.2.3,60.00513642290505,
C:\Users\subject\Desktop\SVRT Experiments\SVRT Experiment 3\svrt_images\generated_images\results_problem_2,C:\Users\subject\Desktop\SVRT Experiments\SVRT Experiment 3\svrt_images\generated_images\results_problem_4\sample_1_0015.png,C:\Users\subject\Desktop\SVRT Experiments\SVRT Experiment 3\svrt_images\generated_images\results_problem_5\sample_0_0004.png,C:\Users\subject\Desktop\SVRT Experiments\SVRT Experiment 3\svrt_images\generated_images\results_problem_10\sample_1_0014.png,C:\Users\subject\Desktop\SVRT Experiments\SVRT Experiment 3\svrt_images\generated_images\results_problem_2\sample_1_0009.png,,,,,,,,,,,,,,,,,,,,0,3,3,3,0,8,8,8,,,,,,,,,,,,,,j,2,B,A,28,0,Incorrect!,1.1886220999876969,1153.2768671999802,None,1153.2768671999802,None,1154.4935498000123,None,,,,,110,001,2023-10-10_11h16.33.605,colored_sorted,2021.2.3,60.00513642290505,
C:\Users\subject\Desktop\SVRT Experiments\SVRT Experiment 3\svrt_images\generated_images\results_problem_2,C:\Users\subject\Desktop\SVRT Experiments\SVRT Experiment 3\svrt_images\generated_images\results_problem_4\sample_1_0015.png,C:\Users\subject\Desktop\SVRT Experiments\SVRT Experiment 3\svrt_images\generated_images\results_problem_5\sample_0_0004.png,C:\Users\subject\Desktop\SVRT Experiments\SVRT Experiment 3\svrt_images\generated_images\results_problem_10\sample_1_0014.png,C:\Users\subject\Desktop\SVRT Experiments\SVRT Experiment 3\svrt_images\generated_images\results_problem_2\sample_0_0009.png,,,,,,,,,,,,,,,,,,,,0,3,3,3,0,9,9,9,,,,,,,,,,,,,,j,2,B,B,28,1,Correct!,0.8071246999897994,1155.610210200015,None,1155.610210200015,None,1156.443526500021,None,,,,,110,001,2023-10-10_11h16.33.605,colored_sorted,2021.2.3,60.00513642290505,
C:\Users\subject\Desktop\SVRT Experiments\SVRT Experiment 3\svrt_images\generated_images\results_problem_2,C:\Users\subject\Desktop\SVRT Experiments\SVRT Experiment 3\svrt_images\generated_images\results_problem_4\sample_1_0015.png,C:\Users\subject\Desktop\SVRT Experiments\SVRT Experiment 3\svrt_images\generated_images\results_problem_5\sample_0_0004.png,C:\Users\subject\Desktop\SVRT Experiments\SVRT Experiment 3\svrt_images\generated_images\results_problem_10\sample_1_0014.png,C:\Users\subject\Desktop\SVRT Experiments\SVRT Experiment 3\svrt_images\generated_images\results_problem_2\sample_1_0010.png,,,,,,,,,,,,,,,,,,,,0,3,3,3,0,10,10,10,,,,,,,,,,,,,,f,2,A,A,28,1,Correct!,0.6010955999954604,1157.5601749999914,None,1157.5601749999914,None,1158.193541000015,None,,,,,110,001,2023-10-10_11h16.33.605,colored_sorted,2021.2.3,60.00513642290505,
C:\Users\subject\Desktop\SVRT Experiments\SVRT Experiment 3\svrt_images\generated_images\results_problem_2,C:\Users\subject\Desktop\SVRT Experiments\SVRT Experiment 3\svrt_images\generated_images\results_problem_4\sample_1_0015.png,C:\Users\subject\Desktop\SVRT Experiments\SVRT Experiment 3\svrt_images\generated_images\results_problem_5\sample_0_0004.png,C:\Users\subject\Desktop\SVRT Experiments\SVRT Experiment 3\svrt_images\generated_images\results_problem_10\sample_1_0014.png,C:\Users\subject\Desktop\SVRT Experiments\SVRT Experiment 3\svrt_images\generated_images\results_problem_2\sample_0_0007.png,,,,,,,,,,,,,,,,,,,,0,3,3,3,0,11,11,11,,,,,,,,,,,,,,j,2,B,B,28,1,Correct!,0.6345296000363305,1159.326812000014,None,1159.326812000014,None,1160.0101408999762,None,,,,,110,001,2023-10-10_11h16.33.605,colored_sorted,2021.2.3,60.00513642290505,
C:\Users\subject\Desktop\SVRT Experiments\SVRT Experiment 3\svrt_images\generated_images\results_problem_2,C:\Users\subject\Desktop\SVRT Experiments\SVRT Experiment 3\svrt_images\generated_images\results_problem_4\sample_1_0015.png,C:\Users\subject\Desktop\SVRT Experiments\SVRT Experiment 3\svrt_images\generated_images\results_problem_5\sample_0_0004.png,C:\Users\subject\Desktop\SVRT Experiments\SVRT Experiment 3\svrt_images\generated_images\results_problem_10\sample_1_0014.png,C:\Users\subject\Desktop\SVRT Experiments\SVRT Experiment 3\svrt_images\generated_images\results_problem_2\sample_0_0004.png,,,,,,,,,,,,,,,,,,,,0,3,3,3,0,12,12,12,,,,,,,,,,,,,,j,2,B,B,28,1,Correct!,0.5852466999785975,1161.1601474999916,None,1161.1601474999916,None,1161.7767881000182,None,,,,,110,001,2023-10-10_11h16.33.605,colored_sorted,2021.2.3,60.00513642290505,
C:\Users\subject\Desktop\SVRT Experiments\SVRT Experiment 3\svrt_images\generated_images\results_problem_2,C:\Users\subject\Desktop\SVRT Experiments\SVRT Experiment 3\svrt_images\generated_images\results_problem_4\sample_1_0015.png,C:\Users\subject\Desktop\SVRT Experiments\SVRT Experiment 3\svrt_images\generated_images\results_problem_5\sample_0_0004.png,C:\Users\subject\Desktop\SVRT Experiments\SVRT Experiment 3\svrt_images\generated_images\results_problem_10\sample_1_0014.png,C:\Users\subject\Desktop\SVRT Experiments\SVRT Experiment 3\svrt_images\generated_images\results_problem_2\sample_1_0004.png,,,,,,,,,,,,,,,,,,,,0,3,3,3,0,13,13,13,,,,,,,,,,,,,,j,2,B,A,28,0,Incorrect!,0.5218711999477819,1162.9434317999985,None,1162.9434317999985,None,1163.4934043000103,None,,,,,110,001,2023-10-10_11h16.33.605,colored_sorted,2021.2.3,60.00513642290505,
C:\Users\subject\Desktop\SVRT Experiments\SVRT Experiment 3\svrt_images\generated_images\results_problem_2,C:\Users\subject\Desktop\SVRT Experiments\SVRT Experiment 3\svrt_images\generated_images\results_problem_4\sample_1_0015.png,C:\Users\subject\Desktop\SVRT Experiments\SVRT Experiment 3\svrt_images\generated_images\results_problem_5\sample_0_0004.png,C:\Users\subject\Desktop\SVRT Experiments\SVRT Experiment 3\svrt_images\generated_images\results_problem_10\sample_1_0014.png,C:\Users\subject\Desktop\SVRT Experiments\SVRT Experiment 3\svrt_images\generated_images\results_problem_2\sample_1_0005.png,,,,,,,,,,,,,,,,,,,,0,3,3,3,0,14,14,14,,,,,,,,,,,,,,f,2,A,A,28,1,Correct!,1.5885115000419319,1164.6767695000162,None,1164.6767695000162,None,1166.293374700006,None,,,,,110,001,2023-10-10_11h16.33.605,colored_sorted,2021.2.3,60.00513642290505,
C:\Users\subject\Desktop\SVRT Experiments\SVRT Experiment 3\svrt_images\generated_images\results_problem_2,C:\Users\subject\Desktop\SVRT Experiments\SVRT Experiment 3\svrt_images\generated_images\results_problem_4\sample_1_0015.png,C:\Users\subject\Desktop\SVRT Experiments\SVRT Experiment 3\svrt_images\generated_images\results_problem_5\sample_0_0004.png,C:\Users\subject\Desktop\SVRT Experiments\SVRT Experiment 3\svrt_images\generated_images\results_problem_10\sample_1_0014.png,C:\Users\subject\Desktop\SVRT Experiments\SVRT Experiment 3\svrt_images\generated_images\results_problem_2\sample_0_0002.png,,,,,,,,,,,,,,,,,,,,0,3,3,3,0,15,15,15,,,,,,,,,,,,,,j,2,B,B,28,1,Correct!,0.5479098000214435,1167.4933621999808,None,1167.4933621999808,None,1168.0766769999755,None,,,,,110,001,2023-10-10_11h16.33.605,colored_sorted,2021.2.3,60.00513642290505,
C:\Users\subject\Desktop\SVRT Experiments\SVRT Experiment 3\svrt_images\generated_images\results_problem_2,C:\Users\subject\Desktop\SVRT Experiments\SVRT Experiment 3\svrt_images\generated_images\results_problem_4\sample_1_0015.png,C:\Users\subject\Desktop\SVRT Experiments\SVRT Experiment 3\svrt_images\generated_images\results_problem_5\sample_0_0004.png,C:\Users\subject\Desktop\SVRT Experiments\SVRT Experiment 3\svrt_images\generated_images\results_problem_10\sample_1_0014.png,C:\Users\subject\Desktop\SVRT Experiments\SVRT Experiment 3\svrt_images\generated_images\results_problem_2\sample_0_0014.png,,,,,,,,,,,,,,,,,,,,0,3,3,3,0,16,16,16,,,,,,,,,,,,,,j,2,B,B,28,1,Correct!,0.6366450999630615,1169.2766628999962,None,1169.2766628999962,None,1169.960030200018,None,,,,,110,001,2023-10-10_11h16.33.605,colored_sorted,2021.2.3,60.00513642290505,
C:\Users\subject\Desktop\SVRT Experiments\SVRT Experiment 3\svrt_images\generated_images\results_problem_2,C:\Users\subject\Desktop\SVRT Experiments\SVRT Experiment 3\svrt_images\generated_images\results_problem_4\sample_1_0015.png,C:\Users\subject\Desktop\SVRT Experiments\SVRT Experiment 3\svrt_images\generated_images\results_problem_5\sample_0_0004.png,C:\Users\subject\Desktop\SVRT Experiments\SVRT Experiment 3\svrt_images\generated_images\results_problem_10\sample_1_0014.png,C:\Users\subject\Desktop\SVRT Experiments\SVRT Experiment 3\svrt_images\generated_images\results_problem_2\sample_1_0014.png,,,,,,,,,,,,,,,,,,,,0,3,3,3,0,17,17,17,,,,,,,,,,,,,,f,2,A,A,28,1,Correct!,0.9607906999881379,1171.1766545000137,None,1171.1766545000137,None,1172.193264200003,None,,,,,110,001,2023-10-10_11h16.33.605,colored_sorted,2021.2.3,60.00513642290505,
C:\Users\subject\Desktop\SVRT Experiments\SVRT Experiment 3\svrt_images\generated_images\results_problem_2,C:\Users\subject\Desktop\SVRT Experiments\SVRT Experiment 3\svrt_images\generated_images\results_problem_4\sample_1_0015.png,C:\Users\subject\Desktop\SVRT Experiments\SVRT Experiment 3\svrt_images\generated_images\results_problem_5\sample_0_0004.png,C:\Users\subject\Desktop\SVRT Experiments\SVRT Experiment 3\svrt_images\generated_images\results_problem_10\sample_1_0014.png,C:\Users\subject\Desktop\SVRT Experiments\SVRT Experiment 3\svrt_images\generated_images\results_problem_2\sample_0_0008.png,,,,,,,,,,,,,,,,,,,,0,3,3,3,0,18,18,18,,,,,,,,,,,,,,j,2,B,B,28,1,Correct!,0.5589014000142924,1173.4265697000083,None,1173.4265697000083,None,1174.043230100011,None,,,,,110,001,2023-10-10_11h16.33.605,colored_sorted,2021.2.3,60.00513642290505,
C:\Users\subject\Desktop\SVRT Experiments\SVRT Experiment 3\svrt_images\generated_images\results_problem_2,C:\Users\subject\Desktop\SVRT Experiments\SVRT Experiment 3\svrt_images\generated_images\results_problem_4\sample_1_0015.png,C:\Users\subject\Desktop\SVRT Experiments\SVRT Experiment 3\svrt_images\generated_images\results_problem_5\sample_0_0004.png,C:\Users\subject\Desktop\SVRT Experiments\SVRT Experiment 3\svrt_images\generated_images\results_problem_10\sample_1_0014.png,C:\Users\subject\Desktop\SVRT Experiments\SVRT Experiment 3\svrt_images\generated_images\results_problem_2\sample_0_0016.png,,,,,,,,,,,,,,,,,,,,0,3,3,3,0,19,19,19,,,,,,,,,,,,,,j,2,B,B,28,1,Correct!,1.5322042999905534,1175.293238000013,None,1175.293238000013,None,1176.8599554999964,None,,,,,110,001,2023-10-10_11h16.33.605,colored_sorted,2021.2.3,60.00513642290505,
C:\Users\subject\Desktop\SVRT Experiments\SVRT Experiment 3\svrt_images\generated_images\results_problem_2,C:\Users\subject\Desktop\SVRT Experiments\SVRT Experiment 3\svrt_images\generated_images\results_problem_4\sample_1_0015.png,C:\Users\subject\Desktop\SVRT Experiments\SVRT Experiment 3\svrt_images\generated_images\results_problem_5\sample_0_0004.png,C:\Users\subject\Desktop\SVRT Experiments\SVRT Experiment 3\svrt_images\generated_images\results_problem_10\sample_1_0014.png,C:\Users\subject\Desktop\SVRT Experiments\SVRT Experiment 3\svrt_images\generated_images\results_problem_2\sample_0_0011.png,,,,,,,,,,,,,,,,,,,,0,3,3,3,0,20,20,20,,,,,,,,,,,,,,j,2,B,B,28,1,Correct!,0.5868768999935128,1178.1265157000162,None,1178.1265157000162,None,1178.7432709999848,None,,,,,110,001,2023-10-10_11h16.33.605,colored_sorted,2021.2.3,60.00513642290505,
C:\Users\subject\Desktop\SVRT Experiments\SVRT Experiment 3\svrt_images\generated_images\results_problem_2,C:\Users\subject\Desktop\SVRT Experiments\SVRT Experiment 3\svrt_images\generated_images\results_problem_4\sample_1_0015.png,C:\Users\subject\Desktop\SVRT Experiments\SVRT Experiment 3\svrt_images\generated_images\results_problem_5\sample_0_0004.png,C:\Users\subject\Desktop\SVRT Experiments\SVRT Experiment 3\svrt_images\generated_images\results_problem_10\sample_1_0014.png,C:\Users\subject\Desktop\SVRT Experiments\SVRT Experiment 3\svrt_images\generated_images\results_problem_2\sample_0_0012.png,,,,,,,,,,,,,,,,,,,,0,3,3,3,0,21,21,21,,,,,,,,,,,,,,,,,,,,,,,,,,,,1179.743129600014,1179.743129600014,space,1.0502233000006527,110,001,2023-10-10_11h16.33.605,colored_sorted,2021.2.3,60.00513642290505,
C:\Users\subject\Desktop\SVRT Experiments\SVRT Experiment 3\svrt_images\generated_images\results_problem_20,C:\Users\subject\Desktop\SVRT Experiments\SVRT Experiment 3\svrt_images\generated_images\results_problem_4\sample_1_0015.png,C:\Users\subject\Desktop\SVRT Experiments\SVRT Experiment 3\svrt_images\generated_images\results_problem_5\sample_0_0004.png,C:\Users\subject\Desktop\SVRT Experiments\SVRT Experiment 3\svrt_images\generated_images\results_problem_10\sample_1_0014.png,C:\Users\subject\Desktop\SVRT Experiments\SVRT Experiment 3\svrt_images\generated_images\results_problem_2\sample_0_0012.png,C:\Users\subject\Desktop\SVRT Experiments\SVRT Experiment 3\svrt_images\generated_images\results_problem_20\sample_1_0005.png,,,,,,,,,,,,,,,,,,,0,4,4,4,0,0,0,0,,,,,,,,,,,,,,f,20,A,A,28,1,Correct!,1.206849800015334,1180.8264437000034,None,1180.8264437000034,None,1182.0598020000034,None,,,,,110,001,2023-10-10_11h16.33.605,colored_sorted,2021.2.3,60.00513642290505,
C:\Users\subject\Desktop\SVRT Experiments\SVRT Experiment 3\svrt_images\generated_images\results_problem_20,C:\Users\subject\Desktop\SVRT Experiments\SVRT Experiment 3\svrt_images\generated_images\results_problem_4\sample_1_0015.png,C:\Users\subject\Desktop\SVRT Experiments\SVRT Experiment 3\svrt_images\generated_images\results_problem_5\sample_0_0004.png,C:\Users\subject\Desktop\SVRT Experiments\SVRT Experiment 3\svrt_images\generated_images\results_problem_10\sample_1_0014.png,C:\Users\subject\Desktop\SVRT Experiments\SVRT Experiment 3\svrt_images\generated_images\results_problem_2\sample_0_0012.png,C:\Users\subject\Desktop\SVRT Experiments\SVRT Experiment 3\svrt_images\generated_images\results_problem_20\sample_1_0014.png,,,,,,,,,,,,,,,,,,,0,4,4,4,0,1,1,1,,,,,,,,,,,,,,j,20,B,A,28,0,Incorrect!,2.2449500000220723,1183.0764163000276,None,1183.0764163000276,None,1185.3430666999775,None,,,,,110,001,2023-10-10_11h16.33.605,colored_sorted,2021.2.3,60.00513642290505,
C:\Users\subject\Desktop\SVRT Experiments\SVRT Experiment 3\svrt_images\generated_images\results_problem_20,C:\Users\subject\Desktop\SVRT Experiments\SVRT Experiment 3\svrt_images\generated_images\results_problem_4\sample_1_0015.png,C:\Users\subject\Desktop\SVRT Experiments\SVRT Experiment 3\svrt_images\generated_images\results_problem_5\sample_0_0004.png,C:\Users\subject\Desktop\SVRT Experiments\SVRT Experiment 3\svrt_images\generated_images\results_problem_10\sample_1_0014.png,C:\Users\subject\Desktop\SVRT Experiments\SVRT Experiment 3\svrt_images\generated_images\results_problem_2\sample_0_0012.png,C:\Users\subject\Desktop\SVRT Experiments\SVRT Experiment 3\svrt_images\generated_images\results_problem_20\sample_1_0011.png,,,,,,,,,,,,,,,,,,,0,4,4,4,0,2,2,2,,,,,,,,,,,,,,j,20,B,A,28,0,Incorrect!,1.86503270000685,1186.3763744999887,None,1186.3763744999887,None,1188.2596752999816,None,,,,,110,001,2023-10-10_11h16.33.605,colored_sorted,2021.2.3,60.00513642290505,
C:\Users\subject\Desktop\SVRT Experiments\SVRT Experiment 3\svrt_images\generated_images\results_problem_20,C:\Users\subject\Desktop\SVRT Experiments\SVRT Experiment 3\svrt_images\generated_images\results_problem_4\sample_1_0015.png,C:\Users\subject\Desktop\SVRT Experiments\SVRT Experiment 3\svrt_images\generated_images\results_problem_5\sample_0_0004.png,C:\Users\subject\Desktop\SVRT Experiments\SVRT Experiment 3\svrt_images\generated_images\results_problem_10\sample_1_0014.png,C:\Users\subject\Desktop\SVRT Experiments\SVRT Experiment 3\svrt_images\generated_images\results_problem_2\sample_0_0012.png,C:\Users\subject\Desktop\SVRT Experiments\SVRT Experiment 3\svrt_images\generated_images\results_problem_20\sample_0_0013.png,,,,,,,,,,,,,,,,,,,0,4,4,4,0,3,3,3,,,,,,,,,,,,,,j,20,B,B,28,1,Correct!,1.3084098999970593,1189.2930144999991,None,1189.2930144999991,None,1190.6263058999903,None,,,,,110,001,2023-10-10_11h16.33.605,colored_sorted,2021.2.3,60.00513642290505,
C:\Users\subject\Desktop\SVRT Experiments\SVRT Experiment 3\svrt_images\generated_images\results_problem_20,C:\Users\subject\Desktop\SVRT Experiments\SVRT Experiment 3\svrt_images\generated_images\results_problem_4\sample_1_0015.png,C:\Users\subject\Desktop\SVRT Experiments\SVRT Experiment 3\svrt_images\generated_images\results_problem_5\sample_0_0004.png,C:\Users\subject\Desktop\SVRT Experiments\SVRT Experiment 3\svrt_images\generated_images\results_problem_10\sample_1_0014.png,C:\Users\subject\Desktop\SVRT Experiments\SVRT Experiment 3\svrt_images\generated_images\results_problem_2\sample_0_0012.png,C:\Users\subject\Desktop\SVRT Experiments\SVRT Experiment 3\svrt_images\generated_images\results_problem_20\sample_1_0009.png,,,,,,,,,,,,,,,,,,,0,4,4,4,0,4,4,4,,,,,,,,,,,,,,f,20,A,A,28,1,Correct!,6.397020099975634,1191.6763168000034,None,1191.6763168000034,None,1198.0928071999806,None,,,,,110,001,2023-10-10_11h16.33.605,colored_sorted,2021.2.3,60.00513642290505,
C:\Users\subject\Desktop\SVRT Experiments\SVRT Experiment 3\svrt_images\generated_images\results_problem_20,C:\Users\subject\Desktop\SVRT Experiments\SVRT Experiment 3\svrt_images\generated_images\results_problem_4\sample_1_0015.png,C:\Users\subject\Desktop\SVRT Experiments\SVRT Experiment 3\svrt_images\generated_images\results_problem_5\sample_0_0004.png,C:\Users\subject\Desktop\SVRT Experiments\SVRT Experiment 3\svrt_images\generated_images\results_problem_10\sample_1_0014.png,C:\Users\subject\Desktop\SVRT Experiments\SVRT Experiment 3\svrt_images\generated_images\results_problem_2\sample_0_0012.png,C:\Users\subject\Desktop\SVRT Experiments\SVRT Experiment 3\svrt_images\generated_images\results_problem_20\sample_1_0003.png,,,,,,,,,,,,,,,,,,,0,4,4,4,0,5,5,5,,,,,,,,,,,,,,j,20,B,A,28,0,Incorrect!,4.840682899986859,1199.1605739999795,None,1199.1605739999795,None,1204.0261139000067,None,,,,,110,001,2023-10-10_11h16.33.605,colored_sorted,2021.2.3,60.00513642290505,
C:\Users\subject\Desktop\SVRT Experiments\SVRT Experiment 3\svrt_images\generated_images\results_problem_20,C:\Users\subject\Desktop\SVRT Experiments\SVRT Experiment 3\svrt_images\generated_images\results_problem_4\sample_1_0015.png,C:\Users\subject\Desktop\SVRT Experiments\SVRT Experiment 3\svrt_images\generated_images\results_problem_5\sample_0_0004.png,C:\Users\subject\Desktop\SVRT Experiments\SVRT Experiment 3\svrt_images\generated_images\results_problem_10\sample_1_0014.png,C:\Users\subject\Desktop\SVRT Experiments\SVRT Experiment 3\svrt_images\generated_images\results_problem_2\sample_0_0012.png,C:\Users\subject\Desktop\SVRT Experiments\SVRT Experiment 3\svrt_images\generated_images\results_problem_20\sample_0_0015.png,,,,,,,,,,,,,,,,,,,0,4,4,4,0,6,6,6,,,,,,,,,,,,,,f,20,A,B,28,0,Incorrect!,1.084517799958121,1205.0927380999783,None,1205.0927380999783,None,1206.2093613999896,None,,,,,110,001,2023-10-10_11h16.33.605,colored_sorted,2021.2.3,60.00513642290505,
C:\Users\subject\Desktop\SVRT Experiments\SVRT Experiment 3\svrt_images\generated_images\results_problem_20,C:\Users\subject\Desktop\SVRT Experiments\SVRT Experiment 3\svrt_images\generated_images\results_problem_4\sample_1_0015.png,C:\Users\subject\Desktop\SVRT Experiments\SVRT Experiment 3\svrt_images\generated_images\results_problem_5\sample_0_0004.png,C:\Users\subject\Desktop\SVRT Experiments\SVRT Experiment 3\svrt_images\generated_images\results_problem_10\sample_1_0014.png,C:\Users\subject\Desktop\SVRT Experiments\SVRT Experiment 3\svrt_images\generated_images\results_problem_2\sample_0_0012.png,C:\Users\subject\Desktop\SVRT Experiments\SVRT Experiment 3\svrt_images\generated_images\results_problem_20\sample_0_0007.png,,,,,,,,,,,,,,,,,,,0,4,4,4,0,7,7,7,,,,,,,,,,,,,,j,20,B,B,28,1,Correct!,0.9166596000432037,1207.2926922999904,None,1207.2926922999904,None,1208.2259949999861,None,,,,,110,001,2023-10-10_11h16.33.605,colored_sorted,2021.2.3,60.00513642290505,
C:\Users\subject\Desktop\SVRT Experiments\SVRT Experiment 3\svrt_images\generated_images\results_problem_20,C:\Users\subject\Desktop\SVRT Experiments\SVRT Experiment 3\svrt_images\generated_images\results_problem_4\sample_1_0015.png,C:\Users\subject\Desktop\SVRT Experiments\SVRT Experiment 3\svrt_images\generated_images\results_problem_5\sample_0_0004.png,C:\Users\subject\Desktop\SVRT Experiments\SVRT Experiment 3\svrt_images\generated_images\results_problem_10\sample_1_0014.png,C:\Users\subject\Desktop\SVRT Experiments\SVRT Experiment 3\svrt_images\generated_images\results_problem_2\sample_0_0012.png,C:\Users\subject\Desktop\SVRT Experiments\SVRT Experiment 3\svrt_images\generated_images\results_problem_20\sample_1_0010.png,,,,,,,,,,,,,,,,,,,0,4,4,4,0,8,8,8,,,,,,,,,,,,,,f,20,A,A,28,1,Correct!,0.6912676999927498,1209.3260102000204,None,1209.3260102000204,None,1210.0426608999842,None,,,,,110,001,2023-10-10_11h16.33.605,colored_sorted,2021.2.3,60.00513642290505,
C:\Users\subject\Desktop\SVRT Experiments\SVRT Experiment 3\svrt_images\generated_images\results_problem_20,C:\Users\subject\Desktop\SVRT Experiments\SVRT Experiment 3\svrt_images\generated_images\results_problem_4\sample_1_0015.png,C:\Users\subject\Desktop\SVRT Experiments\SVRT Experiment 3\svrt_images\generated_images\results_problem_5\sample_0_0004.png,C:\Users\subject\Desktop\SVRT Experiments\SVRT Experiment 3\svrt_images\generated_images\results_problem_10\sample_1_0014.png,C:\Users\subject\Desktop\SVRT Experiments\SVRT Experiment 3\svrt_images\generated_images\results_problem_2\sample_0_0012.png,C:\Users\subject\Desktop\SVRT Experiments\SVRT Experiment 3\svrt_images\generated_images\results_problem_20\sample_0_0001.png,,,,,,,,,,,,,,,,,,,0,4,4,4,0,9,9,9,,,,,,,,,,,,,,f,20,A,B,28,0,Incorrect!,0.8186748000443913,1211.1426521000103,None,1211.1426521000103,None,1211.9925982999848,None,,,,,110,001,2023-10-10_11h16.33.605,colored_sorted,2021.2.3,60.00513642290505,
C:\Users\subject\Desktop\SVRT Experiments\SVRT Experiment 3\svrt_images\generated_images\results_problem_20,C:\Users\subject\Desktop\SVRT Experiments\SVRT Experiment 3\svrt_images\generated_images\results_problem_4\sample_1_0015.png,C:\Users\subject\Desktop\SVRT Experiments\SVRT Experiment 3\svrt_images\generated_images\results_problem_5\sample_0_0004.png,C:\Users\subject\Desktop\SVRT Experiments\SVRT Experiment 3\svrt_images\generated_images\results_problem_10\sample_1_0014.png,C:\Users\subject\Desktop\SVRT Experiments\SVRT Experiment 3\svrt_images\generated_images\results_problem_2\sample_0_0012.png,C:\Users\subject\Desktop\SVRT Experiments\SVRT Experiment 3\svrt_images\generated_images\results_problem_20\sample_1_0001.png,,,,,,,,,,,,,,,,,,,0,4,4,4,0,10,10,10,,,,,,,,,,,,,,j,20,B,A,28,0,Incorrect!,0.908036400040146,1213.1092849000124,None,1213.1092849000124,None,1214.0425779999932,None,,,,,110,001,2023-10-10_11h16.33.605,colored_sorted,2021.2.3,60.00513642290505,
C:\Users\subject\Desktop\SVRT Experiments\SVRT Experiment 3\svrt_images\generated_images\results_problem_20,C:\Users\subject\Desktop\SVRT Experiments\SVRT Experiment 3\svrt_images\generated_images\results_problem_4\sample_1_0015.png,C:\Users\subject\Desktop\SVRT Experiments\SVRT Experiment 3\svrt_images\generated_images\results_problem_5\sample_0_0004.png,C:\Users\subject\Desktop\SVRT Experiments\SVRT Experiment 3\svrt_images\generated_images\results_problem_10\sample_1_0014.png,C:\Users\subject\Desktop\SVRT Experiments\SVRT Experiment 3\svrt_images\generated_images\results_problem_2\sample_0_0012.png,C:\Users\subject\Desktop\SVRT Experiments\SVRT Experiment 3\svrt_images\generated_images\results_problem_20\sample_1_0015.png,,,,,,,,,,,,,,,,,,,0,4,4,4,0,11,11,11,,,,,,,,,,,,,,f,20,A,A,28,1,Correct!,0.4735736000002362,1215.175850300002,None,1215.175850300002,None,1215.6925568000297,None,,,,,110,001,2023-10-10_11h16.33.605,colored_sorted,2021.2.3,60.00513642290505,
C:\Users\subject\Desktop\SVRT Experiments\SVRT Experiment 3\svrt_images\generated_images\results_problem_20,C:\Users\subject\Desktop\SVRT Experiments\SVRT Experiment 3\svrt_images\generated_images\results_problem_4\sample_1_0015.png,C:\Users\subject\Desktop\SVRT Experiments\SVRT Experiment 3\svrt_images\generated_images\results_problem_5\sample_0_0004.png,C:\Users\subject\Desktop\SVRT Experiments\SVRT Experiment 3\svrt_images\generated_images\results_problem_10\sample_1_0014.png,C:\Users\subject\Desktop\SVRT Experiments\SVRT Experiment 3\svrt_images\generated_images\results_problem_2\sample_0_0012.png,C:\Users\subject\Desktop\SVRT Experiments\SVRT Experiment 3\svrt_images\generated_images\results_problem_20\sample_1_0012.png,,,,,,,,,,,,,,,,,,,0,4,4,4,0,12,12,12,,,,,,,,,,,,,,f,20,A,A,28,1,Correct!,0.6069478999706917,1216.8425179999904,None,1216.8425179999904,None,1217.49253649998,None,,,,,110,001,2023-10-10_11h16.33.605,colored_sorted,2021.2.3,60.00513642290505,
C:\Users\subject\Desktop\SVRT Experiments\SVRT Experiment 3\svrt_images\generated_images\results_problem_20,C:\Users\subject\Desktop\SVRT Experiments\SVRT Experiment 3\svrt_images\generated_images\results_problem_4\sample_1_0015.png,C:\Users\subject\Desktop\SVRT Experiments\SVRT Experiment 3\svrt_images\generated_images\results_problem_5\sample_0_0004.png,C:\Users\subject\Desktop\SVRT Experiments\SVRT Experiment 3\svrt_images\generated_images\results_problem_10\sample_1_0014.png,C:\Users\subject\Desktop\SVRT Experiments\SVRT Experiment 3\svrt_images\generated_images\results_problem_2\sample_0_0012.png,C:\Users\subject\Desktop\SVRT Experiments\SVRT Experiment 3\svrt_images\generated_images\results_problem_20\sample_1_0002.png,,,,,,,,,,,,,,,,,,,0,4,4,4,0,13,13,13,,,,,,,,,,,,,,f,20,A,A,28,1,Correct!,0.4621348999789916,1218.6591728000203,None,1218.6591728000203,None,1219.1425028999802,None,,,,,110,001,2023-10-10_11h16.33.605,colored_sorted,2021.2.3,60.00513642290505,
C:\Users\subject\Desktop\SVRT Experiments\SVRT Experiment 3\svrt_images\generated_images\results_problem_20,C:\Users\subject\Desktop\SVRT Experiments\SVRT Experiment 3\svrt_images\generated_images\results_problem_4\sample_1_0015.png,C:\Users\subject\Desktop\SVRT Experiments\SVRT Experiment 3\svrt_images\generated_images\results_problem_5\sample_0_0004.png,C:\Users\subject\Desktop\SVRT Experiments\SVRT Experiment 3\svrt_images\generated_images\results_problem_10\sample_1_0014.png,C:\Users\subject\Desktop\SVRT Experiments\SVRT Experiment 3\svrt_images\generated_images\results_problem_2\sample_0_0012.png,C:\Users\subject\Desktop\SVRT Experiments\SVRT Experiment 3\svrt_images\generated_images\results_problem_20\sample_0_0011.png,,,,,,,,,,,,,,,,,,,0,4,4,4,0,14,14,14,,,,,,,,,,,,,,j,20,B,B,28,1,Correct!,0.20419469999615103,1220.3091542000184,None,1220.3091542000184,None,1220.5591432999936,None,,,,,110,001,2023-10-10_11h16.33.605,colored_sorted,2021.2.3,60.00513642290505,
C:\Users\subject\Desktop\SVRT Experiments\SVRT Experiment 3\svrt_images\generated_images\results_problem_20,C:\Users\subject\Desktop\SVRT Experiments\SVRT Experiment 3\svrt_images\generated_images\results_problem_4\sample_1_0015.png,C:\Users\subject\Desktop\SVRT Experiments\SVRT Experiment 3\svrt_images\generated_images\results_problem_5\sample_0_0004.png,C:\Users\subject\Desktop\SVRT Experiments\SVRT Experiment 3\svrt_images\generated_images\results_problem_10\sample_1_0014.png,C:\Users\subject\Desktop\SVRT Experiments\SVRT Experiment 3\svrt_images\generated_images\results_problem_2\sample_0_0012.png,C:\Users\subject\Desktop\SVRT Experiments\SVRT Experiment 3\svrt_images\generated_images\results_problem_20\sample_0_0005.png,,,,,,,,,,,,,,,,,,,0,4,4,4,0,15,15,15,,,,,,,,,,,,,,f,20,A,B,28,0,Incorrect!,0.4427735999925062,1221.7424367999774,None,1221.7424367999774,None,1222.225835499994,None,,,,,110,001,2023-10-10_11h16.33.605,colored_sorted,2021.2.3,60.00513642290505,
C:\Users\subject\Desktop\SVRT Experiments\SVRT Experiment 3\svrt_images\generated_images\results_problem_20,C:\Users\subject\Desktop\SVRT Experiments\SVRT Experiment 3\svrt_images\generated_images\results_problem_4\sample_1_0015.png,C:\Users\subject\Desktop\SVRT Experiments\SVRT Experiment 3\svrt_images\generated_images\results_problem_5\sample_0_0004.png,C:\Users\subject\Desktop\SVRT Experiments\SVRT Experiment 3\svrt_images\generated_images\results_problem_10\sample_1_0014.png,C:\Users\subject\Desktop\SVRT Experiments\SVRT Experiment 3\svrt_images\generated_images\results_problem_2\sample_0_0012.png,C:\Users\subject\Desktop\SVRT Experiments\SVRT Experiment 3\svrt_images\generated_images\results_problem_20\sample_1_0007.png,,,,,,,,,,,,,,,,,,,0,4,4,4,0,16,16,16,,,,,,,,,,,,,,j,20,B,A,28,0,Incorrect!,0.095487900020089,1223.4259321999853,None,1223.4259321999853,None,1223.5424348000088,None,,,,,110,001,2023-10-10_11h16.33.605,colored_sorted,2021.2.3,60.00513642290505,
C:\Users\subject\Desktop\SVRT Experiments\SVRT Experiment 3\svrt_images\generated_images\results_problem_20,C:\Users\subject\Desktop\SVRT Experiments\SVRT Experiment 3\svrt_images\generated_images\results_problem_4\sample_1_0015.png,C:\Users\subject\Desktop\SVRT Experiments\SVRT Experiment 3\svrt_images\generated_images\results_problem_5\sample_0_0004.png,C:\Users\subject\Desktop\SVRT Experiments\SVRT Experiment 3\svrt_images\generated_images\results_problem_10\sample_1_0014.png,C:\Users\subject\Desktop\SVRT Experiments\SVRT Experiment 3\svrt_images\generated_images\results_problem_2\sample_0_0012.png,C:\Users\subject\Desktop\SVRT Experiments\SVRT Experiment 3\svrt_images\generated_images\results_problem_20\sample_1_0000.png,,,,,,,,,,,,,,,,,,,0,4,4,4,0,17,17,17,,,,,,,,,,,,,,f,20,A,A,28,1,Correct!,0.034250999975483865,1224.7590580999968,None,1224.7590580999968,None,1224.8257455999847,None,,,,,110,001,2023-10-10_11h16.33.605,colored_sorted,2021.2.3,60.00513642290505,
C:\Users\subject\Desktop\SVRT Experiments\SVRT Experiment 3\svrt_images\generated_images\results_problem_20,C:\Users\subject\Desktop\SVRT Experiments\SVRT Experiment 3\svrt_images\generated_images\results_problem_4\sample_1_0015.png,C:\Users\subject\Desktop\SVRT Experiments\SVRT Experiment 3\svrt_images\generated_images\results_problem_5\sample_0_0004.png,C:\Users\subject\Desktop\SVRT Experiments\SVRT Experiment 3\svrt_images\generated_images\results_problem_10\sample_1_0014.png,C:\Users\subject\Desktop\SVRT Experiments\SVRT Experiment 3\svrt_images\generated_images\results_problem_2\sample_0_0012.png,C:\Users\subject\Desktop\SVRT Experiments\SVRT Experiment 3\svrt_images\generated_images\results_problem_20\sample_0_0012.png,,,,,,,,,,,,,,,,,,,0,4,4,4,0,18,18,18,,,,,,,,,,,,,,f,20,A,B,28,0,Incorrect!,0.22217610001098365,1226.0590534000075,None,1226.0590534000075,None,1226.3257302999846,None,,,,,110,001,2023-10-10_11h16.33.605,colored_sorted,2021.2.3,60.00513642290505,
C:\Users\subject\Desktop\SVRT Experiments\SVRT Experiment 3\svrt_images\generated_images\results_problem_20,C:\Users\subject\Desktop\SVRT Experiments\SVRT Experiment 3\svrt_images\generated_images\results_problem_4\sample_1_0015.png,C:\Users\subject\Desktop\SVRT Experiments\SVRT Experiment 3\svrt_images\generated_images\results_problem_5\sample_0_0004.png,C:\Users\subject\Desktop\SVRT Experiments\SVRT Experiment 3\svrt_images\generated_images\results_problem_10\sample_1_0014.png,C:\Users\subject\Desktop\SVRT Experiments\SVRT Experiment 3\svrt_images\generated_images\results_problem_2\sample_0_0012.png,C:\Users\subject\Desktop\SVRT Experiments\SVRT Experiment 3\svrt_images\generated_images\results_problem_20\sample_1_0006.png,,,,,,,,,,,,,,,,,,,0,4,4,4,0,19,19,19,,,,,,,,,,,,,,j,20,B,A,28,0,Incorrect!,0.20238319999771193,1227.559053600009,None,1227.559053600009,None,1227.825701499998,None,,,,,110,001,2023-10-10_11h16.33.605,colored_sorted,2021.2.3,60.00513642290505,
C:\Users\subject\Desktop\SVRT Experiments\SVRT Experiment 3\svrt_images\generated_images\results_problem_20,C:\Users\subject\Desktop\SVRT Experiments\SVRT Experiment 3\svrt_images\generated_images\results_problem_4\sample_1_0015.png,C:\Users\subject\Desktop\SVRT Experiments\SVRT Experiment 3\svrt_images\generated_images\results_problem_5\sample_0_0004.png,C:\Users\subject\Desktop\SVRT Experiments\SVRT Experiment 3\svrt_images\generated_images\results_problem_10\sample_1_0014.png,C:\Users\subject\Desktop\SVRT Experiments\SVRT Experiment 3\svrt_images\generated_images\results_problem_2\sample_0_0012.png,C:\Users\subject\Desktop\SVRT Experiments\SVRT Experiment 3\svrt_images\generated_images\results_problem_20\sample_1_0016.png,,,,,,,,,,,,,,,,,,,0,4,4,4,0,20,20,20,,,,,,,,,,,,,,f,20,A,A,28,1,Correct!,0.2209104999783449,1229.092340299976,None,1229.092340299976,None,1229.3589912999887,None,,,,,110,001,2023-10-10_11h16.33.605,colored_sorted,2021.2.3,60.00513642290505,
C:\Users\subject\Desktop\SVRT Experiments\SVRT Experiment 3\svrt_images\generated_images\results_problem_20,C:\Users\subject\Desktop\SVRT Experiments\SVRT Experiment 3\svrt_images\generated_images\results_problem_4\sample_1_0015.png,C:\Users\subject\Desktop\SVRT Experiments\SVRT Experiment 3\svrt_images\generated_images\results_problem_5\sample_0_0004.png,C:\Users\subject\Desktop\SVRT Experiments\SVRT Experiment 3\svrt_images\generated_images\results_problem_10\sample_1_0014.png,C:\Users\subject\Desktop\SVRT Experiments\SVRT Experiment 3\svrt_images\generated_images\results_problem_2\sample_0_0012.png,C:\Users\subject\Desktop\SVRT Experiments\SVRT Experiment 3\svrt_images\generated_images\results_problem_20\sample_0_0003.png,,,,,,,,,,,,,,,,,,,0,4,4,4,0,21,21,21,,,,,,,,,,,,,,f,20,A,B,28,0,Incorrect!,0.28701319999527186,1230.64233230002,None,1230.64233230002,None,1230.9756374999997,None,,,,,110,001,2023-10-10_11h16.33.605,colored_sorted,2021.2.3,60.00513642290505,
C:\Users\subject\Desktop\SVRT Experiments\SVRT Experiment 3\svrt_images\generated_images\results_problem_20,C:\Users\subject\Desktop\SVRT Experiments\SVRT Experiment 3\svrt_images\generated_images\results_problem_4\sample_1_0015.png,C:\Users\subject\Desktop\SVRT Experiments\SVRT Experiment 3\svrt_images\generated_images\results_problem_5\sample_0_0004.png,C:\Users\subject\Desktop\SVRT Experiments\SVRT Experiment 3\svrt_images\generated_images\results_problem_10\sample_1_0014.png,C:\Users\subject\Desktop\SVRT Experiments\SVRT Experiment 3\svrt_images\generated_images\results_problem_2\sample_0_0012.png,C:\Users\subject\Desktop\SVRT Experiments\SVRT Experiment 3\svrt_images\generated_images\results_problem_20\sample_0_0008.png,,,,,,,,,,,,,,,,,,,0,4,4,4,0,22,22,22,,,,,,,,,,,,,,f,20,A,B,28,0,Incorrect!,0.16561450000153854,1232.2755986999837,None,1232.2755986999837,None,1232.4922724000062,None,,,,,110,001,2023-10-10_11h16.33.605,colored_sorted,2021.2.3,60.00513642290505,
C:\Users\subject\Desktop\SVRT Experiments\SVRT Experiment 3\svrt_images\generated_images\results_problem_20,C:\Users\subject\Desktop\SVRT Experiments\SVRT Experiment 3\svrt_images\generated_images\results_problem_4\sample_1_0015.png,C:\Users\subject\Desktop\SVRT Experiments\SVRT Experiment 3\svrt_images\generated_images\results_problem_5\sample_0_0004.png,C:\Users\subject\Desktop\SVRT Experiments\SVRT Experiment 3\svrt_images\generated_images\results_problem_10\sample_1_0014.png,C:\Users\subject\Desktop\SVRT Experiments\SVRT Experiment 3\svrt_images\generated_images\results_problem_2\sample_0_0012.png,C:\Users\subject\Desktop\SVRT Experiments\SVRT Experiment 3\svrt_images\generated_images\results_problem_20\sample_0_0004.png,,,,,,,,,,,,,,,,,,,0,4,4,4,0,23,23,23,,,,,,,,,,,,,,j,20,B,B,28,1,Correct!,0.25711039995076135,1233.7922788999858,None,1233.7922788999858,None,1234.075585099985,None,,,,,110,001,2023-10-10_11h16.33.605,colored_sorted,2021.2.3,60.00513642290505,
C:\Users\subject\Desktop\SVRT Experiments\SVRT Experiment 3\svrt_images\generated_images\results_problem_20,C:\Users\subject\Desktop\SVRT Experiments\SVRT Experiment 3\svrt_images\generated_images\results_problem_4\sample_1_0015.png,C:\Users\subject\Desktop\SVRT Experiments\SVRT Experiment 3\svrt_images\generated_images\results_problem_5\sample_0_0004.png,C:\Users\subject\Desktop\SVRT Experiments\SVRT Experiment 3\svrt_images\generated_images\results_problem_10\sample_1_0014.png,C:\Users\subject\Desktop\SVRT Experiments\SVRT Experiment 3\svrt_images\generated_images\results_problem_2\sample_0_0012.png,C:\Users\subject\Desktop\SVRT Experiments\SVRT Experiment 3\svrt_images\generated_images\results_problem_20\sample_1_0008.png,,,,,,,,,,,,,,,,,,,0,4,4,4,0,24,24,24,,,,,,,,,,,,,,j,20,B,A,28,0,Incorrect!,0.11300659994594753,1235.392221599992,None,1235.392221599992,None,1235.542212100001,None,,,,,110,001,2023-10-10_11h16.33.605,colored_sorted,2021.2.3,60.00513642290505,
C:\Users\subject\Desktop\SVRT Experiments\SVRT Experiment 3\svrt_images\generated_images\results_problem_20,C:\Users\subject\Desktop\SVRT Experiments\SVRT Experiment 3\svrt_images\generated_images\results_problem_4\sample_1_0015.png,C:\Users\subject\Desktop\SVRT Experiments\SVRT Experiment 3\svrt_images\generated_images\results_problem_5\sample_0_0004.png,C:\Users\subject\Desktop\SVRT Experiments\SVRT Experiment 3\svrt_images\generated_images\results_problem_10\sample_1_0014.png,C:\Users\subject\Desktop\SVRT Experiments\SVRT Experiment 3\svrt_images\generated_images\results_problem_2\sample_0_0012.png,C:\Users\subject\Desktop\SVRT Experiments\SVRT Experiment 3\svrt_images\generated_images\results_problem_20\sample_0_0002.png,,,,,,,,,,,,,,,,,,,0,4,4,4,0,25,25,25,,,,,,,,,,,,,,j,20,B,B,28,1,Correct!,0.269725100020878,1236.8755523000145,None,1236.8755523000145,None,1237.2255492000259,None,,,,,110,001,2023-10-10_11h16.33.605,colored_sorted,2021.2.3,60.00513642290505,
C:\Users\subject\Desktop\SVRT Experiments\SVRT Experiment 3\svrt_images\generated_images\results_problem_20,C:\Users\subject\Desktop\SVRT Experiments\SVRT Experiment 3\svrt_images\generated_images\results_problem_4\sample_1_0015.png,C:\Users\subject\Desktop\SVRT Experiments\SVRT Experiment 3\svrt_images\generated_images\results_problem_5\sample_0_0004.png,C:\Users\subject\Desktop\SVRT Experiments\SVRT Experiment 3\svrt_images\generated_images\results_problem_10\sample_1_0014.png,C:\Users\subject\Desktop\SVRT Experiments\SVRT Experiment 3\svrt_images\generated_images\results_problem_2\sample_0_0012.png,C:\Users\subject\Desktop\SVRT Experiments\SVRT Experiment 3\svrt_images\generated_images\results_problem_20\sample_0_0010.png,,,,,,,,,,,,,,,,,,,0,4,4,4,0,26,26,26,,,,,,,,,,,,,,j,20,B,B,28,1,Correct!,0.41777810000348836,1238.575518800004,None,1238.575518800004,None,1239.0754894000129,None,,,,,110,001,2023-10-10_11h16.33.605,colored_sorted,2021.2.3,60.00513642290505,
C:\Users\subject\Desktop\SVRT Experiments\SVRT Experiment 3\svrt_images\generated_images\results_problem_20,C:\Users\subject\Desktop\SVRT Experiments\SVRT Experiment 3\svrt_images\generated_images\results_problem_4\sample_1_0015.png,C:\Users\subject\Desktop\SVRT Experiments\SVRT Experiment 3\svrt_images\generated_images\results_problem_5\sample_0_0004.png,C:\Users\subject\Desktop\SVRT Experiments\SVRT Experiment 3\svrt_images\generated_images\results_problem_10\sample_1_0014.png,C:\Users\subject\Desktop\SVRT Experiments\SVRT Experiment 3\svrt_images\generated_images\results_problem_2\sample_0_0012.png,C:\Users\subject\Desktop\SVRT Experiments\SVRT Experiment 3\svrt_images\generated_images\results_problem_20\sample_0_0006.png,,,,,,,,,,,,,,,,,,,0,4,4,4,0,27,27,27,,,,,,,,,,,,,,f,20,A,B,28,0,Incorrect!,2.8552105000126176,1240.44217200001,None,1240.44217200001,None,1243.3754108999856,None,,,,,110,001,2023-10-10_11h16.33.605,colored_sorted,2021.2.3,60.00513642290505,
C:\Users\subject\Desktop\SVRT Experiments\SVRT Experiment 3\svrt_images\generated_images\results_problem_20,C:\Users\subject\Desktop\SVRT Experiments\SVRT Experiment 3\svrt_images\generated_images\results_problem_4\sample_1_0015.png,C:\Users\subject\Desktop\SVRT Experiments\SVRT Experiment 3\svrt_images\generated_images\results_problem_5\sample_0_0004.png,C:\Users\subject\Desktop\SVRT Experiments\SVRT Experiment 3\svrt_images\generated_images\results_problem_10\sample_1_0014.png,C:\Users\subject\Desktop\SVRT Experiments\SVRT Experiment 3\svrt_images\generated_images\results_problem_2\sample_0_0012.png,C:\Users\subject\Desktop\SVRT Experiments\SVRT Experiment 3\svrt_images\generated_images\results_problem_20\sample_1_0004.png,,,,,,,,,,,,,,,,,,,0,4,4,4,0,28,28,28,,,,,,,,,,,,,,j,20,B,A,28,0,Incorrect!,0.5304627000004984,1244.7587518999935,None,1244.7587518999935,None,1245.342075499997,None,,,,,110,001,2023-10-10_11h16.33.605,colored_sorted,2021.2.3,60.00513642290505,
C:\Users\subject\Desktop\SVRT Experiments\SVRT Experiment 3\svrt_images\generated_images\results_problem_20,C:\Users\subject\Desktop\SVRT Experiments\SVRT Experiment 3\svrt_images\generated_images\results_problem_4\sample_1_0015.png,C:\Users\subject\Desktop\SVRT Experiments\SVRT Experiment 3\svrt_images\generated_images\results_problem_5\sample_0_0004.png,C:\Users\subject\Desktop\SVRT Experiments\SVRT Experiment 3\svrt_images\generated_images\results_problem_10\sample_1_0014.png,C:\Users\subject\Desktop\SVRT Experiments\SVRT Experiment 3\svrt_images\generated_images\results_problem_2\sample_0_0012.png,C:\Users\subject\Desktop\SVRT Experiments\SVRT Experiment 3\svrt_images\generated_images\results_problem_20\sample_0_0000.png,,,,,,,,,,,,,,,,,,,0,4,4,4,0,29,29,29,,,,,,,,,,,,,,f,20,A,B,28,0,Incorrect!,0.5799741999944672,1246.7253831999842,None,1246.7253831999842,None,1247.3253622999764,None,,,,,110,001,2023-10-10_11h16.33.605,colored_sorted,2021.2.3,60.00513642290505,
C:\Users\subject\Desktop\SVRT Experiments\SVRT Experiment 3\svrt_images\generated_images\results_problem_20,C:\Users\subject\Desktop\SVRT Experiments\SVRT Experiment 3\svrt_images\generated_images\results_problem_4\sample_1_0015.png,C:\Users\subject\Desktop\SVRT Experiments\SVRT Experiment 3\svrt_images\generated_images\results_problem_5\sample_0_0004.png,C:\Users\subject\Desktop\SVRT Experiments\SVRT Experiment 3\svrt_images\generated_images\results_problem_10\sample_1_0014.png,C:\Users\subject\Desktop\SVRT Experiments\SVRT Experiment 3\svrt_images\generated_images\results_problem_2\sample_0_0012.png,C:\Users\subject\Desktop\SVRT Experiments\SVRT Experiment 3\svrt_images\generated_images\results_problem_20\sample_1_0013.png,,,,,,,,,,,,,,,,,,,0,4,4,4,0,30,30,30,,,,,,,,,,,,,,f,20,A,A,28,1,Correct!,0.24262429994996637,1248.7586896999856,None,1248.7586896999856,None,1249.0753531000228,None,,,,,110,001,2023-10-10_11h16.33.605,colored_sorted,2021.2.3,60.00513642290505,
C:\Users\subject\Desktop\SVRT Experiments\SVRT Experiment 3\svrt_images\generated_images\results_problem_20,C:\Users\subject\Desktop\SVRT Experiments\SVRT Experiment 3\svrt_images\generated_images\results_problem_4\sample_1_0015.png,C:\Users\subject\Desktop\SVRT Experiments\SVRT Experiment 3\svrt_images\generated_images\results_problem_5\sample_0_0004.png,C:\Users\subject\Desktop\SVRT Experiments\SVRT Experiment 3\svrt_images\generated_images\results_problem_10\sample_1_0014.png,C:\Users\subject\Desktop\SVRT Experiments\SVRT Experiment 3\svrt_images\generated_images\results_problem_2\sample_0_0012.png,C:\Users\subject\Desktop\SVRT Experiments\SVRT Experiment 3\svrt_images\generated_images\results_problem_20\sample_0_0016.png,,,,,,,,,,,,,,,,,,,0,4,4,4,0,31,31,31,,,,,,,,,,,,,,j,20,B,B,28,1,Correct!,0.23655849997885525,1250.5086708000163,None,1250.5086708000163,None,1250.825287899992,None,,,,,110,001,2023-10-10_11h16.33.605,colored_sorted,2021.2.3,60.00513642290505,
C:\Users\subject\Desktop\SVRT Experiments\SVRT Experiment 3\svrt_images\generated_images\results_problem_20,C:\Users\subject\Desktop\SVRT Experiments\SVRT Experiment 3\svrt_images\generated_images\results_problem_4\sample_1_0015.png,C:\Users\subject\Desktop\SVRT Experiments\SVRT Experiment 3\svrt_images\generated_images\results_problem_5\sample_0_0004.png,C:\Users\subject\Desktop\SVRT Experiments\SVRT Experiment 3\svrt_images\generated_images\results_problem_10\sample_1_0014.png,C:\Users\subject\Desktop\SVRT Experiments\SVRT Experiment 3\svrt_images\generated_images\results_problem_2\sample_0_0012.png,C:\Users\subject\Desktop\SVRT Experiments\SVRT Experiment 3\svrt_images\generated_images\results_problem_20\sample_0_0009.png,,,,,,,,,,,,,,,,,,,0,4,4,4,0,32,32,32,,,,,,,,,,,,,,f,20,A,B,28,0,Incorrect!,0.23011499998392537,1252.2753110000049,None,1252.2753110000049,None,1252.6085969000123,None,,,,,110,001,2023-10-10_11h16.33.605,colored_sorted,2021.2.3,60.00513642290505,
C:\Users\subject\Desktop\SVRT Experiments\SVRT Experiment 3\svrt_images\generated_images\results_problem_20,C:\Users\subject\Desktop\SVRT Experiments\SVRT Experiment 3\svrt_images\generated_images\results_problem_4\sample_1_0015.png,C:\Users\subject\Desktop\SVRT Experiments\SVRT Experiment 3\svrt_images\generated_images\results_problem_5\sample_0_0004.png,C:\Users\subject\Desktop\SVRT Experiments\SVRT Experiment 3\svrt_images\generated_images\results_problem_10\sample_1_0014.png,C:\Users\subject\Desktop\SVRT Experiments\SVRT Experiment 3\svrt_images\generated_images\results_problem_2\sample_0_0012.png,C:\Users\subject\Desktop\SVRT Experiments\SVRT Experiment 3\svrt_images\generated_images\results_problem_20\sample_0_0014.png,,,,,,,,,,,,,,,,,,,0,4,4,4,0,33,33,33,,,,,,,,,,,,,,f,20,A,B,28,0,Incorrect!,0.10136980004608631,1254.0919443999883,None,1254.0919443999883,None,1254.2252508000238,None,,,,,110,001,2023-10-10_11h16.33.605,colored_sorted,2021.2.3,60.00513642290505,
C:\Users\subject\Desktop\SVRT Experiments\SVRT Experiment 3\svrt_images\generated_images\results_problem_20,C:\Users\subject\Desktop\SVRT Experiments\SVRT Experiment 3\svrt_images\generated_images\results_problem_4\sample_1_0015.png,C:\Users\subject\Desktop\SVRT Experiments\SVRT Experiment 3\svrt_images\generated_images\results_problem_5\sample_0_0004.png,C:\Users\subject\Desktop\SVRT Experiments\SVRT Experiment 3\svrt_images\generated_images\results_problem_10\sample_1_0014.png,C:\Users\subject\Desktop\SVRT Experiments\SVRT Experiment 3\svrt_images\generated_images\results_problem_2\sample_0_0012.png,,,,,,,,,,,,,,,,,,,,0,4,4,4,0,21,21,21,,,,,,,,,,,,,,,,,,,,,,,,,,,,1255.22523370001,1255.22523370001,space,1.0240609999746084,110,001,2023-10-10_11h16.33.605,colored_sorted,2021.2.3,60.00513642290505,
C:\Users\subject\Desktop\SVRT Experiments\SVRT Experiment 3\svrt_images\generated_images\results_problem_6,C:\Users\subject\Desktop\SVRT Experiments\SVRT Experiment 3\svrt_images\generated_images\results_problem_4\sample_1_0015.png,C:\Users\subject\Desktop\SVRT Experiments\SVRT Experiment 3\svrt_images\generated_images\results_problem_5\sample_0_0004.png,C:\Users\subject\Desktop\SVRT Experiments\SVRT Experiment 3\svrt_images\generated_images\results_problem_10\sample_1_0014.png,C:\Users\subject\Desktop\SVRT Experiments\SVRT Experiment 3\svrt_images\generated_images\results_problem_2\sample_0_0012.png,,C:\Users\subject\Desktop\SVRT Experiments\SVRT Experiment 3\svrt_images\generated_images\results_problem_6\sample_0_0006.png,,,,,,,,,,,,,,,,,,0,5,5,5,0,0,0,0,,,,,,,,,,,,,,f,6,A,B,28,0,Incorrect!,1.606020700011868,1256.2751998000313,None,1256.2751998000313,None,1257.9085251999786,None,,,,,110,001,2023-10-10_11h16.33.605,colored_sorted,2021.2.3,60.00513642290505,
C:\Users\subject\Desktop\SVRT Experiments\SVRT Experiment 3\svrt_images\generated_images\results_problem_6,C:\Users\subject\Desktop\SVRT Experiments\SVRT Experiment 3\svrt_images\generated_images\results_problem_4\sample_1_0015.png,C:\Users\subject\Desktop\SVRT Experiments\SVRT Experiment 3\svrt_images\generated_images\results_problem_5\sample_0_0004.png,C:\Users\subject\Desktop\SVRT Experiments\SVRT Experiment 3\svrt_images\generated_images\results_problem_10\sample_1_0014.png,C:\Users\subject\Desktop\SVRT Experiments\SVRT Experiment 3\svrt_images\generated_images\results_problem_2\sample_0_0012.png,,C:\Users\subject\Desktop\SVRT Experiments\SVRT Experiment 3\svrt_images\generated_images\results_problem_6\sample_1_0012.png,,,,,,,,,,,,,,,,,,0,5,5,5,0,1,1,1,,,,,,,,,,,,,,j,6,B,A,28,0,Incorrect!,1.8922250000177883,1258.9251687999931,None,1258.9251687999931,None,1260.8417999999947,None,,,,,110,001,2023-10-10_11h16.33.605,colored_sorted,2021.2.3,60.00513642290505,
C:\Users\subject\Desktop\SVRT Experiments\SVRT Experiment 3\svrt_images\generated_images\results_problem_6,C:\Users\subject\Desktop\SVRT Experiments\SVRT Experiment 3\svrt_images\generated_images\results_problem_4\sample_1_0015.png,C:\Users\subject\Desktop\SVRT Experiments\SVRT Experiment 3\svrt_images\generated_images\results_problem_5\sample_0_0004.png,C:\Users\subject\Desktop\SVRT Experiments\SVRT Experiment 3\svrt_images\generated_images\results_problem_10\sample_1_0014.png,C:\Users\subject\Desktop\SVRT Experiments\SVRT Experiment 3\svrt_images\generated_images\results_problem_2\sample_0_0012.png,,C:\Users\subject\Desktop\SVRT Experiments\SVRT Experiment 3\svrt_images\generated_images\results_problem_6\sample_0_0002.png,,,,,,,,,,,,,,,,,,0,5,5,5,0,2,2,2,,,,,,,,,,,,,,j,6,B,B,28,1,Correct!,6.71074349997798,1261.8584613000276,None,1261.8584613000276,None,1268.5917180000106,None,,,,,110,001,2023-10-10_11h16.33.605,colored_sorted,2021.2.3,60.00513642290505,
C:\Users\subject\Desktop\SVRT Experiments\SVRT Experiment 3\svrt_images\generated_images\results_problem_6,C:\Users\subject\Desktop\SVRT Experiments\SVRT Experiment 3\svrt_images\generated_images\results_problem_4\sample_1_0015.png,C:\Users\subject\Desktop\SVRT Experiments\SVRT Experiment 3\svrt_images\generated_images\results_problem_5\sample_0_0004.png,C:\Users\subject\Desktop\SVRT Experiments\SVRT Experiment 3\svrt_images\generated_images\results_problem_10\sample_1_0014.png,C:\Users\subject\Desktop\SVRT Experiments\SVRT Experiment 3\svrt_images\generated_images\results_problem_2\sample_0_0012.png,,C:\Users\subject\Desktop\SVRT Experiments\SVRT Experiment 3\svrt_images\generated_images\results_problem_6\sample_0_0001.png,,,,,,,,,,,,,,,,,,0,5,5,5,0,3,3,3,,,,,,,,,,,,,,f,6,A,B,28,0,Incorrect!,1.4003323999932036,1269.624998299987,None,1269.624998299987,None,1271.0583207000163,None,,,,,110,001,2023-10-10_11h16.33.605,colored_sorted,2021.2.3,60.00513642290505,
C:\Users\subject\Desktop\SVRT Experiments\SVRT Experiment 3\svrt_images\generated_images\results_problem_6,C:\Users\subject\Desktop\SVRT Experiments\SVRT Experiment 3\svrt_images\generated_images\results_problem_4\sample_1_0015.png,C:\Users\subject\Desktop\SVRT Experiments\SVRT Experiment 3\svrt_images\generated_images\results_problem_5\sample_0_0004.png,C:\Users\subject\Desktop\SVRT Experiments\SVRT Experiment 3\svrt_images\generated_images\results_problem_10\sample_1_0014.png,C:\Users\subject\Desktop\SVRT Experiments\SVRT Experiment 3\svrt_images\generated_images\results_problem_2\sample_0_0012.png,,C:\Users\subject\Desktop\SVRT Experiments\SVRT Experiment 3\svrt_images\generated_images\results_problem_6\sample_1_0010.png,,,,,,,,,,,,,,,,,,0,5,5,5,0,4,4,4,,,,,,,,,,,,,,f,6,A,A,28,1,Correct!,5.244995600020047,1272.1083013999742,None,1272.1083013999742,None,1277.3748232999933,None,,,,,110,001,2023-10-10_11h16.33.605,colored_sorted,2021.2.3,60.00513642290505,
C:\Users\subject\Desktop\SVRT Experiments\SVRT Experiment 3\svrt_images\generated_images\results_problem_6,C:\Users\subject\Desktop\SVRT Experiments\SVRT Experiment 3\svrt_images\generated_images\results_problem_4\sample_1_0015.png,C:\Users\subject\Desktop\SVRT Experiments\SVRT Experiment 3\svrt_images\generated_images\results_problem_5\sample_0_0004.png,C:\Users\subject\Desktop\SVRT Experiments\SVRT Experiment 3\svrt_images\generated_images\results_problem_10\sample_1_0014.png,C:\Users\subject\Desktop\SVRT Experiments\SVRT Experiment 3\svrt_images\generated_images\results_problem_2\sample_0_0012.png,,C:\Users\subject\Desktop\SVRT Experiments\SVRT Experiment 3\svrt_images\generated_images\results_problem_6\sample_0_0007.png,,,,,,,,,,,,,,,,,,0,5,5,5,0,5,5,5,,,,,,,,,,,,,,f,6,A,B,28,0,Incorrect!,1.69657059997553,1278.424837699975,None,1278.424837699975,None,1280.1414778999751,None,,,,,110,001,2023-10-10_11h16.33.605,colored_sorted,2021.2.3,60.00513642290505,
C:\Users\subject\Desktop\SVRT Experiments\SVRT Experiment 3\svrt_images\generated_images\results_problem_6,C:\Users\subject\Desktop\SVRT Experiments\SVRT Experiment 3\svrt_images\generated_images\results_problem_4\sample_1_0015.png,C:\Users\subject\Desktop\SVRT Experiments\SVRT Experiment 3\svrt_images\generated_images\results_problem_5\sample_0_0004.png,C:\Users\subject\Desktop\SVRT Experiments\SVRT Experiment 3\svrt_images\generated_images\results_problem_10\sample_1_0014.png,C:\Users\subject\Desktop\SVRT Experiments\SVRT Experiment 3\svrt_images\generated_images\results_problem_2\sample_0_0012.png,,C:\Users\subject\Desktop\SVRT Experiments\SVRT Experiment 3\svrt_images\generated_images\results_problem_6\sample_1_0013.png,,,,,,,,,,,,,,,,,,0,5,5,5,0,6,6,6,,,,,,,,,,,,,,j,6,B,A,28,0,Incorrect!,15.113208399969153,1281.2081397000002,None,1281.2081397000002,None,1296.341240299982,None,,,,,110,001,2023-10-10_11h16.33.605,colored_sorted,2021.2.3,60.00513642290505,
C:\Users\subject\Desktop\SVRT Experiments\SVRT Experiment 3\svrt_images\generated_images\results_problem_6,C:\Users\subject\Desktop\SVRT Experiments\SVRT Experiment 3\svrt_images\generated_images\results_problem_4\sample_1_0015.png,C:\Users\subject\Desktop\SVRT Experiments\SVRT Experiment 3\svrt_images\generated_images\results_problem_5\sample_0_0004.png,C:\Users\subject\Desktop\SVRT Experiments\SVRT Experiment 3\svrt_images\generated_images\results_problem_10\sample_1_0014.png,C:\Users\subject\Desktop\SVRT Experiments\SVRT Experiment 3\svrt_images\generated_images\results_problem_2\sample_0_0012.png,,C:\Users\subject\Desktop\SVRT Experiments\SVRT Experiment 3\svrt_images\generated_images\results_problem_6\sample_0_0000.png,,,,,,,,,,,,,,,,,,0,5,5,5,0,7,7,7,,,,,,,,,,,,,,j,6,B,B,28,1,Correct!,0.19273299997439608,1297.424526399991,None,1297.424526399991,None,1297.641185000015,None,,,,,110,001,2023-10-10_11h16.33.605,colored_sorted,2021.2.3,60.00513642290505,
C:\Users\subject\Desktop\SVRT Experiments\SVRT Experiment 3\svrt_images\generated_images\results_problem_6,C:\Users\subject\Desktop\SVRT Experiments\SVRT Experiment 3\svrt_images\generated_images\results_problem_4\sample_1_0015.png,C:\Users\subject\Desktop\SVRT Experiments\SVRT Experiment 3\svrt_images\generated_images\results_problem_5\sample_0_0004.png,C:\Users\subject\Desktop\SVRT Experiments\SVRT Experiment 3\svrt_images\generated_images\results_problem_10\sample_1_0014.png,C:\Users\subject\Desktop\SVRT Experiments\SVRT Experiment 3\svrt_images\generated_images\results_problem_2\sample_0_0012.png,,C:\Users\subject\Desktop\SVRT Experiments\SVRT Experiment 3\svrt_images\generated_images\results_problem_6\sample_0_0016.png,,,,,,,,,,,,,,,,,,0,5,5,5,0,8,8,8,,,,,,,,,,,,,,f,6,A,B,28,0,Incorrect!,0.19599070004187524,1298.7411845999886,None,1298.7411845999886,None,1298.9578007999808,None,,,,,110,001,2023-10-10_11h16.33.605,colored_sorted,2021.2.3,60.00513642290505,
C:\Users\subject\Desktop\SVRT Experiments\SVRT Experiment 3\svrt_images\generated_images\results_problem_6,C:\Users\subject\Desktop\SVRT Experiments\SVRT Experiment 3\svrt_images\generated_images\results_problem_4\sample_1_0015.png,C:\Users\subject\Desktop\SVRT Experiments\SVRT Experiment 3\svrt_images\generated_images\results_problem_5\sample_0_0004.png,C:\Users\subject\Desktop\SVRT Experiments\SVRT Experiment 3\svrt_images\generated_images\results_problem_10\sample_1_0014.png,C:\Users\subject\Desktop\SVRT Experiments\SVRT Experiment 3\svrt_images\generated_images\results_problem_2\sample_0_0012.png,,C:\Users\subject\Desktop\SVRT Experiments\SVRT Experiment 3\svrt_images\generated_images\results_problem_6\sample_1_0006.png,,,,,,,,,,,,,,,,,,0,5,5,5,0,9,9,9,,,,,,,,,,,,,,f,6,A,A,28,1,Correct!,2.583549699978903,1300.0577890999848,None,1300.0577890999848,None,1302.674435199995,None,,,,,110,001,2023-10-10_11h16.33.605,colored_sorted,2021.2.3,60.00513642290505,
C:\Users\subject\Desktop\SVRT Experiments\SVRT Experiment 3\svrt_images\generated_images\results_problem_6,C:\Users\subject\Desktop\SVRT Experiments\SVRT Experiment 3\svrt_images\generated_images\results_problem_4\sample_1_0015.png,C:\Users\subject\Desktop\SVRT Experiments\SVRT Experiment 3\svrt_images\generated_images\results_problem_5\sample_0_0004.png,C:\Users\subject\Desktop\SVRT Experiments\SVRT Experiment 3\svrt_images\generated_images\results_problem_10\sample_1_0014.png,C:\Users\subject\Desktop\SVRT Experiments\SVRT Experiment 3\svrt_images\generated_images\results_problem_2\sample_0_0012.png,,C:\Users\subject\Desktop\SVRT Experiments\SVRT Experiment 3\svrt_images\generated_images\results_problem_6\sample_0_0005.png,,,,,,,,,,,,,,,,,,0,5,5,5,0,10,10,10,,,,,,,,,,,,,,f,6,A,B,28,0,Incorrect!,2.978233299974818,1303.7910985000199,None,1303.7910985000199,None,1306.7910374000203,None,,,,,110,001,2023-10-10_11h16.33.605,colored_sorted,2021.2.3,60.00513642290505,
C:\Users\subject\Desktop\SVRT Experiments\SVRT Experiment 3\svrt_images\generated_images\results_problem_6,C:\Users\subject\Desktop\SVRT Experiments\SVRT Experiment 3\svrt_images\generated_images\results_problem_4\sample_1_0015.png,C:\Users\subject\Desktop\SVRT Experiments\SVRT Experiment 3\svrt_images\generated_images\results_problem_5\sample_0_0004.png,C:\Users\subject\Desktop\SVRT Experiments\SVRT Experiment 3\svrt_images\generated_images\results_problem_10\sample_1_0014.png,C:\Users\subject\Desktop\SVRT Experiments\SVRT Experiment 3\svrt_images\generated_images\results_problem_2\sample_0_0012.png,,C:\Users\subject\Desktop\SVRT Experiments\SVRT Experiment 3\svrt_images\generated_images\results_problem_6\sample_0_0011.png,,,,,,,,,,,,,,,,,,0,5,5,5,0,11,11,11,,,,,,,,,,,,,,j,6,B,B,28,1,Correct!,0.08482470002491027,1307.9243703000247,None,1307.9243703000247,None,1308.0410144000198,None,,,,,110,001,2023-10-10_11h16.33.605,colored_sorted,2021.2.3,60.00513642290505,
C:\Users\subject\Desktop\SVRT Experiments\SVRT Experiment 3\svrt_images\generated_images\results_problem_6,C:\Users\subject\Desktop\SVRT Experiments\SVRT Experiment 3\svrt_images\generated_images\results_problem_4\sample_1_0015.png,C:\Users\subject\Desktop\SVRT Experiments\SVRT Experiment 3\svrt_images\generated_images\results_problem_5\sample_0_0004.png,C:\Users\subject\Desktop\SVRT Experiments\SVRT Experiment 3\svrt_images\generated_images\results_problem_10\sample_1_0014.png,C:\Users\subject\Desktop\SVRT Experiments\SVRT Experiment 3\svrt_images\generated_images\results_problem_2\sample_0_0012.png,,C:\Users\subject\Desktop\SVRT Experiments\SVRT Experiment 3\svrt_images\generated_images\results_problem_6\sample_1_0015.png,,,,,,,,,,,,,,,,,,0,5,5,5,0,12,12,12,,,,,,,,,,,,,,j,6,B,A,28,0,Incorrect!,0.1302084000199102,1309.191018100013,None,1309.191018100013,None,1309.3410198999918,None,,,,,110,001,2023-10-10_11h16.33.605,colored_sorted,2021.2.3,60.00513642290505,
