folder,results_problem_6,results_problem_15,results_problem_8,results_problem_13,results_problem_23,results_problem_20,results_problem_22,results_problem_21,results_problem_17,results_problem_18,results_problem_3,results_problem_14,results_problem_19,results_problem_2,results_problem_9,results_problem_16,results_problem_7,results_problem_12,results_problem_5,results_problem_11,results_problem_1,results_problem_4,results_problem_10,categories.thisRepN,categories.thisTrialN,categories.thisN,categories.thisIndex,trials.thisRepN,trials.thisTrialN,trials.thisN,trials.thisIndex,consent_text.started,consent_kb.started,consent_kb.keys,consent_kb.rt,Gender.keys,Gender.rt,Age,instructions_text.started,instructions_text.stopped,instructions_kb.keys,instructions_kb.rt,instructions_kb.started,instructions_kb.stopped,trial_kb.keys,current_problem_num,category_resp,answer,seed,accuracy,feedback,trial_kb.rt,trial_kb.started,trial_kb.stopped,trial_image.started,trial_image.stopped,feedback_text.started,feedback_text.stopped,new_problem_kb.started,new_problem_text.started,new_problem_kb.keys,new_problem_kb.rt,Participant #,session,date,expName,psychopyVersion,frameRate,
,,,,,,,,,,,,,,,,,,,,,,,,,,,,,,,,15.154012500017416,15.154012500017416,y,1796.4023001000169,,,,,,,,,,,,,,,,,,,,,,,,,,,,113,001,2023-10-10_12h02.42.800,colored_shuffled,2021.2.3,59.99455250204282,
,,,,,,,,,,,,,,,,,,,,,,,,,,,,,,,,,,,,w,2.7071644000243396,,,,,,,,,,,,,,,,,,,,,,,,,,113,001,2023-10-10_12h02.42.800,colored_shuffled,2021.2.3,59.99455250204282,
,,,,,,,,,,,,,,,,,,,,,,,,,,,,,,,,,,,,,,20,1830.8102626000182,None,space,12.874058799992781,1830.8102626000182,None,,,,,,,,,,,,,,,,,,,113,001,2023-10-10_12h02.42.800,colored_shuffled,2021.2.3,59.99455250204282,
C:\Users\subject\Desktop\SVRT Experiments\SVRT Experiment 3\svrt_images\generated_images\results_problem_6,C:\Users\subject\Desktop\SVRT Experiments\SVRT Experiment 3\svrt_images\generated_images\results_problem_6\sample_1_0005.png,,,,,,,,,,,,,,,,,,,,,,,0,0,0,0,0,0,0,0,,,,,,,,,,,,,,f,6,A,A,29,1,Correct!,13.350200800050516,1843.710052200011,None,1843.710052200011,None,1857.1098746999633,None,,,,,113,001,2023-10-10_12h02.42.800,colored_shuffled,2021.2.3,59.99455250204282,
C:\Users\subject\Desktop\SVRT Experiments\SVRT Experiment 3\svrt_images\generated_images\results_problem_6,C:\Users\subject\Desktop\SVRT Experiments\SVRT Experiment 3\svrt_images\generated_images\results_problem_6\sample_1_0014.png,,,,,,,,,,,,,,,,,,,,,,,0,0,0,0,0,1,1,1,,,,,,,,,,,,,,f,6,A,A,29,1,Correct!,0.8298113999771886,1858.1265367000015,None,1858.1265367000015,None,1858.9764900999726,None,,,,,113,001,2023-10-10_12h02.42.800,colored_shuffled,2021.2.3,59.99455250204282,
C:\Users\subject\Desktop\SVRT Experiments\SVRT Experiment 3\svrt_images\generated_images\results_problem_6,C:\Users\subject\Desktop\SVRT Experiments\SVRT Experiment 3\svrt_images\generated_images\results_problem_6\sample_1_0015.png,,,,,,,,,,,,,,,,,,,,,,,0,0,0,0,0,2,2,2,,,,,,,,,,,,,,f,6,A,A,29,1,Correct!,0.6511173999751918,1859.9931617999682,None,1859.9931617999682,None,1860.676473199972,None,,,,,113,001,2023-10-10_12h02.42.800,colored_shuffled,2021.2.3,59.99455250204282,
C:\Users\subject\Desktop\SVRT Experiments\SVRT Experiment 3\svrt_images\generated_images\results_problem_6,C:\Users\subject\Desktop\SVRT Experiments\SVRT Experiment 3\svrt_images\generated_images\results_problem_6\sample_0_0009.png,,,,,,,,,,,,,,,,,,,,,,,0,0,0,0,0,3,3,3,,,,,,,,,,,,,,f,6,A,B,29,0,Incorrect!,0.48652770003536716,1861.7097965999856,None,1861.7097965999856,None,1862.2264520999743,None,,,,,113,001,2023-10-10_12h02.42.800,colored_shuffled,2021.2.3,59.99455250204282,
C:\Users\subject\Desktop\SVRT Experiments\SVRT Experiment 3\svrt_images\generated_images\results_problem_6,C:\Users\subject\Desktop\SVRT Experiments\SVRT Experiment 3\svrt_images\generated_images\results_problem_6\sample_0_0007.png,,,,,,,,,,,,,,,,,,,,,,,0,0,0,0,0,4,4,4,,,,,,,,,,,,,,j,6,B,B,29,1,Correct!,3.43182210001396,1863.2764644999988,None,1863.2764644999988,None,1866.7264087999938,None,,,,,113,001,2023-10-10_12h02.42.800,colored_shuffled,2021.2.3,59.99455250204282,
C:\Users\subject\Desktop\SVRT Experiments\SVRT Experiment 3\svrt_images\generated_images\results_problem_6,C:\Users\subject\Desktop\SVRT Experiments\SVRT Experiment 3\svrt_images\generated_images\results_problem_6\sample_1_0010.png,,,,,,,,,,,,,,,,,,,,,,,0,0,0,0,0,5,5,5,,,,,,,,,,,,,,j,6,B,A,29,0,Incorrect!,0.6920272999559529,1867.776360799966,None,1867.776360799966,None,1868.493046199961,None,,,,,113,001,2023-10-10_12h02.42.800,colored_shuffled,2021.2.3,59.99455250204282,
C:\Users\subject\Desktop\SVRT Experiments\SVRT Experiment 3\svrt_images\generated_images\results_problem_6,C:\Users\subject\Desktop\SVRT Experiments\SVRT Experiment 3\svrt_images\generated_images\results_problem_6\sample_1_0007.png,,,,,,,,,,,,,,,,,,,,,,,0,0,0,0,0,6,6,6,,,,,,,,,,,,,,f,6,A,A,29,1,Correct!,1.476852499996312,1869.5596802000073,None,1869.5596802000073,None,1871.0596691999817,None,,,,,113,001,2023-10-10_12h02.42.800,colored_shuffled,2021.2.3,59.99455250204282,
C:\Users\subject\Desktop\SVRT Experiments\SVRT Experiment 3\svrt_images\generated_images\results_problem_6,C:\Users\subject\Desktop\SVRT Experiments\SVRT Experiment 3\svrt_images\generated_images\results_problem_6\sample_0_0016.png,,,,,,,,,,,,,,,,,,,,,,,0,0,0,0,0,7,7,7,,,,,,,,,,,,,,f,6,A,B,29,0,Incorrect!,0.6774316999944858,1872.1429723000037,None,1872.1429723000037,None,1872.842941800016,None,,,,,113,001,2023-10-10_12h02.42.800,colored_shuffled,2021.2.3,59.99455250204282,
C:\Users\subject\Desktop\SVRT Experiments\SVRT Experiment 3\svrt_images\generated_images\results_problem_6,C:\Users\subject\Desktop\SVRT Experiments\SVRT Experiment 3\svrt_images\generated_images\results_problem_6\sample_1_0013.png,,,,,,,,,,,,,,,,,,,,,,,0,0,0,0,0,8,8,8,,,,,,,,,,,,,,j,6,B,A,29,0,Incorrect!,6.142021600040607,1873.9262524999795,None,1873.9262524999795,None,1880.0928418000112,None,,,,,113,001,2023-10-10_12h02.42.800,colored_shuffled,2021.2.3,59.99455250204282,
C:\Users\subject\Desktop\SVRT Experiments\SVRT Experiment 3\svrt_images\generated_images\results_problem_6,C:\Users\subject\Desktop\SVRT Experiments\SVRT Experiment 3\svrt_images\generated_images\results_problem_6\sample_0_0011.png,,,,,,,,,,,,,,,,,,,,,,,0,0,0,0,0,9,9,9,,,,,,,,,,,,,,f,6,A,B,29,0,Incorrect!,2.147667199955322,1881.1928037999896,None,1881.1928037999896,None,1883.3594515000004,None,,,,,113,001,2023-10-10_12h02.42.800,colored_shuffled,2021.2.3,59.99455250204282,
C:\Users\subject\Desktop\SVRT Experiments\SVRT Experiment 3\svrt_images\generated_images\results_problem_6,C:\Users\subject\Desktop\SVRT Experiments\SVRT Experiment 3\svrt_images\generated_images\results_problem_6\sample_0_0000.png,,,,,,,,,,,,,,,,,,,,,,,0,0,0,0,0,10,10,10,,,,,,,,,,,,,,j,6,B,B,29,1,Correct!,5.440196999988984,1884.4761336999945,None,1884.4761336999945,None,1889.942683500005,None,,,,,113,001,2023-10-10_12h02.42.800,colored_shuffled,2021.2.3,59.99455250204282,
C:\Users\subject\Desktop\SVRT Experiments\SVRT Experiment 3\svrt_images\generated_images\results_problem_6,C:\Users\subject\Desktop\SVRT Experiments\SVRT Experiment 3\svrt_images\generated_images\results_problem_6\sample_0_0010.png,,,,,,,,,,,,,,,,,,,,,,,0,0,0,0,0,11,11,11,,,,,,,,,,,,,,j,6,B,B,29,1,Correct!,0.6963157000136562,1891.076010299963,None,1891.076010299963,None,1891.7926673999755,None,,,,,113,001,2023-10-10_12h02.42.800,colored_shuffled,2021.2.3,59.99455250204282,
C:\Users\subject\Desktop\SVRT Experiments\SVRT Experiment 3\svrt_images\generated_images\results_problem_6,C:\Users\subject\Desktop\SVRT Experiments\SVRT Experiment 3\svrt_images\generated_images\results_problem_6\sample_1_0008.png,,,,,,,,,,,,,,,,,,,,,,,0,0,0,0,0,12,12,12,,,,,,,,,,,,,,j,6,B,A,29,0,Incorrect!,0.46237169997766614,1892.9260529999738,None,1892.9260529999738,None,1893.4092979999841,None,,,,,113,001,2023-10-10_12h02.42.800,colored_shuffled,2021.2.3,59.99455250204282,
C:\Users\subject\Desktop\SVRT Experiments\SVRT Experiment 3\svrt_images\generated_images\results_problem_6,C:\Users\subject\Desktop\SVRT Experiments\SVRT Experiment 3\svrt_images\generated_images\results_problem_6\sample_1_0003.png,,,,,,,,,,,,,,,,,,,,,,,0,0,0,0,0,13,13,13,,,,,,,,,,,,,,f,6,A,A,29,1,Correct!,2.0771879999665543,1894.5592924999655,None,1894.5592924999655,None,1896.6759141999646,None,,,,,113,001,2023-10-10_12h02.42.800,colored_shuffled,2021.2.3,59.99455250204282,
C:\Users\subject\Desktop\SVRT Experiments\SVRT Experiment 3\svrt_images\generated_images\results_problem_6,C:\Users\subject\Desktop\SVRT Experiments\SVRT Experiment 3\svrt_images\generated_images\results_problem_6\sample_0_0013.png,,,,,,,,,,,,,,,,,,,,,,,0,0,0,0,0,14,14,14,,,,,,,,,,,,,,f,6,A,B,29,0,Incorrect!,1.1218369000125676,1897.842562099977,None,1897.842562099977,None,1898.9925514999777,None,,,,,113,001,2023-10-10_12h02.42.800,colored_shuffled,2021.2.3,59.99455250204282,
C:\Users\subject\Desktop\SVRT Experiments\SVRT Experiment 3\svrt_images\generated_images\results_problem_6,C:\Users\subject\Desktop\SVRT Experiments\SVRT Experiment 3\svrt_images\generated_images\results_problem_6\sample_0_0012.png,,,,,,,,,,,,,,,,,,,,,,,0,0,0,0,0,15,15,15,,,,,,,,,,,,,,j,6,B,B,29,1,Correct!,5.268597599992063,1900.175838599971,None,1900.175838599971,None,1905.4924436999718,None,,,,,113,001,2023-10-10_12h02.42.800,colored_shuffled,2021.2.3,59.99455250204282,
C:\Users\subject\Desktop\SVRT Experiments\SVRT Experiment 3\svrt_images\generated_images\results_problem_6,C:\Users\subject\Desktop\SVRT Experiments\SVRT Experiment 3\svrt_images\generated_images\results_problem_6\sample_1_0016.png,,,,,,,,,,,,,,,,,,,,,,,0,0,0,0,0,16,16,16,,,,,,,,,,,,,,j,6,B,A,29,0,Incorrect!,5.80796200002078,1906.6924046999775,None,1906.6924046999775,None,1912.542309499986,None,,,,,113,001,2023-10-10_12h02.42.800,colored_shuffled,2021.2.3,59.99455250204282,
C:\Users\subject\Desktop\SVRT Experiments\SVRT Experiment 3\svrt_images\generated_images\results_problem_6,C:\Users\subject\Desktop\SVRT Experiments\SVRT Experiment 3\svrt_images\generated_images\results_problem_6\sample_0_0002.png,,,,,,,,,,,,,,,,,,,,,,,0,0,0,0,0,17,17,17,,,,,,,,,,,,,,f,6,A,B,29,0,Incorrect!,3.013433600019198,1913.7589824000024,None,1913.7589824000024,None,1916.8089198999805,None,,,,,113,001,2023-10-10_12h02.42.800,colored_shuffled,2021.2.3,59.99455250204282,
C:\Users\subject\Desktop\SVRT Experiments\SVRT Experiment 3\svrt_images\generated_images\results_problem_6,C:\Users\subject\Desktop\SVRT Experiments\SVRT Experiment 3\svrt_images\generated_images\results_problem_6\sample_1_0000.png,,,,,,,,,,,,,,,,,,,,,,,0,0,0,0,0,18,18,18,,,,,,,,,,,,,,j,6,B,A,29,0,Incorrect!,0.17857510002795607,1918.0256929000025,None,1918.0256929000025,None,1918.2422432000167,None,,,,,113,001,2023-10-10_12h02.42.800,colored_shuffled,2021.2.3,59.99455250204282,
C:\Users\subject\Desktop\SVRT Experiments\SVRT Experiment 3\svrt_images\generated_images\results_problem_6,C:\Users\subject\Desktop\SVRT Experiments\SVRT Experiment 3\svrt_images\generated_images\results_problem_6\sample_0_0015.png,,,,,,,,,,,,,,,,,,,,,,,0,0,0,0,0,19,19,19,,,,,,,,,,,,,,j,6,B,B,29,1,Correct!,8.352875100041274,1919.4755760999979,None,1919.4755760999979,None,1927.892060699989,None,,,,,113,001,2023-10-10_12h02.42.800,colored_shuffled,2021.2.3,59.99455250204282,
C:\Users\subject\Desktop\SVRT Experiments\SVRT Experiment 3\svrt_images\generated_images\results_problem_6,C:\Users\subject\Desktop\SVRT Experiments\SVRT Experiment 3\svrt_images\generated_images\results_problem_6\sample_0_0003.png,,,,,,,,,,,,,,,,,,,,,,,0,0,0,0,0,20,20,20,,,,,,,,,,,,,,j,6,B,B,29,1,Correct!,0.43019109999295324,1929.1421110999654,None,1929.1421110999654,None,1929.6087226999807,None,,,,,113,001,2023-10-10_12h02.42.800,colored_shuffled,2021.2.3,59.99455250204282,
C:\Users\subject\Desktop\SVRT Experiments\SVRT Experiment 3\svrt_images\generated_images\results_problem_6,C:\Users\subject\Desktop\SVRT Experiments\SVRT Experiment 3\svrt_images\generated_images\results_problem_6\sample_1_0009.png,,,,,,,,,,,,,,,,,,,,,,,0,0,0,0,0,21,21,21,,,,,,,,,,,,,,j,6,B,A,29,0,Incorrect!,4.98492829996394,1930.8753959999885,None,1930.8753959999885,None,1935.8919608999859,None,,,,,113,001,2023-10-10_12h02.42.800,colored_shuffled,2021.2.3,59.99455250204282,
C:\Users\subject\Desktop\SVRT Experiments\SVRT Experiment 3\svrt_images\generated_images\results_problem_6,C:\Users\subject\Desktop\SVRT Experiments\SVRT Experiment 3\svrt_images\generated_images\results_problem_6\sample_1_0004.png,,,,,,,,,,,,,,,,,,,,,,,0,0,0,0,0,22,22,22,,,,,,,,,,,,,,j,6,B,A,29,0,Incorrect!,0.27705029997741804,1937.1752834999934,None,1937.1752834999934,None,1937.5086339999689,None,,,,,113,001,2023-10-10_12h02.42.800,colored_shuffled,2021.2.3,59.99455250204282,
C:\Users\subject\Desktop\SVRT Experiments\SVRT Experiment 3\svrt_images\generated_images\results_problem_6,C:\Users\subject\Desktop\SVRT Experiments\SVRT Experiment 3\svrt_images\generated_images\results_problem_6\sample_1_0002.png,,,,,,,,,,,,,,,,,,,,,,,0,0,0,0,0,23,23,23,,,,,,,,,,,,,,f,6,A,A,29,1,Correct!,0.3398396999691613,1938.808588200016,None,1938.808588200016,None,1939.2252433999674,None,,,,,113,001,2023-10-10_12h02.42.800,colored_shuffled,2021.2.3,59.99455250204282,
C:\Users\subject\Desktop\SVRT Experiments\SVRT Experiment 3\svrt_images\generated_images\results_problem_6,C:\Users\subject\Desktop\SVRT Experiments\SVRT Experiment 3\svrt_images\generated_images\results_problem_6\sample_0_0014.png,,,,,,,,,,,,,,,,,,,,,,,0,0,0,0,0,24,24,24,,,,,,,,,,,,,,j,6,B,B,29,1,Correct!,0.3104370000073686,1940.5418905999977,None,1940.5418905999977,None,1940.8918855999946,None,,,,,113,001,2023-10-10_12h02.42.800,colored_shuffled,2021.2.3,59.99455250204282,
C:\Users\subject\Desktop\SVRT Experiments\SVRT Experiment 3\svrt_images\generated_images\results_problem_6,C:\Users\subject\Desktop\SVRT Experiments\SVRT Experiment 3\svrt_images\generated_images\results_problem_6\sample_0_0005.png,,,,,,,,,,,,,,,,,,,,,,,0,0,0,0,0,25,25,25,,,,,,,,,,,,,,f,6,A,B,29,0,Incorrect!,0.4351135999895632,1942.2252038000152,None,1942.2252038000152,None,1942.7085151000065,None,,,,,113,001,2023-10-10_12h02.42.800,colored_shuffled,2021.2.3,59.99455250204282,
C:\Users\subject\Desktop\SVRT Experiments\SVRT Experiment 3\svrt_images\generated_images\results_problem_6,C:\Users\subject\Desktop\SVRT Experiments\SVRT Experiment 3\svrt_images\generated_images\results_problem_6\sample_0_0001.png,,,,,,,,,,,,,,,,,,,,,,,0,0,0,0,0,26,26,26,,,,,,,,,,,,,,j,6,B,B,29,1,Correct!,0.22575709997909144,1944.0585091999965,None,1944.0585091999965,None,1944.3751547000138,None,,,,,113,001,2023-10-10_12h02.42.800,colored_shuffled,2021.2.3,59.99455250204282,
C:\Users\subject\Desktop\SVRT Experiments\SVRT Experiment 3\svrt_images\generated_images\results_problem_6,C:\Users\subject\Desktop\SVRT Experiments\SVRT Experiment 3\svrt_images\generated_images\results_problem_6\sample_0_0008.png,,,,,,,,,,,,,,,,,,,,,,,0,0,0,0,0,27,27,27,,,,,,,,,,,,,,j,6,B,B,29,1,Correct!,0.39858159999130294,1945.7418473999714,None,1945.7418473999714,None,1946.1751358999754,None,,,,,113,001,2023-10-10_12h02.42.800,colored_shuffled,2021.2.3,59.99455250204282,
C:\Users\subject\Desktop\SVRT Experiments\SVRT Experiment 3\svrt_images\generated_images\results_problem_6,C:\Users\subject\Desktop\SVRT Experiments\SVRT Experiment 3\svrt_images\generated_images\results_problem_6\sample_1_0012.png,,,,,,,,,,,,,,,,,,,,,,,0,0,0,0,0,28,28,28,,,,,,,,,,,,,,j,6,B,A,29,0,Incorrect!,0.4618180000106804,1947.5584369999706,None,1947.5584369999706,None,1948.058419500012,None,,,,,113,001,2023-10-10_12h02.42.800,colored_shuffled,2021.2.3,59.99455250204282,
C:\Users\subject\Desktop\SVRT Experiments\SVRT Experiment 3\svrt_images\generated_images\results_problem_6,C:\Users\subject\Desktop\SVRT Experiments\SVRT Experiment 3\svrt_images\generated_images\results_problem_6\sample_1_0001.png,,,,,,,,,,,,,,,,,,,,,,,0,0,0,0,0,29,29,29,,,,,,,,,,,,,,f,6,A,A,29,1,Correct!,1.065920900029596,1949.458497899992,None,1949.458497899992,None,1950.5750803999836,None,,,,,113,001,2023-10-10_12h02.42.800,colored_shuffled,2021.2.3,59.99455250204282,
C:\Users\subject\Desktop\SVRT Experiments\SVRT Experiment 3\svrt_images\generated_images\results_problem_6,C:\Users\subject\Desktop\SVRT Experiments\SVRT Experiment 3\svrt_images\generated_images\results_problem_6\sample_0_0006.png,,,,,,,,,,,,,,,,,,,,,,,0,0,0,0,0,30,30,30,,,,,,,,,,,,,,j,6,B,B,29,1,Correct!,9.012016799999401,1952.0083850999945,None,1952.0083850999945,None,1961.1248918999918,None,,,,,113,001,2023-10-10_12h02.42.800,colored_shuffled,2021.2.3,59.99455250204282,
C:\Users\subject\Desktop\SVRT Experiments\SVRT Experiment 3\svrt_images\generated_images\results_problem_6,C:\Users\subject\Desktop\SVRT Experiments\SVRT Experiment 3\svrt_images\generated_images\results_problem_6\sample_1_0011.png,,,,,,,,,,,,,,,,,,,,,,,0,0,0,0,0,31,31,31,,,,,,,,,,,,,,j,6,B,A,29,0,Incorrect!,0.41483869997318834,1962.5415576999658,None,1962.5415576999658,None,1963.058186099981,None,,,,,113,001,2023-10-10_12h02.42.800,colored_shuffled,2021.2.3,59.99455250204282,
C:\Users\subject\Desktop\SVRT Experiments\SVRT Experiment 3\svrt_images\generated_images\results_problem_6,C:\Users\subject\Desktop\SVRT Experiments\SVRT Experiment 3\svrt_images\generated_images\results_problem_6\sample_1_0006.png,,,,,,,,,,,,,,,,,,,,,,,0,0,0,0,0,32,32,32,,,,,,,,,,,,,,f,6,A,A,29,1,Correct!,2.8641703000175767,1964.5081740000169,None,1964.5081740000169,None,1967.4414677000022,None,,,,,113,001,2023-10-10_12h02.42.800,colored_shuffled,2021.2.3,59.99455250204282,
C:\Users\subject\Desktop\SVRT Experiments\SVRT Experiment 3\svrt_images\generated_images\results_problem_6,C:\Users\subject\Desktop\SVRT Experiments\SVRT Experiment 3\svrt_images\generated_images\results_problem_6\sample_0_0004.png,,,,,,,,,,,,,,,,,,,,,,,0,0,0,0,0,33,33,33,,,,,,,,,,,,,,j,6,B,B,29,1,Correct!,4.312292599992361,1968.9081191999721,None,1968.9081191999721,None,1973.2413432999747,None,,,,,113,001,2023-10-10_12h02.42.800,colored_shuffled,2021.2.3,59.99455250204282,
C:\Users\subject\Desktop\SVRT Experiments\SVRT Experiment 3\svrt_images\generated_images\results_problem_6,,,,,,,,,,,,,,,,,,,,,,,,0,0,0,0,,,,,,,,,,,,,,,,,,,,,,,,,,,,,,,,1974.241362700006,1974.241362700006,space,1.1868862000410445,113,001,2023-10-10_12h02.42.800,colored_shuffled,2021.2.3,59.99455250204282,
C:\Users\subject\Desktop\SVRT Experiments\SVRT Experiment 3\svrt_images\generated_images\results_problem_15,,C:\Users\subject\Desktop\SVRT Experiments\SVRT Experiment 3\svrt_images\generated_images\results_problem_15\sample_0_0016.png,,,,,,,,,,,,,,,,,,,,,,0,1,1,1,0,0,0,0,,,,,,,,,,,,,,f,15,A,B,29,0,Incorrect!,2.882231800002046,1975.457992199983,None,1975.457992199983,None,1978.3579637999646,None,,,,,113,001,2023-10-10_12h02.42.800,colored_shuffled,2021.2.3,59.99455250204282,
C:\Users\subject\Desktop\SVRT Experiments\SVRT Experiment 3\svrt_images\generated_images\results_problem_15,,C:\Users\subject\Desktop\SVRT Experiments\SVRT Experiment 3\svrt_images\generated_images\results_problem_15\sample_0_0000.png,,,,,,,,,,,,,,,,,,,,,,0,1,1,1,0,1,1,1,,,,,,,,,,,,,,f,15,A,B,29,0,Incorrect!,0.6855946999858133,1979.374612799962,None,1979.374612799962,None,1980.091288399999,None,,,,,113,001,2023-10-10_12h02.42.800,colored_shuffled,2021.2.3,59.99455250204282,
C:\Users\subject\Desktop\SVRT Experiments\SVRT Experiment 3\svrt_images\generated_images\results_problem_15,,C:\Users\subject\Desktop\SVRT Experiments\SVRT Experiment 3\svrt_images\generated_images\results_problem_15\sample_1_0002.png,,,,,,,,,,,,,,,,,,,,,,0,1,1,1,0,2,2,2,,,,,,,,,,,,,,j,15,B,A,29,0,Incorrect!,0.24038840003777295,1981.1079164000112,None,1981.1079164000112,None,1981.3745687999763,None,,,,,113,001,2023-10-10_12h02.42.800,colored_shuffled,2021.2.3,59.99455250204282,
C:\Users\subject\Desktop\SVRT Experiments\SVRT Experiment 3\svrt_images\generated_images\results_problem_15,,C:\Users\subject\Desktop\SVRT Experiments\SVRT Experiment 3\svrt_images\generated_images\results_problem_15\sample_1_0001.png,,,,,,,,,,,,,,,,,,,,,,0,1,1,1,0,3,3,3,,,,,,,,,,,,,,f,15,A,A,29,1,Correct!,6.540512299980037,1982.4079294999829,None,1982.4079294999829,None,1988.9744542000117,None,,,,,113,001,2023-10-10_12h02.42.800,colored_shuffled,2021.2.3,59.99455250204282,
C:\Users\subject\Desktop\SVRT Experiments\SVRT Experiment 3\svrt_images\generated_images\results_problem_15,,C:\Users\subject\Desktop\SVRT Experiments\SVRT Experiment 3\svrt_images\generated_images\results_problem_15\sample_0_0004.png,,,,,,,,,,,,,,,,,,,,,,0,1,1,1,0,4,4,4,,,,,,,,,,,,,,f,15,A,B,29,0,Incorrect!,3.3958223999943584,1990.0244577999692,None,1990.0244577999692,None,1993.441043299972,None,,,,,113,001,2023-10-10_12h02.42.800,colored_shuffled,2021.2.3,59.99455250204282,
C:\Users\subject\Desktop\SVRT Experiments\SVRT Experiment 3\svrt_images\generated_images\results_problem_15,,C:\Users\subject\Desktop\SVRT Experiments\SVRT Experiment 3\svrt_images\generated_images\results_problem_15\sample_0_0011.png,,,,,,,,,,,,,,,,,,,,,,0,1,1,1,0,5,5,5,,,,,,,,,,,,,,j,15,B,B,29,1,Correct!,1.7773288000025786,1994.4910854999907,None,1994.4910854999907,None,1996.2910099999863,None,,,,,113,001,2023-10-10_12h02.42.800,colored_shuffled,2021.2.3,59.99455250204282,
C:\Users\subject\Desktop\SVRT Experiments\SVRT Experiment 3\svrt_images\generated_images\results_problem_15,,C:\Users\subject\Desktop\SVRT Experiments\SVRT Experiment 3\svrt_images\generated_images\results_problem_15\sample_0_0005.png,,,,,,,,,,,,,,,,,,,,,,0,1,1,1,0,6,6,6,,,,,,,,,,,,,,j,15,B,B,29,1,Correct!,0.24659640004392713,1997.3576712000067,None,1997.3576712000067,None,1997.624325199984,None,,,,,113,001,2023-10-10_12h02.42.800,colored_shuffled,2021.2.3,59.99455250204282,
C:\Users\subject\Desktop\SVRT Experiments\SVRT Experiment 3\svrt_images\generated_images\results_problem_15,,C:\Users\subject\Desktop\SVRT Experiments\SVRT Experiment 3\svrt_images\generated_images\results_problem_15\sample_1_0000.png,,,,,,,,,,,,,,,,,,,,,,0,1,1,1,0,7,7,7,,,,,,,,,,,,,,f,15,A,A,29,1,Correct!,0.2086472000228241,1998.7076382999658,None,1998.7076382999658,None,1998.9409851999953,None,,,,,113,001,2023-10-10_12h02.42.800,colored_shuffled,2021.2.3,59.99455250204282,
C:\Users\subject\Desktop\SVRT Experiments\SVRT Experiment 3\svrt_images\generated_images\results_problem_15,,C:\Users\subject\Desktop\SVRT Experiments\SVRT Experiment 3\svrt_images\generated_images\results_problem_15\sample_1_0008.png,,,,,,,,,,,,,,,,,,,,,,0,1,1,1,0,8,8,8,,,,,,,,,,,,,,j,15,B,A,29,0,Incorrect!,0.2673355999868363,2000.040986499982,None,2000.040986499982,None,2000.3409630999668,None,,,,,113,001,2023-10-10_12h02.42.800,colored_shuffled,2021.2.3,59.99455250204282,
C:\Users\subject\Desktop\SVRT Experiments\SVRT Experiment 3\svrt_images\generated_images\results_problem_15,,C:\Users\subject\Desktop\SVRT Experiments\SVRT Experiment 3\svrt_images\generated_images\results_problem_15\sample_1_0005.png,,,,,,,,,,,,,,,,,,,,,,0,1,1,1,0,9,9,9,,,,,,,,,,,,,,f,15,A,A,29,1,Correct!,0.1713103999500163,2001.4409381999867,None,2001.4409381999867,None,2001.6409443999873,None,,,,,113,001,2023-10-10_12h02.42.800,colored_shuffled,2021.2.3,59.99455250204282,
C:\Users\subject\Desktop\SVRT Experiments\SVRT Experiment 3\svrt_images\generated_images\results_problem_15,,C:\Users\subject\Desktop\SVRT Experiments\SVRT Experiment 3\svrt_images\generated_images\results_problem_15\sample_0_0014.png,,,,,,,,,,,,,,,,,,,,,,0,1,1,1,0,10,10,10,,,,,,,,,,,,,,f,15,A,B,29,0,Incorrect!,0.2626367000048049,2002.7575908,None,2002.7575908,None,2003.0409244999755,None,,,,,113,001,2023-10-10_12h02.42.800,colored_shuffled,2021.2.3,59.99455250204282,
C:\Users\subject\Desktop\SVRT Experiments\SVRT Experiment 3\svrt_images\generated_images\results_problem_15,,C:\Users\subject\Desktop\SVRT Experiments\SVRT Experiment 3\svrt_images\generated_images\results_problem_15\sample_1_0012.png,,,,,,,,,,,,,,,,,,,,,,0,1,1,1,0,11,11,11,,,,,,,,,,,,,,j,15,B,A,29,0,Incorrect!,0.1900568000273779,2004.1742351999856,None,2004.1742351999856,None,2004.3908950000186,None,,,,,113,001,2023-10-10_12h02.42.800,colored_shuffled,2021.2.3,59.99455250204282,
C:\Users\subject\Desktop\SVRT Experiments\SVRT Experiment 3\svrt_images\generated_images\results_problem_15,,C:\Users\subject\Desktop\SVRT Experiments\SVRT Experiment 3\svrt_images\generated_images\results_problem_15\sample_1_0006.png,,,,,,,,,,,,,,,,,,,,,,0,1,1,1,0,12,12,12,,,,,,,,,,,,,,f,15,A,A,29,1,Correct!,0.3194997999817133,2005.540888299991,None,2005.540888299991,None,2005.8908697000006,None,,,,,113,001,2023-10-10_12h02.42.800,colored_shuffled,2021.2.3,59.99455250204282,
C:\Users\subject\Desktop\SVRT Experiments\SVRT Experiment 3\svrt_images\generated_images\results_problem_15,,C:\Users\subject\Desktop\SVRT Experiments\SVRT Experiment 3\svrt_images\generated_images\results_problem_15\sample_1_0004.png,,,,,,,,,,,,,,,,,,,,,,0,1,1,1,0,13,13,13,,,,,,,,,,,,,,f,15,A,A,29,1,Correct!,0.13079470000229776,2007.0575424999697,None,2007.0575424999697,None,2007.2075194999925,None,,,,,113,001,2023-10-10_12h02.42.800,colored_shuffled,2021.2.3,59.99455250204282,
C:\Users\subject\Desktop\SVRT Experiments\SVRT Experiment 3\svrt_images\generated_images\results_problem_15,,C:\Users\subject\Desktop\SVRT Experiments\SVRT Experiment 3\svrt_images\generated_images\results_problem_15\sample_1_0007.png,,,,,,,,,,,,,,,,,,,,,,0,1,1,1,0,14,14,14,,,,,,,,,,,,,,f,15,A,A,29,1,Correct!,0.04611920000752434,2008.3741602000082,None,2008.3741602000082,None,2008.4575021999772,None,,,,,113,001,2023-10-10_12h02.42.800,colored_shuffled,2021.2.3,59.99455250204282,
C:\Users\subject\Desktop\SVRT Experiments\SVRT Experiment 3\svrt_images\generated_images\results_problem_15,,C:\Users\subject\Desktop\SVRT Experiments\SVRT Experiment 3\svrt_images\generated_images\results_problem_15\sample_0_0008.png,,,,,,,,,,,,,,,,,,,,,,0,1,1,1,0,15,15,15,,,,,,,,,,,,,,j,15,B,B,29,1,Correct!,0.3633286000113003,2009.6408199999714,None,2009.6408199999714,None,2010.024131699989,None,,,,,113,001,2023-10-10_12h02.42.800,colored_shuffled,2021.2.3,59.99455250204282,
C:\Users\subject\Desktop\SVRT Experiments\SVRT Experiment 3\svrt_images\generated_images\results_problem_15,,C:\Users\subject\Desktop\SVRT Experiments\SVRT Experiment 3\svrt_images\generated_images\results_problem_15\sample_0_0015.png,,,,,,,,,,,,,,,,,,,,,,0,1,1,1,0,16,16,16,,,,,,,,,,,,,,j,15,B,B,29,1,Correct!,0.09209029999328777,2011.224133300013,None,2011.224133300013,None,2011.3407918000012,None,,,,,113,001,2023-10-10_12h02.42.800,colored_shuffled,2021.2.3,59.99455250204282,
C:\Users\subject\Desktop\SVRT Experiments\SVRT Experiment 3\svrt_images\generated_images\results_problem_15,,C:\Users\subject\Desktop\SVRT Experiments\SVRT Experiment 3\svrt_images\generated_images\results_problem_15\sample_0_0006.png,,,,,,,,,,,,,,,,,,,,,,0,1,1,1,0,17,17,17,,,,,,,,,,,,,,j,15,B,B,29,1,Correct!,0.14277399994898587,2012.5574454999878,None,2012.5574454999878,None,2012.7240520999767,None,,,,,113,001,2023-10-10_12h02.42.800,colored_shuffled,2021.2.3,59.99455250204282,
C:\Users\subject\Desktop\SVRT Experiments\SVRT Experiment 3\svrt_images\generated_images\results_problem_15,,C:\Users\subject\Desktop\SVRT Experiments\SVRT Experiment 3\svrt_images\generated_images\results_problem_15\sample_0_0010.png,,,,,,,,,,,,,,,,,,,,,,0,1,1,1,0,18,18,18,,,,,,,,,,,,,,j,15,B,B,29,1,Correct!,0.1348537000012584,2013.9574191999855,None,2013.9574191999855,None,2014.1240311000147,None,,,,,113,001,2023-10-10_12h02.42.800,colored_shuffled,2021.2.3,59.99455250204282,
C:\Users\subject\Desktop\SVRT Experiments\SVRT Experiment 3\svrt_images\generated_images\results_problem_15,,C:\Users\subject\Desktop\SVRT Experiments\SVRT Experiment 3\svrt_images\generated_images\results_problem_15\sample_0_0003.png,,,,,,,,,,,,,,,,,,,,,,0,1,1,1,0,19,19,19,,,,,,,,,,,,,,,,,,,,,,,,,,,,2015.1239961999818,2015.1239961999818,space,0.7842351999715902,113,001,2023-10-10_12h02.42.800,colored_shuffled,2021.2.3,59.99455250204282,
C:\Users\subject\Desktop\SVRT Experiments\SVRT Experiment 3\svrt_images\generated_images\results_problem_8,,C:\Users\subject\Desktop\SVRT Experiments\SVRT Experiment 3\svrt_images\generated_images\results_problem_15\sample_0_0003.png,C:\Users\subject\Desktop\SVRT Experiments\SVRT Experiment 3\svrt_images\generated_images\results_problem_8\sample_1_0010.png,,,,,,,,,,,,,,,,,,,,,0,2,2,2,0,0,0,0,,,,,,,,,,,,,,j,8,B,A,29,0,Incorrect!,6.191517599974759,2015.940698099963,None,2015.940698099963,None,2022.157277399965,None,,,,,113,001,2023-10-10_12h02.42.800,colored_shuffled,2021.2.3,59.99455250204282,
C:\Users\subject\Desktop\SVRT Experiments\SVRT Experiment 3\svrt_images\generated_images\results_problem_8,,C:\Users\subject\Desktop\SVRT Experiments\SVRT Experiment 3\svrt_images\generated_images\results_problem_15\sample_0_0003.png,C:\Users\subject\Desktop\SVRT Experiments\SVRT Experiment 3\svrt_images\generated_images\results_problem_8\sample_1_0003.png,,,,,,,,,,,,,,,,,,,,,0,2,2,2,0,1,1,1,,,,,,,,,,,,,,f,8,A,A,29,1,Correct!,1.7022070999955758,2023.1739690999966,None,2023.1739690999966,None,2024.9072431999957,None,,,,,113,001,2023-10-10_12h02.42.800,colored_shuffled,2021.2.3,59.99455250204282,
C:\Users\subject\Desktop\SVRT Experiments\SVRT Experiment 3\svrt_images\generated_images\results_problem_8,,C:\Users\subject\Desktop\SVRT Experiments\SVRT Experiment 3\svrt_images\generated_images\results_problem_15\sample_0_0003.png,C:\Users\subject\Desktop\SVRT Experiments\SVRT Experiment 3\svrt_images\generated_images\results_problem_8\sample_0_0013.png,,,,,,,,,,,,,,,,,,,,,0,2,2,2,0,2,2,2,,,,,,,,,,,,,,f,8,A,B,29,0,Incorrect!,0.38432419998571277,2025.9238916999893,None,2025.9238916999893,None,2026.3405452999868,None,,,,,113,001,2023-10-10_12h02.42.800,colored_shuffled,2021.2.3,59.99455250204282,
C:\Users\subject\Desktop\SVRT Experiments\SVRT Experiment 3\svrt_images\generated_images\results_problem_8,,C:\Users\subject\Desktop\SVRT Experiments\SVRT Experiment 3\svrt_images\generated_images\results_problem_15\sample_0_0003.png,C:\Users\subject\Desktop\SVRT Experiments\SVRT Experiment 3\svrt_images\generated_images\results_problem_8\sample_1_0006.png,,,,,,,,,,,,,,,,,,,,,0,2,2,2,0,3,3,3,,,,,,,,,,,,,,f,8,A,A,29,1,Correct!,0.2622956999693997,2027.3739049999858,None,2027.3739049999858,None,2027.657188799989,None,,,,,113,001,2023-10-10_12h02.42.800,colored_shuffled,2021.2.3,59.99455250204282,
C:\Users\subject\Desktop\SVRT Experiments\SVRT Experiment 3\svrt_images\generated_images\results_problem_8,,C:\Users\subject\Desktop\SVRT Experiments\SVRT Experiment 3\svrt_images\generated_images\results_problem_15\sample_0_0003.png,C:\Users\subject\Desktop\SVRT Experiments\SVRT Experiment 3\svrt_images\generated_images\results_problem_8\sample_1_0009.png,,,,,,,,,,,,,,,,,,,,,0,2,2,2,0,4,4,4,,,,,,,,,,,,,,f,8,A,A,29,1,Correct!,0.2971448000171222,2028.7071863000165,None,2028.7071863000165,None,2029.0238436000072,None,,,,,113,001,2023-10-10_12h02.42.800,colored_shuffled,2021.2.3,59.99455250204282,
C:\Users\subject\Desktop\SVRT Experiments\SVRT Experiment 3\svrt_images\generated_images\results_problem_8,,C:\Users\subject\Desktop\SVRT Experiments\SVRT Experiment 3\svrt_images\generated_images\results_problem_15\sample_0_0003.png,C:\Users\subject\Desktop\SVRT Experiments\SVRT Experiment 3\svrt_images\generated_images\results_problem_8\sample_0_0004.png,,,,,,,,,,,,,,,,,,,,,0,2,2,2,0,5,5,5,,,,,,,,,,,,,,f,8,A,B,29,0,Incorrect!,0.322473100037314,2030.0738266999833,None,2030.0738266999833,None,2030.423820499971,None,,,,,113,001,2023-10-10_12h02.42.800,colored_shuffled,2021.2.3,59.99455250204282,
C:\Users\subject\Desktop\SVRT Experiments\SVRT Experiment 3\svrt_images\generated_images\results_problem_8,,C:\Users\subject\Desktop\SVRT Experiments\SVRT Experiment 3\svrt_images\generated_images\results_problem_15\sample_0_0003.png,C:\Users\subject\Desktop\SVRT Experiments\SVRT Experiment 3\svrt_images\generated_images\results_problem_8\sample_0_0012.png,,,,,,,,,,,,,,,,,,,,,0,2,2,2,0,6,6,6,,,,,,,,,,,,,,j,8,B,B,29,1,Correct!,0.31377400003839284,2031.4904755000025,None,2031.4904755000025,None,2031.8237992000068,None,,,,,113,001,2023-10-10_12h02.42.800,colored_shuffled,2021.2.3,59.99455250204282,
C:\Users\subject\Desktop\SVRT Experiments\SVRT Experiment 3\svrt_images\generated_images\results_problem_8,,C:\Users\subject\Desktop\SVRT Experiments\SVRT Experiment 3\svrt_images\generated_images\results_problem_15\sample_0_0003.png,C:\Users\subject\Desktop\SVRT Experiments\SVRT Experiment 3\svrt_images\generated_images\results_problem_8\sample_0_0016.png,,,,,,,,,,,,,,,,,,,,,0,2,2,2,0,7,7,7,,,,,,,,,,,,,,j,8,B,B,29,1,Correct!,0.3130018999800086,2032.9072757000104,None,2032.9072757000104,None,2033.2404647999792,None,,,,,113,001,2023-10-10_12h02.42.800,colored_shuffled,2021.2.3,59.99455250204282,
C:\Users\subject\Desktop\SVRT Experiments\SVRT Experiment 3\svrt_images\generated_images\results_problem_8,,C:\Users\subject\Desktop\SVRT Experiments\SVRT Experiment 3\svrt_images\generated_images\results_problem_15\sample_0_0003.png,C:\Users\subject\Desktop\SVRT Experiments\SVRT Experiment 3\svrt_images\generated_images\results_problem_8\sample_0_0010.png,,,,,,,,,,,,,,,,,,,,,0,2,2,2,0,8,8,8,,,,,,,,,,,,,,j,8,B,B,29,1,Correct!,0.25580589997116476,2034.3404290999752,None,2034.3404290999752,None,2034.6237507999758,None,,,,,113,001,2023-10-10_12h02.42.800,colored_shuffled,2021.2.3,59.99455250204282,
C:\Users\subject\Desktop\SVRT Experiments\SVRT Experiment 3\svrt_images\generated_images\results_problem_8,,C:\Users\subject\Desktop\SVRT Experiments\SVRT Experiment 3\svrt_images\generated_images\results_problem_15\sample_0_0003.png,C:\Users\subject\Desktop\SVRT Experiments\SVRT Experiment 3\svrt_images\generated_images\results_problem_8\sample_0_0009.png,,,,,,,,,,,,,,,,,,,,,0,2,2,2,0,9,9,9,,,,,,,,,,,,,,f,8,A,B,29,0,Incorrect!,0.44855879998067394,2035.7237458999734,None,2035.7237458999734,None,2036.190396799997,None,,,,,113,001,2023-10-10_12h02.42.800,colored_shuffled,2021.2.3,59.99455250204282,
C:\Users\subject\Desktop\SVRT Experiments\SVRT Experiment 3\svrt_images\generated_images\results_problem_8,,C:\Users\subject\Desktop\SVRT Experiments\SVRT Experiment 3\svrt_images\generated_images\results_problem_15\sample_0_0003.png,C:\Users\subject\Desktop\SVRT Experiments\SVRT Experiment 3\svrt_images\generated_images\results_problem_8\sample_0_0008.png,,,,,,,,,,,,,,,,,,,,,0,2,2,2,0,10,10,10,,,,,,,,,,,,,,j,8,B,B,29,1,Correct!,0.1772480999934487,2037.3070067999652,None,2037.3070067999652,None,2037.507005499967,None,,,,,113,001,2023-10-10_12h02.42.800,colored_shuffled,2021.2.3,59.99455250204282,
C:\Users\subject\Desktop\SVRT Experiments\SVRT Experiment 3\svrt_images\generated_images\results_problem_8,,C:\Users\subject\Desktop\SVRT Experiments\SVRT Experiment 3\svrt_images\generated_images\results_problem_15\sample_0_0003.png,C:\Users\subject\Desktop\SVRT Experiments\SVRT Experiment 3\svrt_images\generated_images\results_problem_8\sample_0_0001.png,,,,,,,,,,,,,,,,,,,,,0,2,2,2,0,11,11,11,,,,,,,,,,,,,,j,8,B,B,29,1,Correct!,0.2438325000111945,2038.6403728000005,None,2038.6403728000005,None,2038.9236896999646,None,,,,,113,001,2023-10-10_12h02.42.800,colored_shuffled,2021.2.3,59.99455250204282,
C:\Users\subject\Desktop\SVRT Experiments\SVRT Experiment 3\svrt_images\generated_images\results_problem_8,,C:\Users\subject\Desktop\SVRT Experiments\SVRT Experiment 3\svrt_images\generated_images\results_problem_15\sample_0_0003.png,C:\Users\subject\Desktop\SVRT Experiments\SVRT Experiment 3\svrt_images\generated_images\results_problem_8\sample_0_0005.png,,,,,,,,,,,,,,,,,,,,,0,2,2,2,0,12,12,12,,,,,,,,,,,,,,j,8,B,B,29,1,Correct!,0.3705654999939725,2040.0736877999734,None,2040.0736877999734,None,2040.490335599985,None,,,,,113,001,2023-10-10_12h02.42.800,colored_shuffled,2021.2.3,59.99455250204282,
C:\Users\subject\Desktop\SVRT Experiments\SVRT Experiment 3\svrt_images\generated_images\results_problem_8,,C:\Users\subject\Desktop\SVRT Experiments\SVRT Experiment 3\svrt_images\generated_images\results_problem_15\sample_0_0003.png,C:\Users\subject\Desktop\SVRT Experiments\SVRT Experiment 3\svrt_images\generated_images\results_problem_8\sample_1_0014.png,,,,,,,,,,,,,,,,,,,,,0,2,2,2,0,13,13,13,,,,,,,,,,,,,,j,8,B,A,29,0,Incorrect!,0.17916990001685917,2041.657014299999,None,2041.657014299999,None,2041.8736702000024,None,,,,,113,001,2023-10-10_12h02.42.800,colored_shuffled,2021.2.3,59.99455250204282,
C:\Users\subject\Desktop\SVRT Experiments\SVRT Experiment 3\svrt_images\generated_images\results_problem_8,,C:\Users\subject\Desktop\SVRT Experiments\SVRT Experiment 3\svrt_images\generated_images\results_problem_15\sample_0_0003.png,C:\Users\subject\Desktop\SVRT Experiments\SVRT Experiment 3\svrt_images\generated_images\results_problem_8\sample_1_0002.png,,,,,,,,,,,,,,,,,,,,,0,2,2,2,0,14,14,14,,,,,,,,,,,,,,f,8,A,A,29,1,Correct!,0.2919207999948412,2043.0403271999676,None,2043.0403271999676,None,2043.3569880999858,None,,,,,113,001,2023-10-10_12h02.42.800,colored_shuffled,2021.2.3,59.99455250204282,
C:\Users\subject\Desktop\SVRT Experiments\SVRT Experiment 3\svrt_images\generated_images\results_problem_8,,C:\Users\subject\Desktop\SVRT Experiments\SVRT Experiment 3\svrt_images\generated_images\results_problem_15\sample_0_0003.png,C:\Users\subject\Desktop\SVRT Experiments\SVRT Experiment 3\svrt_images\generated_images\results_problem_8\sample_0_0000.png,,,,,,,,,,,,,,,,,,,,,0,2,2,2,0,15,15,15,,,,,,,,,,,,,,f,8,A,B,29,0,Incorrect!,0.3679116999846883,2044.5402828999795,None,2044.5402828999795,None,2044.9569420999615,None,,,,,113,001,2023-10-10_12h02.42.800,colored_shuffled,2021.2.3,59.99455250204282,
C:\Users\subject\Desktop\SVRT Experiments\SVRT Experiment 3\svrt_images\generated_images\results_problem_8,,C:\Users\subject\Desktop\SVRT Experiments\SVRT Experiment 3\svrt_images\generated_images\results_problem_15\sample_0_0003.png,C:\Users\subject\Desktop\SVRT Experiments\SVRT Experiment 3\svrt_images\generated_images\results_problem_8\sample_0_0014.png,,,,,,,,,,,,,,,,,,,,,0,2,2,2,0,16,16,16,,,,,,,,,,,,,,f,8,A,B,29,0,Incorrect!,0.2152753999689594,2046.1569925000076,None,2046.1569925000076,None,2046.4069236000068,None,,,,,113,001,2023-10-10_12h02.42.800,colored_shuffled,2021.2.3,59.99455250204282,
C:\Users\subject\Desktop\SVRT Experiments\SVRT Experiment 3\svrt_images\generated_images\results_problem_8,,C:\Users\subject\Desktop\SVRT Experiments\SVRT Experiment 3\svrt_images\generated_images\results_problem_15\sample_0_0003.png,C:\Users\subject\Desktop\SVRT Experiments\SVRT Experiment 3\svrt_images\generated_images\results_problem_8\sample_0_0006.png,,,,,,,,,,,,,,,,,,,,,0,2,2,2,0,17,17,17,,,,,,,,,,,,,,j,8,B,B,29,1,Correct!,0.22070639999583364,2047.6235654999618,None,2047.6235654999618,None,2047.890220500005,None,,,,,113,001,2023-10-10_12h02.42.800,colored_shuffled,2021.2.3,59.99455250204282,
C:\Users\subject\Desktop\SVRT Experiments\SVRT Experiment 3\svrt_images\generated_images\results_problem_8,,C:\Users\subject\Desktop\SVRT Experiments\SVRT Experiment 3\svrt_images\generated_images\results_problem_15\sample_0_0003.png,C:\Users\subject\Desktop\SVRT Experiments\SVRT Experiment 3\svrt_images\generated_images\results_problem_8\sample_1_0016.png,,,,,,,,,,,,,,,,,,,,,0,2,2,2,0,18,18,18,,,,,,,,,,,,,,f,8,A,A,29,1,Correct!,0.488707099983003,2049.1235321999993,None,2049.1235321999993,None,2049.6401916000177,None,,,,,113,001,2023-10-10_12h02.42.800,colored_shuffled,2021.2.3,59.99455250204282,
C:\Users\subject\Desktop\SVRT Experiments\SVRT Experiment 3\svrt_images\generated_images\results_problem_8,,C:\Users\subject\Desktop\SVRT Experiments\SVRT Experiment 3\svrt_images\generated_images\results_problem_15\sample_0_0003.png,C:\Users\subject\Desktop\SVRT Experiments\SVRT Experiment 3\svrt_images\generated_images\results_problem_8\sample_1_0001.png,,,,,,,,,,,,,,,,,,,,,0,2,2,2,0,19,19,19,,,,,,,,,,,,,,f,8,A,A,29,1,Correct!,9.929933000006713,2050.8902040999965,None,2050.8902040999965,None,2060.8567088000127,None,,,,,113,001,2023-10-10_12h02.42.800,colored_shuffled,2021.2.3,59.99455250204282,
C:\Users\subject\Desktop\SVRT Experiments\SVRT Experiment 3\svrt_images\generated_images\results_problem_8,,C:\Users\subject\Desktop\SVRT Experiments\SVRT Experiment 3\svrt_images\generated_images\results_problem_15\sample_0_0003.png,C:\Users\subject\Desktop\SVRT Experiments\SVRT Experiment 3\svrt_images\generated_images\results_problem_8\sample_1_0011.png,,,,,,,,,,,,,,,,,,,,,0,2,2,2,0,20,20,20,,,,,,,,,,,,,,j,8,B,A,29,0,Incorrect!,0.27299759996822104,2062.1233525999705,None,2062.1233525999705,None,2062.439973899978,None,,,,,113,001,2023-10-10_12h02.42.800,colored_shuffled,2021.2.3,59.99455250204282,
C:\Users\subject\Desktop\SVRT Experiments\SVRT Experiment 3\svrt_images\generated_images\results_problem_8,,C:\Users\subject\Desktop\SVRT Experiments\SVRT Experiment 3\svrt_images\generated_images\results_problem_15\sample_0_0003.png,C:\Users\subject\Desktop\SVRT Experiments\SVRT Experiment 3\svrt_images\generated_images\results_problem_8\sample_1_0000.png,,,,,,,,,,,,,,,,,,,,,0,2,2,2,0,21,21,21,,,,,,,,,,,,,,f,8,A,A,29,1,Correct!,0.40906719997292385,2063.723324099963,None,2063.723324099963,None,2064.189969500003,None,,,,,113,001,2023-10-10_12h02.42.800,colored_shuffled,2021.2.3,59.99455250204282,
C:\Users\subject\Desktop\SVRT Experiments\SVRT Experiment 3\svrt_images\generated_images\results_problem_8,,C:\Users\subject\Desktop\SVRT Experiments\SVRT Experiment 3\svrt_images\generated_images\results_problem_15\sample_0_0003.png,C:\Users\subject\Desktop\SVRT Experiments\SVRT Experiment 3\svrt_images\generated_images\results_problem_8\sample_1_0007.png,,,,,,,,,,,,,,,,,,,,,0,2,2,2,0,22,22,22,,,,,,,,,,,,,,f,8,A,A,29,1,Correct!,0.37839440000243485,2065.4899648000137,None,2065.4899648000137,None,2065.906608999998,None,,,,,113,001,2023-10-10_12h02.42.800,colored_shuffled,2021.2.3,59.99455250204282,
C:\Users\subject\Desktop\SVRT Experiments\SVRT Experiment 3\svrt_images\generated_images\results_problem_8,,C:\Users\subject\Desktop\SVRT Experiments\SVRT Experiment 3\svrt_images\generated_images\results_problem_15\sample_0_0003.png,C:\Users\subject\Desktop\SVRT Experiments\SVRT Experiment 3\svrt_images\generated_images\results_problem_8\sample_1_0013.png,,,,,,,,,,,,,,,,,,,,,0,2,2,2,0,23,23,23,,,,,,,,,,,,,,j,8,B,A,29,0,Incorrect!,0.2690761999692768,2067.2232732999837,None,2067.2232732999837,None,2067.5734439999796,None,,,,,113,001,2023-10-10_12h02.42.800,colored_shuffled,2021.2.3,59.99455250204282,
C:\Users\subject\Desktop\SVRT Experiments\SVRT Experiment 3\svrt_images\generated_images\results_problem_8,,C:\Users\subject\Desktop\SVRT Experiments\SVRT Experiment 3\svrt_images\generated_images\results_problem_15\sample_0_0003.png,C:\Users\subject\Desktop\SVRT Experiments\SVRT Experiment 3\svrt_images\generated_images\results_problem_8\sample_1_0015.png,,,,,,,,,,,,,,,,,,,,,0,2,2,2,0,24,24,24,,,,,,,,,,,,,,f,8,A,A,29,1,Correct!,0.2577146000112407,2068.9065779999946,None,2068.9065779999946,None,2069.1898983999854,None,,,,,113,001,2023-10-10_12h02.42.800,colored_shuffled,2021.2.3,59.99455250204282,
C:\Users\subject\Desktop\SVRT Experiments\SVRT Experiment 3\svrt_images\generated_images\results_problem_8,,C:\Users\subject\Desktop\SVRT Experiments\SVRT Experiment 3\svrt_images\generated_images\results_problem_15\sample_0_0003.png,C:\Users\subject\Desktop\SVRT Experiments\SVRT Experiment 3\svrt_images\generated_images\results_problem_8\sample_0_0015.png,,,,,,,,,,,,,,,,,,,,,0,2,2,2,0,25,25,25,,,,,,,,,,,,,,f,8,A,B,29,0,Incorrect!,0.2729510000208393,2070.5232404000126,None,2070.5232404000126,None,2070.8731913999654,None,,,,,113,001,2023-10-10_12h02.42.800,colored_shuffled,2021.2.3,59.99455250204282,
C:\Users\subject\Desktop\SVRT Experiments\SVRT Experiment 3\svrt_images\generated_images\results_problem_8,,C:\Users\subject\Desktop\SVRT Experiments\SVRT Experiment 3\svrt_images\generated_images\results_problem_15\sample_0_0003.png,C:\Users\subject\Desktop\SVRT Experiments\SVRT Experiment 3\svrt_images\generated_images\results_problem_8\sample_0_0003.png,,,,,,,,,,,,,,,,,,,,,0,2,2,2,0,26,26,26,,,,,,,,,,,,,,f,8,A,B,29,0,Incorrect!,0.25241580000147223,2072.2398799000075,None,2072.2398799000075,None,2072.58984109998,None,,,,,113,001,2023-10-10_12h02.42.800,colored_shuffled,2021.2.3,59.99455250204282,
C:\Users\subject\Desktop\SVRT Experiments\SVRT Experiment 3\svrt_images\generated_images\results_problem_8,,C:\Users\subject\Desktop\SVRT Experiments\SVRT Experiment 3\svrt_images\generated_images\results_problem_15\sample_0_0003.png,C:\Users\subject\Desktop\SVRT Experiments\SVRT Experiment 3\svrt_images\generated_images\results_problem_8\sample_0_0011.png,,,,,,,,,,,,,,,,,,,,,0,2,2,2,0,27,27,27,,,,,,,,,,,,,,f,8,A,B,29,0,Incorrect!,2.6630260000238195,2073.9731765000033,None,2073.9731765000033,None,2076.6564885000116,None,,,,,113,001,2023-10-10_12h02.42.800,colored_shuffled,2021.2.3,59.99455250204282,
C:\Users\subject\Desktop\SVRT Experiments\SVRT Experiment 3\svrt_images\generated_images\results_problem_8,,C:\Users\subject\Desktop\SVRT Experiments\SVRT Experiment 3\svrt_images\generated_images\results_problem_15\sample_0_0003.png,C:\Users\subject\Desktop\SVRT Experiments\SVRT Experiment 3\svrt_images\generated_images\results_problem_8\sample_0_0007.png,,,,,,,,,,,,,,,,,,,,,0,2,2,2,0,28,28,28,,,,,,,,,,,,,,j,8,B,B,29,1,Correct!,0.23637629998847842,2078.0397906000144,None,2078.0397906000144,None,2078.306427899981,None,,,,,113,001,2023-10-10_12h02.42.800,colored_shuffled,2021.2.3,59.99455250204282,
C:\Users\subject\Desktop\SVRT Experiments\SVRT Experiment 3\svrt_images\generated_images\results_problem_8,,C:\Users\subject\Desktop\SVRT Experiments\SVRT Experiment 3\svrt_images\generated_images\results_problem_15\sample_0_0003.png,C:\Users\subject\Desktop\SVRT Experiments\SVRT Experiment 3\svrt_images\generated_images\results_problem_8\sample_1_0012.png,,,,,,,,,,,,,,,,,,,,,0,2,2,2,0,29,29,29,,,,,,,,,,,,,,j,8,B,A,29,0,Incorrect!,0.2178212000289932,2079.706436700013,None,2079.706436700013,None,2080.006389099988,None,,,,,113,001,2023-10-10_12h02.42.800,colored_shuffled,2021.2.3,59.99455250204282,
C:\Users\subject\Desktop\SVRT Experiments\SVRT Experiment 3\svrt_images\generated_images\results_problem_8,,C:\Users\subject\Desktop\SVRT Experiments\SVRT Experiment 3\svrt_images\generated_images\results_problem_15\sample_0_0003.png,C:\Users\subject\Desktop\SVRT Experiments\SVRT Experiment 3\svrt_images\generated_images\results_problem_8\sample_1_0005.png,,,,,,,,,,,,,,,,,,,,,0,2,2,2,0,30,30,30,,,,,,,,,,,,,,f,8,A,A,29,1,Correct!,0.2788888000068255,2081.5572956000105,None,2081.5572956000105,None,2081.8729767000186,None,,,,,113,001,2023-10-10_12h02.42.800,colored_shuffled,2021.2.3,59.99455250204282,
C:\Users\subject\Desktop\SVRT Experiments\SVRT Experiment 3\svrt_images\generated_images\results_problem_8,,C:\Users\subject\Desktop\SVRT Experiments\SVRT Experiment 3\svrt_images\generated_images\results_problem_15\sample_0_0003.png,C:\Users\subject\Desktop\SVRT Experiments\SVRT Experiment 3\svrt_images\generated_images\results_problem_8\sample_0_0002.png,,,,,,,,,,,,,,,,,,,,,0,2,2,2,0,31,31,31,,,,,,,,,,,,,,f,8,A,B,29,0,Incorrect!,0.24187310005072504,2083.306360699993,None,2083.306360699993,None,2083.623039399972,None,,,,,113,001,2023-10-10_12h02.42.800,colored_shuffled,2021.2.3,59.99455250204282,
C:\Users\subject\Desktop\SVRT Experiments\SVRT Experiment 3\svrt_images\generated_images\results_problem_8,,C:\Users\subject\Desktop\SVRT Experiments\SVRT Experiment 3\svrt_images\generated_images\results_problem_15\sample_0_0003.png,C:\Users\subject\Desktop\SVRT Experiments\SVRT Experiment 3\svrt_images\generated_images\results_problem_8\sample_1_0004.png,,,,,,,,,,,,,,,,,,,,,0,2,2,2,0,32,32,32,,,,,,,,,,,,,,f,8,A,A,29,1,Correct!,0.5313406999921426,2085.073006099963,None,2085.073006099963,None,2085.656311300001,None,,,,,113,001,2023-10-10_12h02.42.800,colored_shuffled,2021.2.3,59.99455250204282,
C:\Users\subject\Desktop\SVRT Experiments\SVRT Experiment 3\svrt_images\generated_images\results_problem_8,,C:\Users\subject\Desktop\SVRT Experiments\SVRT Experiment 3\svrt_images\generated_images\results_problem_15\sample_0_0003.png,C:\Users\subject\Desktop\SVRT Experiments\SVRT Experiment 3\svrt_images\generated_images\results_problem_8\sample_1_0008.png,,,,,,,,,,,,,,,,,,,,,0,2,2,2,0,33,33,33,,,,,,,,,,,,,,j,8,B,A,29,0,Incorrect!,0.0965112000121735,2087.1396716000163,None,2087.1396716000163,None,2087.272961599985,None,,,,,113,001,2023-10-10_12h02.42.800,colored_shuffled,2021.2.3,59.99455250204282,
C:\Users\subject\Desktop\SVRT Experiments\SVRT Experiment 3\svrt_images\generated_images\results_problem_8,,C:\Users\subject\Desktop\SVRT Experiments\SVRT Experiment 3\svrt_images\generated_images\results_problem_15\sample_0_0003.png,,,,,,,,,,,,,,,,,,,,,,0,2,2,2,0,19,19,19,,,,,,,,,,,,,,,,,,,,,,,,,,,,2088.2729490000056,2088.2729490000056,space,1.1791745999944396,113,001,2023-10-10_12h02.42.800,colored_shuffled,2021.2.3,59.99455250204282,
C:\Users\subject\Desktop\SVRT Experiments\SVRT Experiment 3\svrt_images\generated_images\results_problem_13,,C:\Users\subject\Desktop\SVRT Experiments\SVRT Experiment 3\svrt_images\generated_images\results_problem_15\sample_0_0003.png,,C:\Users\subject\Desktop\SVRT Experiments\SVRT Experiment 3\svrt_images\generated_images\results_problem_13\sample_0_0016.png,,,,,,,,,,,,,,,,,,,,0,3,3,3,0,0,0,0,,,,,,,,,,,,,,f,13,A,B,29,0,Incorrect!,1.0272051999927498,2089.4729324000073,None,2089.4729324000073,None,2090.5229476999957,None,,,,,113,001,2023-10-10_12h02.42.800,colored_shuffled,2021.2.3,59.99455250204282,
C:\Users\subject\Desktop\SVRT Experiments\SVRT Experiment 3\svrt_images\generated_images\results_problem_13,,C:\Users\subject\Desktop\SVRT Experiments\SVRT Experiment 3\svrt_images\generated_images\results_problem_15\sample_0_0003.png,,C:\Users\subject\Desktop\SVRT Experiments\SVRT Experiment 3\svrt_images\generated_images\results_problem_13\sample_0_0004.png,,,,,,,,,,,,,,,,,,,,0,3,3,3,0,1,1,1,,,,,,,,,,,,,,j,13,B,B,29,1,Correct!,0.32058180001331493,2091.5395688000135,None,2091.5395688000135,None,2091.8895568000153,None,,,,,113,001,2023-10-10_12h02.42.800,colored_shuffled,2021.2.3,59.99455250204282,
C:\Users\subject\Desktop\SVRT Experiments\SVRT Experiment 3\svrt_images\generated_images\results_problem_13,,C:\Users\subject\Desktop\SVRT Experiments\SVRT Experiment 3\svrt_images\generated_images\results_problem_15\sample_0_0003.png,,C:\Users\subject\Desktop\SVRT Experiments\SVRT Experiment 3\svrt_images\generated_images\results_problem_13\sample_0_0005.png,,,,,,,,,,,,,,,,,,,,0,3,3,3,0,2,2,2,,,,,,,,,,,,,,f,13,A,B,29,0,Incorrect!,0.3138755999971181,2092.9061945999856,None,2092.9061945999856,None,2093.239530199964,None,,,,,113,001,2023-10-10_12h02.42.800,colored_shuffled,2021.2.3,59.99455250204282,
C:\Users\subject\Desktop\SVRT Experiments\SVRT Experiment 3\svrt_images\generated_images\results_problem_13,,C:\Users\subject\Desktop\SVRT Experiments\SVRT Experiment 3\svrt_images\generated_images\results_problem_15\sample_0_0003.png,,C:\Users\subject\Desktop\SVRT Experiments\SVRT Experiment 3\svrt_images\generated_images\results_problem_13\sample_0_0006.png,,,,,,,,,,,,,,,,,,,,0,3,3,3,0,3,3,3,,,,,,,,,,,,,,f,13,A,B,29,0,Incorrect!,0.31529579998459667,2094.2728508000146,None,2094.2728508000146,None,2094.6061812000116,None,,,,,113,001,2023-10-10_12h02.42.800,colored_shuffled,2021.2.3,59.99455250204282,
C:\Users\subject\Desktop\SVRT Experiments\SVRT Experiment 3\svrt_images\generated_images\results_problem_13,,C:\Users\subject\Desktop\SVRT Experiments\SVRT Experiment 3\svrt_images\generated_images\results_problem_15\sample_0_0003.png,,C:\Users\subject\Desktop\SVRT Experiments\SVRT Experiment 3\svrt_images\generated_images\results_problem_13\sample_0_0011.png,,,,,,,,,,,,,,,,,,,,0,3,3,3,0,4,4,4,,,,,,,,,,,,,,j,13,B,B,29,1,Correct!,0.9560202999855392,2095.656175800017,None,2095.656175800017,None,2096.639614499989,None,,,,,113,001,2023-10-10_12h02.42.800,colored_shuffled,2021.2.3,59.99455250204282,
C:\Users\subject\Desktop\SVRT Experiments\SVRT Experiment 3\svrt_images\generated_images\results_problem_13,,C:\Users\subject\Desktop\SVRT Experiments\SVRT Experiment 3\svrt_images\generated_images\results_problem_15\sample_0_0003.png,,C:\Users\subject\Desktop\SVRT Experiments\SVRT Experiment 3\svrt_images\generated_images\results_problem_13\sample_1_0001.png,,,,,,,,,,,,,,,,,,,,0,3,3,3,0,5,5,5,,,,,,,,,,,,,,j,13,B,A,29,0,Incorrect!,0.35469230002490804,2097.6894500000053,None,2097.6894500000053,None,2098.0727809999953,None,,,,,113,001,2023-10-10_12h02.42.800,colored_shuffled,2021.2.3,59.99455250204282,
C:\Users\subject\Desktop\SVRT Experiments\SVRT Experiment 3\svrt_images\generated_images\results_problem_13,,C:\Users\subject\Desktop\SVRT Experiments\SVRT Experiment 3\svrt_images\generated_images\results_problem_15\sample_0_0003.png,,C:\Users\subject\Desktop\SVRT Experiments\SVRT Experiment 3\svrt_images\generated_images\results_problem_13\sample_0_0010.png,,,,,,,,,,,,,,,,,,,,0,3,3,3,0,6,6,6,,,,,,,,,,,,,,f,13,A,B,29,0,Incorrect!,0.6163164000026882,2099.1401879999903,None,2099.1401879999903,None,2099.7894466000143,None,,,,,113,001,2023-10-10_12h02.42.800,colored_shuffled,2021.2.3,59.99455250204282,
C:\Users\subject\Desktop\SVRT Experiments\SVRT Experiment 3\svrt_images\generated_images\results_problem_13,,C:\Users\subject\Desktop\SVRT Experiments\SVRT Experiment 3\svrt_images\generated_images\results_problem_15\sample_0_0003.png,,C:\Users\subject\Desktop\SVRT Experiments\SVRT Experiment 3\svrt_images\generated_images\results_problem_13\sample_1_0010.png,,,,,,,,,,,,,,,,,,,,0,3,3,3,0,7,7,7,,,,,,,,,,,,,,j,13,B,A,29,0,Incorrect!,0.17938089999370277,2100.8727959999815,None,2100.8727959999815,None,2101.0727556999773,None,,,,,113,001,2023-10-10_12h02.42.800,colored_shuffled,2021.2.3,59.99455250204282,
C:\Users\subject\Desktop\SVRT Experiments\SVRT Experiment 3\svrt_images\generated_images\results_problem_13,,C:\Users\subject\Desktop\SVRT Experiments\SVRT Experiment 3\svrt_images\generated_images\results_problem_15\sample_0_0003.png,,C:\Users\subject\Desktop\SVRT Experiments\SVRT Experiment 3\svrt_images\generated_images\results_problem_13\sample_0_0013.png,,,,,,,,,,,,,,,,,,,,0,3,3,3,0,8,8,8,,,,,,,,,,,,,,f,13,A,B,29,0,Incorrect!,0.4153721000184305,2102.172753699997,None,2102.172753699997,None,2102.6060468999785,None,,,,,113,001,2023-10-10_12h02.42.800,colored_shuffled,2021.2.3,59.99455250204282,
C:\Users\subject\Desktop\SVRT Experiments\SVRT Experiment 3\svrt_images\generated_images\results_problem_13,,C:\Users\subject\Desktop\SVRT Experiments\SVRT Experiment 3\svrt_images\generated_images\results_problem_15\sample_0_0003.png,,C:\Users\subject\Desktop\SVRT Experiments\SVRT Experiment 3\svrt_images\generated_images\results_problem_13\sample_0_0000.png,,,,,,,,,,,,,,,,,,,,0,3,3,3,0,9,9,9,,,,,,,,,,,,,,j,13,B,B,29,1,Correct!,0.2341465000063181,2103.706018399971,None,2103.706018399971,None,2103.972688400012,None,,,,,113,001,2023-10-10_12h02.42.800,colored_shuffled,2021.2.3,59.99455250204282,
C:\Users\subject\Desktop\SVRT Experiments\SVRT Experiment 3\svrt_images\generated_images\results_problem_13,,C:\Users\subject\Desktop\SVRT Experiments\SVRT Experiment 3\svrt_images\generated_images\results_problem_15\sample_0_0003.png,,C:\Users\subject\Desktop\SVRT Experiments\SVRT Experiment 3\svrt_images\generated_images\results_problem_13\sample_1_0006.png,,,,,,,,,,,,,,,,,,,,0,3,3,3,0,10,10,10,,,,,,,,,,,,,,j,13,B,A,29,0,Incorrect!,0.01884889998473227,2105.089352299983,None,2105.089352299983,None,2105.1393331,None,,,,,113,001,2023-10-10_12h02.42.800,colored_shuffled,2021.2.3,59.99455250204282,
C:\Users\subject\Desktop\SVRT Experiments\SVRT Experiment 3\svrt_images\generated_images\results_problem_13,,C:\Users\subject\Desktop\SVRT Experiments\SVRT Experiment 3\svrt_images\generated_images\results_problem_15\sample_0_0003.png,,C:\Users\subject\Desktop\SVRT Experiments\SVRT Experiment 3\svrt_images\generated_images\results_problem_13\sample_1_0007.png,,,,,,,,,,,,,,,,,,,,0,3,3,3,0,11,11,11,,,,,,,,,,,,,,f,13,A,A,29,1,Correct!,0.13156770000932738,2106.272674800013,None,2106.272674800013,None,2106.422707599995,None,,,,,113,001,2023-10-10_12h02.42.800,colored_shuffled,2021.2.3,59.99455250204282,
C:\Users\subject\Desktop\SVRT Experiments\SVRT Experiment 3\svrt_images\generated_images\results_problem_13,,C:\Users\subject\Desktop\SVRT Experiments\SVRT Experiment 3\svrt_images\generated_images\results_problem_15\sample_0_0003.png,,C:\Users\subject\Desktop\SVRT Experiments\SVRT Experiment 3\svrt_images\generated_images\results_problem_13\sample_0_0012.png,,,,,,,,,,,,,,,,,,,,0,3,3,3,0,12,12,12,,,,,,,,,,,,,,f,13,A,B,29,0,Incorrect!,0.31140679999953136,2107.572718499985,None,2107.572718499985,None,2107.922651199973,None,,,,,113,001,2023-10-10_12h02.42.800,colored_shuffled,2021.2.3,59.99455250204282,
C:\Users\subject\Desktop\SVRT Experiments\SVRT Experiment 3\svrt_images\generated_images\results_problem_13,,C:\Users\subject\Desktop\SVRT Experiments\SVRT Experiment 3\svrt_images\generated_images\results_problem_15\sample_0_0003.png,,C:\Users\subject\Desktop\SVRT Experiments\SVRT Experiment 3\svrt_images\generated_images\results_problem_13\sample_1_0005.png,,,,,,,,,,,,,,,,,,,,0,3,3,3,0,13,13,13,,,,,,,,,,,,,,j,13,B,A,29,0,Incorrect!,0.19507419998990372,2109.089295899961,None,2109.089295899961,None,2109.305972800008,None,,,,,113,001,2023-10-10_12h02.42.800,colored_shuffled,2021.2.3,59.99455250204282,
C:\Users\subject\Desktop\SVRT Experiments\SVRT Experiment 3\svrt_images\generated_images\results_problem_13,,C:\Users\subject\Desktop\SVRT Experiments\SVRT Experiment 3\svrt_images\generated_images\results_problem_15\sample_0_0003.png,,C:\Users\subject\Desktop\SVRT Experiments\SVRT Experiment 3\svrt_images\generated_images\results_problem_13\sample_1_0008.png,,,,,,,,,,,,,,,,,,,,0,3,3,3,0,14,14,14,,,,,,,,,,,,,,f,13,A,A,29,1,Correct!,0.35549089999403805,2110.4726129999617,None,2110.4726129999617,None,2110.855935700005,None,,,,,113,001,2023-10-10_12h02.42.800,colored_shuffled,2021.2.3,59.99455250204282,
C:\Users\subject\Desktop\SVRT Experiments\SVRT Experiment 3\svrt_images\generated_images\results_problem_13,,C:\Users\subject\Desktop\SVRT Experiments\SVRT Experiment 3\svrt_images\generated_images\results_problem_15\sample_0_0003.png,,C:\Users\subject\Desktop\SVRT Experiments\SVRT Experiment 3\svrt_images\generated_images\results_problem_13\sample_1_0015.png,,,,,,,,,,,,,,,,,,,,0,3,3,3,0,15,15,15,,,,,,,,,,,,,,f,13,A,A,29,1,Correct!,0.061022099980618805,2112.0392562999623,None,2112.0392562999623,None,2112.122566599981,None,,,,,113,001,2023-10-10_12h02.42.800,colored_shuffled,2021.2.3,59.99455250204282,
C:\Users\subject\Desktop\SVRT Experiments\SVRT Experiment 3\svrt_images\generated_images\results_problem_13,,C:\Users\subject\Desktop\SVRT Experiments\SVRT Experiment 3\svrt_images\generated_images\results_problem_15\sample_0_0003.png,,C:\Users\subject\Desktop\SVRT Experiments\SVRT Experiment 3\svrt_images\generated_images\results_problem_13\sample_1_0011.png,,,,,,,,,,,,,,,,,,,,0,3,3,3,0,16,16,16,,,,,,,,,,,,,,f,13,A,A,29,1,Correct!,0.25767520000226796,2113.3225573999807,None,2113.3225573999807,None,2113.6059174999828,None,,,,,113,001,2023-10-10_12h02.42.800,colored_shuffled,2021.2.3,59.99455250204282,
C:\Users\subject\Desktop\SVRT Experiments\SVRT Experiment 3\svrt_images\generated_images\results_problem_13,,C:\Users\subject\Desktop\SVRT Experiments\SVRT Experiment 3\svrt_images\generated_images\results_problem_15\sample_0_0003.png,,C:\Users\subject\Desktop\SVRT Experiments\SVRT Experiment 3\svrt_images\generated_images\results_problem_13\sample_0_0009.png,,,,,,,,,,,,,,,,,,,,0,3,3,3,0,17,17,17,,,,,,,,,,,,,,f,13,A,B,29,0,Incorrect!,0.3175725999753922,2114.8225434999913,None,2114.8225434999913,None,2115.1891874999856,None,,,,,113,001,2023-10-10_12h02.42.800,colored_shuffled,2021.2.3,59.99455250204282,
C:\Users\subject\Desktop\SVRT Experiments\SVRT Experiment 3\svrt_images\generated_images\results_problem_13,,C:\Users\subject\Desktop\SVRT Experiments\SVRT Experiment 3\svrt_images\generated_images\results_problem_15\sample_0_0003.png,,C:\Users\subject\Desktop\SVRT Experiments\SVRT Experiment 3\svrt_images\generated_images\results_problem_13\sample_0_0008.png,,,,,,,,,,,,,,,,,,,,0,3,3,3,0,18,18,18,,,,,,,,,,,,,,j,13,B,B,29,1,Correct!,0.22968630003742874,2116.422526600014,None,2116.422526600014,None,2116.6891966999974,None,,,,,113,001,2023-10-10_12h02.42.800,colored_shuffled,2021.2.3,59.99455250204282,
C:\Users\subject\Desktop\SVRT Experiments\SVRT Experiment 3\svrt_images\generated_images\results_problem_13,,C:\Users\subject\Desktop\SVRT Experiments\SVRT Experiment 3\svrt_images\generated_images\results_problem_15\sample_0_0003.png,,C:\Users\subject\Desktop\SVRT Experiments\SVRT Experiment 3\svrt_images\generated_images\results_problem_13\sample_0_0007.png,,,,,,,,,,,,,,,,,,,,0,3,3,3,0,19,19,19,,,,,,,,,,,,,,f,13,A,B,29,0,Incorrect!,0.28092749998904765,2117.9392063000123,None,2117.9392063000123,None,2118.2558194000158,None,,,,,113,001,2023-10-10_12h02.42.800,colored_shuffled,2021.2.3,59.99455250204282,
C:\Users\subject\Desktop\SVRT Experiments\SVRT Experiment 3\svrt_images\generated_images\results_problem_13,,C:\Users\subject\Desktop\SVRT Experiments\SVRT Experiment 3\svrt_images\generated_images\results_problem_15\sample_0_0003.png,,C:\Users\subject\Desktop\SVRT Experiments\SVRT Experiment 3\svrt_images\generated_images\results_problem_13\sample_0_0001.png,,,,,,,,,,,,,,,,,,,,0,3,3,3,0,20,20,20,,,,,,,,,,,,,,j,13,B,B,29,1,Correct!,0.2577656999928877,2119.5224744000006,None,2119.5224744000006,None,2119.8391166999936,None,,,,,113,001,2023-10-10_12h02.42.800,colored_shuffled,2021.2.3,59.99455250204282,
C:\Users\subject\Desktop\SVRT Experiments\SVRT Experiment 3\svrt_images\generated_images\results_problem_13,,C:\Users\subject\Desktop\SVRT Experiments\SVRT Experiment 3\svrt_images\generated_images\results_problem_15\sample_0_0003.png,,C:\Users\subject\Desktop\SVRT Experiments\SVRT Experiment 3\svrt_images\generated_images\results_problem_13\sample_1_0014.png,,,,,,,,,,,,,,,,,,,,0,3,3,3,0,21,21,21,,,,,,,,,,,,,,j,13,B,A,29,0,Incorrect!,0.16975529998308048,2121.1224646999617,None,2121.1224646999617,None,2121.3391050999635,None,,,,,113,001,2023-10-10_12h02.42.800,colored_shuffled,2021.2.3,59.99455250204282,
C:\Users\subject\Desktop\SVRT Experiments\SVRT Experiment 3\svrt_images\generated_images\results_problem_13,,C:\Users\subject\Desktop\SVRT Experiments\SVRT Experiment 3\svrt_images\generated_images\results_problem_15\sample_0_0003.png,,C:\Users\subject\Desktop\SVRT Experiments\SVRT Experiment 3\svrt_images\generated_images\results_problem_13\sample_1_0004.png,,,,,,,,,,,,,,,,,,,,0,3,3,3,0,22,22,22,,,,,,,,,,,,,,f,13,A,A,29,1,Correct!,0.2851774000446312,2122.639095099992,None,2122.639095099992,None,2122.989036599989,None,,,,,113,001,2023-10-10_12h02.42.800,colored_shuffled,2021.2.3,59.99455250204282,
C:\Users\subject\Desktop\SVRT Experiments\SVRT Experiment 3\svrt_images\generated_images\results_problem_13,,C:\Users\subject\Desktop\SVRT Experiments\SVRT Experiment 3\svrt_images\generated_images\results_problem_15\sample_0_0003.png,,C:\Users\subject\Desktop\SVRT Experiments\SVRT Experiment 3\svrt_images\generated_images\results_problem_13\sample_1_0002.png,,,,,,,,,,,,,,,,,,,,0,3,3,3,0,23,23,23,,,,,,,,,,,,,,f,13,A,A,29,1,Correct!,0.39451810001628473,2124.3057512000087,None,2124.3057512000087,None,2124.7223909000168,None,,,,,113,001,2023-10-10_12h02.42.800,colored_shuffled,2021.2.3,59.99455250204282,
C:\Users\subject\Desktop\SVRT Experiments\SVRT Experiment 3\svrt_images\generated_images\results_problem_13,,C:\Users\subject\Desktop\SVRT Experiments\SVRT Experiment 3\svrt_images\generated_images\results_problem_15\sample_0_0003.png,,C:\Users\subject\Desktop\SVRT Experiments\SVRT Experiment 3\svrt_images\generated_images\results_problem_13\sample_1_0009.png,,,,,,,,,,,,,,,,,,,,0,3,3,3,0,24,24,24,,,,,,,,,,,,,,f,13,A,A,29,1,Correct!,0.26053599995793775,2126.0557246999815,None,2126.0557246999815,None,2126.3389922999777,None,,,,,113,001,2023-10-10_12h02.42.800,colored_shuffled,2021.2.3,59.99455250204282,
C:\Users\subject\Desktop\SVRT Experiments\SVRT Experiment 3\svrt_images\generated_images\results_problem_13,,C:\Users\subject\Desktop\SVRT Experiments\SVRT Experiment 3\svrt_images\generated_images\results_problem_15\sample_0_0003.png,,C:\Users\subject\Desktop\SVRT Experiments\SVRT Experiment 3\svrt_images\generated_images\results_problem_13\sample_0_0014.png,,,,,,,,,,,,,,,,,,,,0,3,3,3,0,25,25,25,,,,,,,,,,,,,,f,13,A,B,29,0,Incorrect!,0.211284400022123,2127.688997899997,None,2127.688997899997,None,2127.972391899966,None,,,,,113,001,2023-10-10_12h02.42.800,colored_shuffled,2021.2.3,59.99455250204282,
C:\Users\subject\Desktop\SVRT Experiments\SVRT Experiment 3\svrt_images\generated_images\results_problem_13,,C:\Users\subject\Desktop\SVRT Experiments\SVRT Experiment 3\svrt_images\generated_images\results_problem_15\sample_0_0003.png,,C:\Users\subject\Desktop\SVRT Experiments\SVRT Experiment 3\svrt_images\generated_images\results_problem_13\sample_1_0000.png,,,,,,,,,,,,,,,,,,,,0,3,3,3,0,26,26,26,,,,,,,,,,,,,,j,13,B,A,29,0,Incorrect!,0.1050995999830775,2129.339015299978,None,2129.339015299978,None,2129.5222974999924,None,,,,,113,001,2023-10-10_12h02.42.800,colored_shuffled,2021.2.3,59.99455250204282,
C:\Users\subject\Desktop\SVRT Experiments\SVRT Experiment 3\svrt_images\generated_images\results_problem_13,,C:\Users\subject\Desktop\SVRT Experiments\SVRT Experiment 3\svrt_images\generated_images\results_problem_15\sample_0_0003.png,,C:\Users\subject\Desktop\SVRT Experiments\SVRT Experiment 3\svrt_images\generated_images\results_problem_13\sample_1_0012.png,,,,,,,,,,,,,,,,,,,,0,3,3,3,0,27,27,27,,,,,,,,,,,,,,f,13,A,A,29,1,Correct!,0.48313360003521666,2130.889006100013,None,2130.889006100013,None,2131.4056069999933,None,,,,,113,001,2023-10-10_12h02.42.800,colored_shuffled,2021.2.3,59.99455250204282,
C:\Users\subject\Desktop\SVRT Experiments\SVRT Experiment 3\svrt_images\generated_images\results_problem_13,,C:\Users\subject\Desktop\SVRT Experiments\SVRT Experiment 3\svrt_images\generated_images\results_problem_15\sample_0_0003.png,,C:\Users\subject\Desktop\SVRT Experiments\SVRT Experiment 3\svrt_images\generated_images\results_problem_13\sample_1_0016.png,,,,,,,,,,,,,,,,,,,,0,3,3,3,0,28,28,28,,,,,,,,,,,,,,f,13,A,A,29,1,Correct!,0.27866339997854084,2132.8056389999692,None,2132.8056389999692,None,2133.155607599998,None,,,,,113,001,2023-10-10_12h02.42.800,colored_shuffled,2021.2.3,59.99455250204282,
C:\Users\subject\Desktop\SVRT Experiments\SVRT Experiment 3\svrt_images\generated_images\results_problem_13,,C:\Users\subject\Desktop\SVRT Experiments\SVRT Experiment 3\svrt_images\generated_images\results_problem_15\sample_0_0003.png,,C:\Users\subject\Desktop\SVRT Experiments\SVRT Experiment 3\svrt_images\generated_images\results_problem_13\sample_0_0015.png,,,,,,,,,,,,,,,,,,,,0,3,3,3,0,29,29,29,,,,,,,,,,,,,,f,13,A,B,29,0,Incorrect!,0.11993380001513287,2134.5722628000076,None,2134.5722628000076,None,2134.788905299967,None,,,,,113,001,2023-10-10_12h02.42.800,colored_shuffled,2021.2.3,59.99455250204282,
C:\Users\subject\Desktop\SVRT Experiments\SVRT Experiment 3\svrt_images\generated_images\results_problem_13,,C:\Users\subject\Desktop\SVRT Experiments\SVRT Experiment 3\svrt_images\generated_images\results_problem_15\sample_0_0003.png,,C:\Users\subject\Desktop\SVRT Experiments\SVRT Experiment 3\svrt_images\generated_images\results_problem_13\sample_1_0003.png,,,,,,,,,,,,,,,,,,,,0,3,3,3,0,30,30,30,,,,,,,,,,,,,,f,13,A,A,29,1,Correct!,0.28664459998253733,2136.205580000009,None,2136.205580000009,None,2136.5222167000175,None,,,,,113,001,2023-10-10_12h02.42.800,colored_shuffled,2021.2.3,59.99455250204282,
C:\Users\subject\Desktop\SVRT Experiments\SVRT Experiment 3\svrt_images\generated_images\results_problem_13,,C:\Users\subject\Desktop\SVRT Experiments\SVRT Experiment 3\svrt_images\generated_images\results_problem_15\sample_0_0003.png,,C:\Users\subject\Desktop\SVRT Experiments\SVRT Experiment 3\svrt_images\generated_images\results_problem_13\sample_1_0013.png,,,,,,,,,,,,,,,,,,,,0,3,3,3,0,31,31,31,,,,,,,,,,,,,,f,13,A,A,29,1,Correct!,0.2487601999891922,2137.9555304999813,None,2137.9555304999813,None,2138.2721623000107,None,,,,,113,001,2023-10-10_12h02.42.800,colored_shuffled,2021.2.3,59.99455250204282,
C:\Users\subject\Desktop\SVRT Experiments\SVRT Experiment 3\svrt_images\generated_images\results_problem_13,,C:\Users\subject\Desktop\SVRT Experiments\SVRT Experiment 3\svrt_images\generated_images\results_problem_15\sample_0_0003.png,,C:\Users\subject\Desktop\SVRT Experiments\SVRT Experiment 3\svrt_images\generated_images\results_problem_13\sample_0_0002.png,,,,,,,,,,,,,,,,,,,,0,3,3,3,0,32,32,32,,,,,,,,,,,,,,f,13,A,B,29,0,Incorrect!,0.3773702000034973,2139.738843399973,None,2139.738843399973,None,2140.2221366000012,None,,,,,113,001,2023-10-10_12h02.42.800,colored_shuffled,2021.2.3,59.99455250204282,
C:\Users\subject\Desktop\SVRT Experiments\SVRT Experiment 3\svrt_images\generated_images\results_problem_13,,C:\Users\subject\Desktop\SVRT Experiments\SVRT Experiment 3\svrt_images\generated_images\results_problem_15\sample_0_0003.png,,C:\Users\subject\Desktop\SVRT Experiments\SVRT Experiment 3\svrt_images\generated_images\results_problem_13\sample_0_0003.png,,,,,,,,,,,,,,,,,,,,0,3,3,3,0,33,33,33,,,,,,,,,,,,,,f,13,A,B,29,0,Incorrect!,0.5067793999915011,2141.7054725000053,None,2141.7054725000053,None,2142.3054412999772,None,,,,,113,001,2023-10-10_12h02.42.800,colored_shuffled,2021.2.3,59.99455250204282,
C:\Users\subject\Desktop\SVRT Experiments\SVRT Experiment 3\svrt_images\generated_images\results_problem_13,,C:\Users\subject\Desktop\SVRT Experiments\SVRT Experiment 3\svrt_images\generated_images\results_problem_15\sample_0_0003.png,,,,,,,,,,,,,,,,,,,,,,0,3,3,3,0,19,19,19,,,,,,,,,,,,,,,,,,,,,,,,,,,,2143.305434799986,2143.305434799986,space,0.8186314000049606,113,001,2023-10-10_12h02.42.800,colored_shuffled,2021.2.3,59.99455250204282,
C:\Users\subject\Desktop\SVRT Experiments\SVRT Experiment 3\svrt_images\generated_images\results_problem_23,,C:\Users\subject\Desktop\SVRT Experiments\SVRT Experiment 3\svrt_images\generated_images\results_problem_15\sample_0_0003.png,,,C:\Users\subject\Desktop\SVRT Experiments\SVRT Experiment 3\svrt_images\generated_images\results_problem_23\sample_0_0000.png,,,,,,,,,,,,,,,,,,,0,4,4,4,0,0,0,0,,,,,,,,,,,,,,f,23,A,B,29,0,Incorrect!,0.6086942999972962,2144.1554171000025,None,2144.1554171000025,None,2144.7887460999773,None,,,,,113,001,2023-10-10_12h02.42.800,colored_shuffled,2021.2.3,59.99455250204282,
C:\Users\subject\Desktop\SVRT Experiments\SVRT Experiment 3\svrt_images\generated_images\results_problem_23,,C:\Users\subject\Desktop\SVRT Experiments\SVRT Experiment 3\svrt_images\generated_images\results_problem_15\sample_0_0003.png,,,C:\Users\subject\Desktop\SVRT Experiments\SVRT Experiment 3\svrt_images\generated_images\results_problem_23\sample_0_0009.png,,,,,,,,,,,,,,,,,,,0,4,4,4,0,1,1,1,,,,,,,,,,,,,,j,23,B,B,29,1,Correct!,0.2627271999954246,2145.8053876999766,None,2145.8053876999766,None,2146.088718999992,None,,,,,113,001,2023-10-10_12h02.42.800,colored_shuffled,2021.2.3,59.99455250204282,
C:\Users\subject\Desktop\SVRT Experiments\SVRT Experiment 3\svrt_images\generated_images\results_problem_23,,C:\Users\subject\Desktop\SVRT Experiments\SVRT Experiment 3\svrt_images\generated_images\results_problem_15\sample_0_0003.png,,,C:\Users\subject\Desktop\SVRT Experiments\SVRT Experiment 3\svrt_images\generated_images\results_problem_23\sample_1_0010.png,,,,,,,,,,,,,,,,,,,0,4,4,4,0,2,2,2,,,,,,,,,,,,,,f,23,A,A,29,1,Correct!,0.28278840001439676,2147.105366199976,None,2147.105366199976,None,2147.4053605999798,None,,,,,113,001,2023-10-10_12h02.42.800,colored_shuffled,2021.2.3,59.99455250204282,
C:\Users\subject\Desktop\SVRT Experiments\SVRT Experiment 3\svrt_images\generated_images\results_problem_23,,C:\Users\subject\Desktop\SVRT Experiments\SVRT Experiment 3\svrt_images\generated_images\results_problem_15\sample_0_0003.png,,,C:\Users\subject\Desktop\SVRT Experiments\SVRT Experiment 3\svrt_images\generated_images\results_problem_23\sample_0_0001.png,,,,,,,,,,,,,,,,,,,0,4,4,4,0,3,3,3,,,,,,,,,,,,,,f,23,A,B,29,0,Incorrect!,0.2935640999930911,2148.438681299973,None,2148.438681299973,None,2148.7553450000123,None,,,,,113,001,2023-10-10_12h02.42.800,colored_shuffled,2021.2.3,59.99455250204282,
C:\Users\subject\Desktop\SVRT Experiments\SVRT Experiment 3\svrt_images\generated_images\results_problem_23,,C:\Users\subject\Desktop\SVRT Experiments\SVRT Experiment 3\svrt_images\generated_images\results_problem_15\sample_0_0003.png,,,C:\Users\subject\Desktop\SVRT Experiments\SVRT Experiment 3\svrt_images\generated_images\results_problem_23\sample_0_0013.png,,,,,,,,,,,,,,,,,,,0,4,4,4,0,4,4,4,,,,,,,,,,,,,,f,23,A,B,29,0,Incorrect!,0.1907622999860905,2149.8053486999706,None,2149.8053486999706,None,2150.021999599994,None,,,,,113,001,2023-10-10_12h02.42.800,colored_shuffled,2021.2.3,59.99455250204282,
C:\Users\subject\Desktop\SVRT Experiments\SVRT Experiment 3\svrt_images\generated_images\results_problem_23,,C:\Users\subject\Desktop\SVRT Experiments\SVRT Experiment 3\svrt_images\generated_images\results_problem_15\sample_0_0003.png,,,C:\Users\subject\Desktop\SVRT Experiments\SVRT Experiment 3\svrt_images\generated_images\results_problem_23\sample_0_0015.png,,,,,,,,,,,,,,,,,,,0,4,4,4,0,5,5,5,,,,,,,,,,,,,,f,23,A,B,29,0,Incorrect!,0.0985660000005737,2151.089677000011,None,2151.089677000011,None,2151.205319300003,None,,,,,113,001,2023-10-10_12h02.42.800,colored_shuffled,2021.2.3,59.99455250204282,
C:\Users\subject\Desktop\SVRT Experiments\SVRT Experiment 3\svrt_images\generated_images\results_problem_23,,C:\Users\subject\Desktop\SVRT Experiments\SVRT Experiment 3\svrt_images\generated_images\results_problem_15\sample_0_0003.png,,,C:\Users\subject\Desktop\SVRT Experiments\SVRT Experiment 3\svrt_images\generated_images\results_problem_23\sample_0_0008.png,,,,,,,,,,,,,,,,,,,0,4,4,4,0,6,6,6,,,,,,,,,,,,,,f,23,A,B,29,0,Incorrect!,0.06829799996921793,2152.271996299969,None,2152.271996299969,None,2152.3719741000095,None,,,,,113,001,2023-10-10_12h02.42.800,colored_shuffled,2021.2.3,59.99455250204282,
C:\Users\subject\Desktop\SVRT Experiments\SVRT Experiment 3\svrt_images\generated_images\results_problem_23,,C:\Users\subject\Desktop\SVRT Experiments\SVRT Experiment 3\svrt_images\generated_images\results_problem_15\sample_0_0003.png,,,C:\Users\subject\Desktop\SVRT Experiments\SVRT Experiment 3\svrt_images\generated_images\results_problem_23\sample_0_0007.png,,,,,,,,,,,,,,,,,,,0,4,4,4,0,7,7,7,,,,,,,,,,,,,,f,23,A,B,29,0,Incorrect!,0.020805799984373152,2153.4552908000187,None,2153.4552908000187,None,2153.5052910000086,None,,,,,113,001,2023-10-10_12h02.42.800,colored_shuffled,2021.2.3,59.99455250204282,
C:\Users\subject\Desktop\SVRT Experiments\SVRT Experiment 3\svrt_images\generated_images\results_problem_23,,C:\Users\subject\Desktop\SVRT Experiments\SVRT Experiment 3\svrt_images\generated_images\results_problem_15\sample_0_0003.png,,,C:\Users\subject\Desktop\SVRT Experiments\SVRT Experiment 3\svrt_images\generated_images\results_problem_23\sample_0_0016.png,,,,,,,,,,,,,,,,,,,0,4,4,4,0,8,8,8,,,,,,,,,,,,,,f,23,A,B,29,0,Incorrect!,0.27884079999057576,2154.605300700001,None,2154.605300700001,None,2154.9052879000083,None,,,,,113,001,2023-10-10_12h02.42.800,colored_shuffled,2021.2.3,59.99455250204282,
C:\Users\subject\Desktop\SVRT Experiments\SVRT Experiment 3\svrt_images\generated_images\results_problem_23,,C:\Users\subject\Desktop\SVRT Experiments\SVRT Experiment 3\svrt_images\generated_images\results_problem_15\sample_0_0003.png,,,C:\Users\subject\Desktop\SVRT Experiments\SVRT Experiment 3\svrt_images\generated_images\results_problem_23\sample_1_0000.png,,,,,,,,,,,,,,,,,,,0,4,4,4,0,9,9,9,,,,,,,,,,,,,,j,23,B,A,29,0,Incorrect!,0.03902590001234785,2156.005255999975,None,2156.005255999975,None,2156.0719117000117,None,,,,,113,001,2023-10-10_12h02.42.800,colored_shuffled,2021.2.3,59.99455250204282,
C:\Users\subject\Desktop\SVRT Experiments\SVRT Experiment 3\svrt_images\generated_images\results_problem_23,,C:\Users\subject\Desktop\SVRT Experiments\SVRT Experiment 3\svrt_images\generated_images\results_problem_15\sample_0_0003.png,,,C:\Users\subject\Desktop\SVRT Experiments\SVRT Experiment 3\svrt_images\generated_images\results_problem_23\sample_1_0014.png,,,,,,,,,,,,,,,,,,,0,4,4,4,0,10,10,10,,,,,,,,,,,,,,f,23,A,A,29,1,Correct!,0.23153670004103333,2157.1885253000073,None,2157.1885253000073,None,2157.438562399999,None,,,,,113,001,2023-10-10_12h02.42.800,colored_shuffled,2021.2.3,59.99455250204282,
C:\Users\subject\Desktop\SVRT Experiments\SVRT Experiment 3\svrt_images\generated_images\results_problem_23,,C:\Users\subject\Desktop\SVRT Experiments\SVRT Experiment 3\svrt_images\generated_images\results_problem_15\sample_0_0003.png,,,C:\Users\subject\Desktop\SVRT Experiments\SVRT Experiment 3\svrt_images\generated_images\results_problem_23\sample_0_0003.png,,,,,,,,,,,,,,,,,,,0,4,4,4,0,11,11,11,,,,,,,,,,,,,,f,23,A,B,29,0,Incorrect!,0.07221169996773824,2158.5718583000125,None,2158.5718583000125,None,2158.688543199969,None,,,,,113,001,2023-10-10_12h02.42.800,colored_shuffled,2021.2.3,59.99455250204282,
C:\Users\subject\Desktop\SVRT Experiments\SVRT Experiment 3\svrt_images\generated_images\results_problem_23,,C:\Users\subject\Desktop\SVRT Experiments\SVRT Experiment 3\svrt_images\generated_images\results_problem_15\sample_0_0003.png,,,C:\Users\subject\Desktop\SVRT Experiments\SVRT Experiment 3\svrt_images\generated_images\results_problem_23\sample_1_0003.png,,,,,,,,,,,,,,,,,,,0,4,4,4,0,12,12,12,,,,,,,,,,,,,,j,23,B,A,29,0,Incorrect!,0.31760320003377274,2159.838531400019,None,2159.838531400019,None,2160.1885159999947,None,,,,,113,001,2023-10-10_12h02.42.800,colored_shuffled,2021.2.3,59.99455250204282,
C:\Users\subject\Desktop\SVRT Experiments\SVRT Experiment 3\svrt_images\generated_images\results_problem_23,,C:\Users\subject\Desktop\SVRT Experiments\SVRT Experiment 3\svrt_images\generated_images\results_problem_15\sample_0_0003.png,,,C:\Users\subject\Desktop\SVRT Experiments\SVRT Experiment 3\svrt_images\generated_images\results_problem_23\sample_0_0004.png,,,,,,,,,,,,,,,,,,,0,4,4,4,0,13,13,13,,,,,,,,,,,,,,j,23,B,B,29,1,Correct!,0.19297470001038164,2161.355170099996,None,2161.355170099996,None,2161.571828999964,None,,,,,113,001,2023-10-10_12h02.42.800,colored_shuffled,2021.2.3,59.99455250204282,
C:\Users\subject\Desktop\SVRT Experiments\SVRT Experiment 3\svrt_images\generated_images\results_problem_23,,C:\Users\subject\Desktop\SVRT Experiments\SVRT Experiment 3\svrt_images\generated_images\results_problem_15\sample_0_0003.png,,,C:\Users\subject\Desktop\SVRT Experiments\SVRT Experiment 3\svrt_images\generated_images\results_problem_23\sample_1_0011.png,,,,,,,,,,,,,,,,,,,0,4,4,4,0,14,14,14,,,,,,,,,,,,,,j,23,B,A,29,0,Incorrect!,0.2729115000111051,2162.7552035999834,None,2162.7552035999834,None,2163.071790899965,None,,,,,113,001,2023-10-10_12h02.42.800,colored_shuffled,2021.2.3,59.99455250204282,
C:\Users\subject\Desktop\SVRT Experiments\SVRT Experiment 3\svrt_images\generated_images\results_problem_23,,C:\Users\subject\Desktop\SVRT Experiments\SVRT Experiment 3\svrt_images\generated_images\results_problem_15\sample_0_0003.png,,,C:\Users\subject\Desktop\SVRT Experiments\SVRT Experiment 3\svrt_images\generated_images\results_problem_23\sample_1_0001.png,,,,,,,,,,,,,,,,,,,0,4,4,4,0,15,15,15,,,,,,,,,,,,,,f,23,A,A,29,1,Correct!,0.4451231000130065,2164.2551027999725,None,2164.2551027999725,None,2164.7384460999747,None,,,,,113,001,2023-10-10_12h02.42.800,colored_shuffled,2021.2.3,59.99455250204282,
C:\Users\subject\Desktop\SVRT Experiments\SVRT Experiment 3\svrt_images\generated_images\results_problem_23,,C:\Users\subject\Desktop\SVRT Experiments\SVRT Experiment 3\svrt_images\generated_images\results_problem_15\sample_0_0003.png,,,C:\Users\subject\Desktop\SVRT Experiments\SVRT Experiment 3\svrt_images\generated_images\results_problem_23\sample_1_0016.png,,,,,,,,,,,,,,,,,,,0,4,4,4,0,16,16,16,,,,,,,,,,,,,,f,23,A,A,29,1,Correct!,0.20971179998014122,2165.9384369999752,None,2165.9384369999752,None,2166.1884269000147,None,,,,,113,001,2023-10-10_12h02.42.800,colored_shuffled,2021.2.3,59.99455250204282,
C:\Users\subject\Desktop\SVRT Experiments\SVRT Experiment 3\svrt_images\generated_images\results_problem_23,,C:\Users\subject\Desktop\SVRT Experiments\SVRT Experiment 3\svrt_images\generated_images\results_problem_15\sample_0_0003.png,,,C:\Users\subject\Desktop\SVRT Experiments\SVRT Experiment 3\svrt_images\generated_images\results_problem_23\sample_1_0012.png,,,,,,,,,,,,,,,,,,,0,4,4,4,0,17,17,17,,,,,,,,,,,,,,f,23,A,A,29,1,Correct!,0.3192187999957241,2167.40506119997,None,2167.40506119997,None,2167.7717221999774,None,,,,,113,001,2023-10-10_12h02.42.800,colored_shuffled,2021.2.3,59.99455250204282,
C:\Users\subject\Desktop\SVRT Experiments\SVRT Experiment 3\svrt_images\generated_images\results_problem_23,,C:\Users\subject\Desktop\SVRT Experiments\SVRT Experiment 3\svrt_images\generated_images\results_problem_15\sample_0_0003.png,,,C:\Users\subject\Desktop\SVRT Experiments\SVRT Experiment 3\svrt_images\generated_images\results_problem_23\sample_1_0007.png,,,,,,,,,,,,,,,,,,,0,4,4,4,0,18,18,18,,,,,,,,,,,,,,f,23,A,A,29,1,Correct!,0.047127700003329664,2169.005020499986,None,2169.005020499986,None,2169.0717085999786,None,,,,,113,001,2023-10-10_12h02.42.800,colored_shuffled,2021.2.3,59.99455250204282,
C:\Users\subject\Desktop\SVRT Experiments\SVRT Experiment 3\svrt_images\generated_images\results_problem_23,,C:\Users\subject\Desktop\SVRT Experiments\SVRT Experiment 3\svrt_images\generated_images\results_problem_15\sample_0_0003.png,,,C:\Users\subject\Desktop\SVRT Experiments\SVRT Experiment 3\svrt_images\generated_images\results_problem_23\sample_1_0006.png,,,,,,,,,,,,,,,,,,,0,4,4,4,0,19,19,19,,,,,,,,,,,,,,f,23,A,A,29,1,Correct!,0.2105710000032559,2170.32168980001,None,2170.32168980001,None,2170.5883766000043,None,,,,,113,001,2023-10-10_12h02.42.800,colored_shuffled,2021.2.3,59.99455250204282,
C:\Users\subject\Desktop\SVRT Experiments\SVRT Experiment 3\svrt_images\generated_images\results_problem_23,,C:\Users\subject\Desktop\SVRT Experiments\SVRT Experiment 3\svrt_images\generated_images\results_problem_15\sample_0_0003.png,,,C:\Users\subject\Desktop\SVRT Experiments\SVRT Experiment 3\svrt_images\generated_images\results_problem_23\sample_0_0005.png,,,,,,,,,,,,,,,,,,,0,4,4,4,0,20,20,20,,,,,,,,,,,,,,f,23,A,B,29,0,Incorrect!,0.15725769998971373,2171.8550148999784,None,2171.8550148999784,None,2172.0716700999765,None,,,,,113,001,2023-10-10_12h02.42.800,colored_shuffled,2021.2.3,59.99455250204282,
C:\Users\subject\Desktop\SVRT Experiments\SVRT Experiment 3\svrt_images\generated_images\results_problem_23,,C:\Users\subject\Desktop\SVRT Experiments\SVRT Experiment 3\svrt_images\generated_images\results_problem_15\sample_0_0003.png,,,C:\Users\subject\Desktop\SVRT Experiments\SVRT Experiment 3\svrt_images\generated_images\results_problem_23\sample_1_0002.png,,,,,,,,,,,,,,,,,,,0,4,4,4,0,21,21,21,,,,,,,,,,,,,,f,23,A,A,29,1,Correct!,0.2971888000029139,2173.3550157999853,None,2173.3550157999853,None,2173.6716398000135,None,,,,,113,001,2023-10-10_12h02.42.800,colored_shuffled,2021.2.3,59.99455250204282,
C:\Users\subject\Desktop\SVRT Experiments\SVRT Experiment 3\svrt_images\generated_images\results_problem_23,,C:\Users\subject\Desktop\SVRT Experiments\SVRT Experiment 3\svrt_images\generated_images\results_problem_15\sample_0_0003.png,,,C:\Users\subject\Desktop\SVRT Experiments\SVRT Experiment 3\svrt_images\generated_images\results_problem_23\sample_1_0004.png,,,,,,,,,,,,,,,,,,,0,4,4,4,0,22,22,22,,,,,,,,,,,,,,f,23,A,A,29,1,Correct!,0.5524386999895796,2174.9716420000186,None,2174.9716420000186,None,2175.5882594999857,None,,,,,113,001,2023-10-10_12h02.42.800,colored_shuffled,2021.2.3,59.99455250204282,
C:\Users\subject\Desktop\SVRT Experiments\SVRT Experiment 3\svrt_images\generated_images\results_problem_23,,C:\Users\subject\Desktop\SVRT Experiments\SVRT Experiment 3\svrt_images\generated_images\results_problem_15\sample_0_0003.png,,,C:\Users\subject\Desktop\SVRT Experiments\SVRT Experiment 3\svrt_images\generated_images\results_problem_23\sample_0_0014.png,,,,,,,,,,,,,,,,,,,0,4,4,4,0,23,23,23,,,,,,,,,,,,,,f,23,A,B,29,0,Incorrect!,0.4192258999682963,2176.9049144000164,None,2176.9049144000164,None,2177.388255500002,None,,,,,113,001,2023-10-10_12h02.42.800,colored_shuffled,2021.2.3,59.99455250204282,
C:\Users\subject\Desktop\SVRT Experiments\SVRT Experiment 3\svrt_images\generated_images\results_problem_23,,C:\Users\subject\Desktop\SVRT Experiments\SVRT Experiment 3\svrt_images\generated_images\results_problem_15\sample_0_0003.png,,,C:\Users\subject\Desktop\SVRT Experiments\SVRT Experiment 3\svrt_images\generated_images\results_problem_23\sample_1_0005.png,,,,,,,,,,,,,,,,,,,0,4,4,4,0,24,24,24,,,,,,,,,,,,,,j,23,B,A,29,0,Incorrect!,0.1385413000243716,2178.721574299969,None,2178.721574299969,None,2178.938214099966,None,,,,,113,001,2023-10-10_12h02.42.800,colored_shuffled,2021.2.3,59.99455250204282,
C:\Users\subject\Desktop\SVRT Experiments\SVRT Experiment 3\svrt_images\generated_images\results_problem_23,,C:\Users\subject\Desktop\SVRT Experiments\SVRT Experiment 3\svrt_images\generated_images\results_problem_15\sample_0_0003.png,,,C:\Users\subject\Desktop\SVRT Experiments\SVRT Experiment 3\svrt_images\generated_images\results_problem_23\sample_0_0012.png,,,,,,,,,,,,,,,,,,,0,4,4,4,0,25,25,25,,,,,,,,,,,,,,f,23,A,B,29,0,Incorrect!,0.11595590005163103,2180.288166399987,None,2180.288166399987,None,2180.454859199992,None,,,,,113,001,2023-10-10_12h02.42.800,colored_shuffled,2021.2.3,59.99455250204282,
C:\Users\subject\Desktop\SVRT Experiments\SVRT Experiment 3\svrt_images\generated_images\results_problem_23,,C:\Users\subject\Desktop\SVRT Experiments\SVRT Experiment 3\svrt_images\generated_images\results_problem_15\sample_0_0003.png,,,C:\Users\subject\Desktop\SVRT Experiments\SVRT Experiment 3\svrt_images\generated_images\results_problem_23\sample_1_0009.png,,,,,,,,,,,,,,,,,,,0,4,4,4,0,26,26,26,,,,,,,,,,,,,,j,23,B,A,29,0,Incorrect!,0.35858549998374656,2181.821533499984,None,2181.821533499984,None,2182.2548507999745,None,,,,,113,001,2023-10-10_12h02.42.800,colored_shuffled,2021.2.3,59.99455250204282,
C:\Users\subject\Desktop\SVRT Experiments\SVRT Experiment 3\svrt_images\generated_images\results_problem_23,,C:\Users\subject\Desktop\SVRT Experiments\SVRT Experiment 3\svrt_images\generated_images\results_problem_15\sample_0_0003.png,,,C:\Users\subject\Desktop\SVRT Experiments\SVRT Experiment 3\svrt_images\generated_images\results_problem_23\sample_1_0008.png,,,,,,,,,,,,,,,,,,,0,4,4,4,0,27,27,27,,,,,,,,,,,,,,j,23,B,A,29,0,Incorrect!,0.2146296999999322,2183.6215056999936,None,2183.6215056999936,None,2183.888141400006,None,,,,,113,001,2023-10-10_12h02.42.800,colored_shuffled,2021.2.3,59.99455250204282,
C:\Users\subject\Desktop\SVRT Experiments\SVRT Experiment 3\svrt_images\generated_images\results_problem_23,,C:\Users\subject\Desktop\SVRT Experiments\SVRT Experiment 3\svrt_images\generated_images\results_problem_15\sample_0_0003.png,,,C:\Users\subject\Desktop\SVRT Experiments\SVRT Experiment 3\svrt_images\generated_images\results_problem_23\sample_0_0002.png,,,,,,,,,,,,,,,,,,,0,4,4,4,0,28,28,28,,,,,,,,,,,,,,f,23,A,B,29,0,Incorrect!,0.16396600002190098,2185.2881421999773,None,2185.2881421999773,None,2185.4714512999635,None,,,,,113,001,2023-10-10_12h02.42.800,colored_shuffled,2021.2.3,59.99455250204282,
C:\Users\subject\Desktop\SVRT Experiments\SVRT Experiment 3\svrt_images\generated_images\results_problem_23,,C:\Users\subject\Desktop\SVRT Experiments\SVRT Experiment 3\svrt_images\generated_images\results_problem_15\sample_0_0003.png,,,C:\Users\subject\Desktop\SVRT Experiments\SVRT Experiment 3\svrt_images\generated_images\results_problem_23\sample_0_0010.png,,,,,,,,,,,,,,,,,,,0,4,4,4,0,29,29,29,,,,,,,,,,,,,,j,23,B,B,29,1,Correct!,1.3801143000018783,2186.888085899991,None,2186.888085899991,None,2188.304784499982,None,,,,,113,001,2023-10-10_12h02.42.800,colored_shuffled,2021.2.3,59.99455250204282,
C:\Users\subject\Desktop\SVRT Experiments\SVRT Experiment 3\svrt_images\generated_images\results_problem_23,,C:\Users\subject\Desktop\SVRT Experiments\SVRT Experiment 3\svrt_images\generated_images\results_problem_15\sample_0_0003.png,,,C:\Users\subject\Desktop\SVRT Experiments\SVRT Experiment 3\svrt_images\generated_images\results_problem_23\sample_1_0013.png,,,,,,,,,,,,,,,,,,,0,4,4,4,0,30,30,30,,,,,,,,,,,,,,j,23,B,A,29,0,Incorrect!,0.5220972000388429,2189.7380425999872,None,2189.7380425999872,None,2190.354728300008,None,,,,,113,001,2023-10-10_12h02.42.800,colored_shuffled,2021.2.3,59.99455250204282,
C:\Users\subject\Desktop\SVRT Experiments\SVRT Experiment 3\svrt_images\generated_images\results_problem_23,,C:\Users\subject\Desktop\SVRT Experiments\SVRT Experiment 3\svrt_images\generated_images\results_problem_15\sample_0_0003.png,,,C:\Users\subject\Desktop\SVRT Experiments\SVRT Experiment 3\svrt_images\generated_images\results_problem_23\sample_1_0015.png,,,,,,,,,,,,,,,,,,,0,4,4,4,0,31,31,31,,,,,,,,,,,,,,j,23,B,A,29,0,Incorrect!,0.44013830000767484,2191.788069000002,None,2191.788069000002,None,2192.3047140999697,None,,,,,113,001,2023-10-10_12h02.42.800,colored_shuffled,2021.2.3,59.99455250204282,
C:\Users\subject\Desktop\SVRT Experiments\SVRT Experiment 3\svrt_images\generated_images\results_problem_23,,C:\Users\subject\Desktop\SVRT Experiments\SVRT Experiment 3\svrt_images\generated_images\results_problem_15\sample_0_0003.png,,,C:\Users\subject\Desktop\SVRT Experiments\SVRT Experiment 3\svrt_images\generated_images\results_problem_23\sample_0_0006.png,,,,,,,,,,,,,,,,,,,0,4,4,4,0,32,32,32,,,,,,,,,,,,,,j,23,B,B,29,1,Correct!,0.21688399999402463,2193.7713415999897,None,2193.7713415999897,None,2194.0213303999626,None,,,,,113,001,2023-10-10_12h02.42.800,colored_shuffled,2021.2.3,59.99455250204282,
C:\Users\subject\Desktop\SVRT Experiments\SVRT Experiment 3\svrt_images\generated_images\results_problem_23,,C:\Users\subject\Desktop\SVRT Experiments\SVRT Experiment 3\svrt_images\generated_images\results_problem_15\sample_0_0003.png,,,C:\Users\subject\Desktop\SVRT Experiments\SVRT Experiment 3\svrt_images\generated_images\results_problem_23\sample_0_0011.png,,,,,,,,,,,,,,,,,,,0,4,4,4,0,33,33,33,,,,,,,,,,,,,,j,23,B,B,29,1,Correct!,0.39627039997139946,2195.4879916000064,None,2195.4879916000064,None,2195.9546311000013,None,,,,,113,001,2023-10-10_12h02.42.800,colored_shuffled,2021.2.3,59.99455250204282,
C:\Users\subject\Desktop\SVRT Experiments\SVRT Experiment 3\svrt_images\generated_images\results_problem_23,,C:\Users\subject\Desktop\SVRT Experiments\SVRT Experiment 3\svrt_images\generated_images\results_problem_15\sample_0_0003.png,,,,,,,,,,,,,,,,,,,,,,0,4,4,4,0,19,19,19,,,,,,,,,,,,,,,,,,,,,,,,,,,,2196.9546244000085,2196.9546244000085,space,0.6812655000248924,113,001,2023-10-10_12h02.42.800,colored_shuffled,2021.2.3,59.99455250204282,
C:\Users\subject\Desktop\SVRT Experiments\SVRT Experiment 3\svrt_images\generated_images\results_problem_20,,C:\Users\subject\Desktop\SVRT Experiments\SVRT Experiment 3\svrt_images\generated_images\results_problem_15\sample_0_0003.png,,,,C:\Users\subject\Desktop\SVRT Experiments\SVRT Experiment 3\svrt_images\generated_images\results_problem_20\sample_1_0003.png,,,,,,,,,,,,,,,,,,0,5,5,5,0,0,0,0,,,,,,,,,,,,,,f,20,A,A,29,1,Correct!,0.6134850000380538,2197.6546328999684,None,2197.6546328999684,None,2198.2879356999765,None,,,,,113,001,2023-10-10_12h02.42.800,colored_shuffled,2021.2.3,59.99455250204282,
C:\Users\subject\Desktop\SVRT Experiments\SVRT Experiment 3\svrt_images\generated_images\results_problem_20,,C:\Users\subject\Desktop\SVRT Experiments\SVRT Experiment 3\svrt_images\generated_images\results_problem_15\sample_0_0003.png,,,,C:\Users\subject\Desktop\SVRT Experiments\SVRT Experiment 3\svrt_images\generated_images\results_problem_20\sample_0_0009.png,,,,,,,,,,,,,,,,,,0,5,5,5,0,1,1,1,,,,,,,,,,,,,,f,20,A,B,29,0,Incorrect!,0.3155850000330247,2199.3046309999772,None,2199.3046309999772,None,2199.63792259997,None,,,,,113,001,2023-10-10_12h02.42.800,colored_shuffled,2021.2.3,59.99455250204282,
C:\Users\subject\Desktop\SVRT Experiments\SVRT Experiment 3\svrt_images\generated_images\results_problem_20,,C:\Users\subject\Desktop\SVRT Experiments\SVRT Experiment 3\svrt_images\generated_images\results_problem_15\sample_0_0003.png,,,,C:\Users\subject\Desktop\SVRT Experiments\SVRT Experiment 3\svrt_images\generated_images\results_problem_20\sample_1_0013.png,,,,,,,,,,,,,,,,,,0,5,5,5,0,2,2,2,,,,,,,,,,,,,,f,20,A,A,29,1,Correct!,0.2934912000200711,2200.6546117999824,None,2200.6546117999824,None,2200.9712399999844,None,,,,,113,001,2023-10-10_12h02.42.800,colored_shuffled,2021.2.3,59.99455250204282,
C:\Users\subject\Desktop\SVRT Experiments\SVRT Experiment 3\svrt_images\generated_images\results_problem_20,,C:\Users\subject\Desktop\SVRT Experiments\SVRT Experiment 3\svrt_images\generated_images\results_problem_15\sample_0_0003.png,,,,C:\Users\subject\Desktop\SVRT Experiments\SVRT Experiment 3\svrt_images\generated_images\results_problem_20\sample_0_0006.png,,,,,,,,,,,,,,,,,,0,5,5,5,0,3,3,3,,,,,,,,,,,,,,j,20,B,B,29,1,Correct!,0.15161080000689253,2202.0045566000044,None,2202.0045566000044,None,2202.18789619999,None,,,,,113,001,2023-10-10_12h02.42.800,colored_shuffled,2021.2.3,59.99455250204282,
C:\Users\subject\Desktop\SVRT Experiments\SVRT Experiment 3\svrt_images\generated_images\results_problem_20,,C:\Users\subject\Desktop\SVRT Experiments\SVRT Experiment 3\svrt_images\generated_images\results_problem_15\sample_0_0003.png,,,,C:\Users\subject\Desktop\SVRT Experiments\SVRT Experiment 3\svrt_images\generated_images\results_problem_20\sample_0_0011.png,,,,,,,,,,,,,,,,,,0,5,5,5,0,4,4,4,,,,,,,,,,,,,,j,20,B,B,29,1,Correct!,0.03819730004761368,2203.237891500001,None,2203.237891500001,None,2203.3046909999684,None,,,,,113,001,2023-10-10_12h02.42.800,colored_shuffled,2021.2.3,59.99455250204282,
C:\Users\subject\Desktop\SVRT Experiments\SVRT Experiment 3\svrt_images\generated_images\results_problem_20,,C:\Users\subject\Desktop\SVRT Experiments\SVRT Experiment 3\svrt_images\generated_images\results_problem_15\sample_0_0003.png,,,,C:\Users\subject\Desktop\SVRT Experiments\SVRT Experiment 3\svrt_images\generated_images\results_problem_20\sample_0_0008.png,,,,,,,,,,,,,,,,,,0,5,5,5,0,5,5,5,,,,,,,,,,,,,,j,20,B,B,29,1,Correct!,0.1535238999640569,2204.3545155000174,None,2204.3545155000174,None,2204.537841400015,None,,,,,113,001,2023-10-10_12h02.42.800,colored_shuffled,2021.2.3,59.99455250204282,
C:\Users\subject\Desktop\SVRT Experiments\SVRT Experiment 3\svrt_images\generated_images\results_problem_20,,C:\Users\subject\Desktop\SVRT Experiments\SVRT Experiment 3\svrt_images\generated_images\results_problem_15\sample_0_0003.png,,,,C:\Users\subject\Desktop\SVRT Experiments\SVRT Experiment 3\svrt_images\generated_images\results_problem_20\sample_1_0000.png,,,,,,,,,,,,,,,,,,0,5,5,5,0,6,6,6,,,,,,,,,,,,,,j,20,B,A,29,0,Incorrect!,0.3755339999916032,2205.6045244999696,None,2205.6045244999696,None,2206.0044894000166,None,,,,,113,001,2023-10-10_12h02.42.800,colored_shuffled,2021.2.3,59.99455250204282,
C:\Users\subject\Desktop\SVRT Experiments\SVRT Experiment 3\svrt_images\generated_images\results_problem_20,,C:\Users\subject\Desktop\SVRT Experiments\SVRT Experiment 3\svrt_images\generated_images\results_problem_15\sample_0_0003.png,,,,C:\Users\subject\Desktop\SVRT Experiments\SVRT Experiment 3\svrt_images\generated_images\results_problem_20\sample_0_0016.png,,,,,,,,,,,,,,,,,,0,5,5,5,0,7,7,7,,,,,,,,,,,,,,f,20,A,B,29,0,Incorrect!,6.252225200005341,2207.087827900017,None,2207.087827900017,None,2213.371035799966,None,,,,,113,001,2023-10-10_12h02.42.800,colored_shuffled,2021.2.3,59.99455250204282,
C:\Users\subject\Desktop\SVRT Experiments\SVRT Experiment 3\svrt_images\generated_images\results_problem_20,,C:\Users\subject\Desktop\SVRT Experiments\SVRT Experiment 3\svrt_images\generated_images\results_problem_15\sample_0_0003.png,,,,C:\Users\subject\Desktop\SVRT Experiments\SVRT Experiment 3\svrt_images\generated_images\results_problem_20\sample_0_0003.png,,,,,,,,,,,,,,,,,,0,5,5,5,0,8,8,8,,,,,,,,,,,,,,j,20,B,B,29,1,Correct!,0.09374929999466985,2214.45431619999,None,2214.45431619999,None,2214.5710326000117,None,,,,,113,001,2023-10-10_12h02.42.800,colored_shuffled,2021.2.3,59.99455250204282,
C:\Users\subject\Desktop\SVRT Experiments\SVRT Experiment 3\svrt_images\generated_images\results_problem_20,,C:\Users\subject\Desktop\SVRT Experiments\SVRT Experiment 3\svrt_images\generated_images\results_problem_15\sample_0_0003.png,,,,C:\Users\subject\Desktop\SVRT Experiments\SVRT Experiment 3\svrt_images\generated_images\results_problem_20\sample_1_0006.png,,,,,,,,,,,,,,,,,,0,5,5,5,0,9,9,9,,,,,,,,,,,,,,j,20,B,A,29,0,Incorrect!,0.2130516999750398,2215.671005500015,None,2215.671005500015,None,2215.9043286999804,None,,,,,113,001,2023-10-10_12h02.42.800,colored_shuffled,2021.2.3,59.99455250204282,
C:\Users\subject\Desktop\SVRT Experiments\SVRT Experiment 3\svrt_images\generated_images\results_problem_20,,C:\Users\subject\Desktop\SVRT Experiments\SVRT Experiment 3\svrt_images\generated_images\results_problem_15\sample_0_0003.png,,,,C:\Users\subject\Desktop\SVRT Experiments\SVRT Experiment 3\svrt_images\generated_images\results_problem_20\sample_0_0000.png,,,,,,,,,,,,,,,,,,0,5,5,5,0,10,10,10,,,,,,,,,,,,,,j,20,B,B,29,1,Correct!,0.31910389999393374,2217.0210047999863,None,2217.0210047999863,None,2217.370973800018,None,,,,,113,001,2023-10-10_12h02.42.800,colored_shuffled,2021.2.3,59.99455250204282,
C:\Users\subject\Desktop\SVRT Experiments\SVRT Experiment 3\svrt_images\generated_images\results_problem_20,,C:\Users\subject\Desktop\SVRT Experiments\SVRT Experiment 3\svrt_images\generated_images\results_problem_15\sample_0_0003.png,,,,C:\Users\subject\Desktop\SVRT Experiments\SVRT Experiment 3\svrt_images\generated_images\results_problem_20\sample_0_0013.png,,,,,,,,,,,,,,,,,,0,5,5,5,0,11,11,11,,,,,,,,,,,,,,j,20,B,B,29,1,Correct!,0.11585840000770986,2218.504305600014,None,2218.504305600014,None,2218.654284899996,None,,,,,113,001,2023-10-10_12h02.42.800,colored_shuffled,2021.2.3,59.99455250204282,
C:\Users\subject\Desktop\SVRT Experiments\SVRT Experiment 3\svrt_images\generated_images\results_problem_20,,C:\Users\subject\Desktop\SVRT Experiments\SVRT Experiment 3\svrt_images\generated_images\results_problem_15\sample_0_0003.png,,,,C:\Users\subject\Desktop\SVRT Experiments\SVRT Experiment 3\svrt_images\generated_images\results_problem_20\sample_0_0002.png,,,,,,,,,,,,,,,,,,0,5,5,5,0,12,12,12,,,,,,,,,,,,,,j,20,B,B,29,1,Correct!,0.1598863999824971,2219.80429499998,None,2219.80429499998,None,2219.987610900018,None,,,,,113,001,2023-10-10_12h02.42.800,colored_shuffled,2021.2.3,59.99455250204282,
C:\Users\subject\Desktop\SVRT Experiments\SVRT Experiment 3\svrt_images\generated_images\results_problem_20,,C:\Users\subject\Desktop\SVRT Experiments\SVRT Experiment 3\svrt_images\generated_images\results_problem_15\sample_0_0003.png,,,,C:\Users\subject\Desktop\SVRT Experiments\SVRT Experiment 3\svrt_images\generated_images\results_problem_20\sample_1_0004.png,,,,,,,,,,,,,,,,,,0,5,5,5,0,13,13,13,,,,,,,,,,,,,,j,20,B,A,29,0,Incorrect!,0.002454000001307577,2221.137587699981,None,2221.137587699981,None,2221.1875954999705,None,,,,,113,001,2023-10-10_12h02.42.800,colored_shuffled,2021.2.3,59.99455250204282,
