folder,results_problem_5,results_problem_10,results_problem_12,results_problem_1,results_problem_6,results_problem_14,results_problem_17,results_problem_4,results_problem_20,results_problem_8,results_problem_7,results_problem_21,results_problem_9,results_problem_16,results_problem_23,results_problem_11,results_problem_22,results_problem_19,results_problem_2,results_problem_18,results_problem_13,results_problem_3,results_problem_15,categories.thisRepN,categories.thisTrialN,categories.thisN,categories.thisIndex,trials.thisRepN,trials.thisTrialN,trials.thisN,trials.thisIndex,consent_text.started,consent_kb.started,consent_kb.keys,consent_kb.rt,Gender.keys,Gender.rt,Age,instructions_text.started,instructions_text.stopped,instructions_kb.keys,instructions_kb.rt,instructions_kb.started,instructions_kb.stopped,trial_kb.keys,current_problem_num,category_resp,answer,seed,accuracy,feedback,trial_kb.rt,trial_kb.started,trial_kb.stopped,trial_image.started,trial_image.stopped,feedback_text.started,feedback_text.stopped,new_problem_kb.started,new_problem_text.started,new_problem_kb.keys,new_problem_kb.rt,Participant #,session,date,expName,psychopyVersion,frameRate,
,,,,,,,,,,,,,,,,,,,,,,,,,,,,,,,,10.4667727999622,10.4667727999622,y,6.733656199998222,,,,,,,,,,,,,,,,,,,,,,,,,,,,11,001,2023-04-27_16h10.20.365,uncolored_shuffled,2021.2.3,60.005712573363944,
,,,,,,,,,,,,,,,,,,,,,,,,,,,,,,,,,,,,w,12.54896970000118,,,,,,,,,,,,,,,,,,,,,,,,,,11,001,2023-04-27_16h10.20.365,uncolored_shuffled,2021.2.3,60.005712573363944,
,,,,,,,,,,,,,,,,,,,,,,,,,,,,,,,,,,,,,,21,40.803069899906404,None,space,28.1730733999284,40.803069899906404,None,,,,,,,,,,,,,,,,,,,11,001,2023-04-27_16h10.20.365,uncolored_shuffled,2021.2.3,60.005712573363944,
C:\Users\subject\Desktop\SVRT Experiments\SVRT Experiment 3\svrt_images\generated_images\results_problem_5,C:\Users\subject\Desktop\SVRT Experiments\SVRT Experiment 3\svrt_images\generated_images\results_problem_5\sample_1_0010.png,,,,,,,,,,,,,,,,,,,,,,,0,0,0,0,0,0,0,0,,,,,,,,,,,,,,f,5,A,A,3,1,Correct!,14.532303899992257,69.01985529996455,None,69.01985529996455,None,83.5870539000025,None,,,,,11,001,2023-04-27_16h10.20.365,uncolored_shuffled,2021.2.3,60.005712573363944,
C:\Users\subject\Desktop\SVRT Experiments\SVRT Experiment 3\svrt_images\generated_images\results_problem_5,C:\Users\subject\Desktop\SVRT Experiments\SVRT Experiment 3\svrt_images\generated_images\results_problem_5\sample_1_0003.png,,,,,,,,,,,,,,,,,,,,,,,0,0,0,0,0,1,1,1,,,,,,,,,,,,,,j,5,B,A,3,0,Incorrect!,9.035761800012551,84.62043269991409,None,84.62043269991409,None,93.68722479999997,None,,,,,11,001,2023-04-27_16h10.20.365,uncolored_shuffled,2021.2.3,60.005712573363944,
C:\Users\subject\Desktop\SVRT Experiments\SVRT Experiment 3\svrt_images\generated_images\results_problem_5,C:\Users\subject\Desktop\SVRT Experiments\SVRT Experiment 3\svrt_images\generated_images\results_problem_5\sample_1_0012.png,,,,,,,,,,,,,,,,,,,,,,,0,0,0,0,0,2,2,2,,,,,,,,,,,,,,f,5,A,A,3,1,Correct!,2.3035675999708474,94.72055969992653,None,94.72055969992653,None,97.05394589994103,None,,,,,11,001,2023-04-27_16h10.20.365,uncolored_shuffled,2021.2.3,60.005712573363944,
C:\Users\subject\Desktop\SVRT Experiments\SVRT Experiment 3\svrt_images\generated_images\results_problem_5,C:\Users\subject\Desktop\SVRT Experiments\SVRT Experiment 3\svrt_images\generated_images\results_problem_5\sample_0_0013.png,,,,,,,,,,,,,,,,,,,,,,,0,0,0,0,0,3,3,3,,,,,,,,,,,,,,f,5,A,B,3,0,Incorrect!,2.872241200064309,98.10395399993286,None,98.10395399993286,None,101.0040324999718,None,,,,,11,001,2023-04-27_16h10.20.365,uncolored_shuffled,2021.2.3,60.005712573363944,
C:\Users\subject\Desktop\SVRT Experiments\SVRT Experiment 3\svrt_images\generated_images\results_problem_5,C:\Users\subject\Desktop\SVRT Experiments\SVRT Experiment 3\svrt_images\generated_images\results_problem_5\sample_1_0011.png,,,,,,,,,,,,,,,,,,,,,,,0,0,0,0,0,4,4,4,,,,,,,,,,,,,,f,5,A,A,3,1,Correct!,3.9701929999282584,102.05395649990533,None,102.05395649990533,None,106.05403319990728,None,,,,,11,001,2023-04-27_16h10.20.365,uncolored_shuffled,2021.2.3,60.005712573363944,
C:\Users\subject\Desktop\SVRT Experiments\SVRT Experiment 3\svrt_images\generated_images\results_problem_5,C:\Users\subject\Desktop\SVRT Experiments\SVRT Experiment 3\svrt_images\generated_images\results_problem_5\sample_0_0007.png,,,,,,,,,,,,,,,,,,,,,,,0,0,0,0,0,5,5,5,,,,,,,,,,,,,,f,5,A,B,3,0,Incorrect!,2.967459800071083,107.12075140001252,None,107.12075140001252,None,110.12074689997826,None,,,,,11,001,2023-04-27_16h10.20.365,uncolored_shuffled,2021.2.3,60.005712573363944,
C:\Users\subject\Desktop\SVRT Experiments\SVRT Experiment 3\svrt_images\generated_images\results_problem_5,C:\Users\subject\Desktop\SVRT Experiments\SVRT Experiment 3\svrt_images\generated_images\results_problem_5\sample_0_0012.png,,,,,,,,,,,,,,,,,,,,,,,0,0,0,0,0,6,6,6,,,,,,,,,,,,,,f,5,A,B,3,0,Incorrect!,10.667979300022125,111.20417599997018,None,111.20417599997018,None,121.90433379996102,None,,,,,11,001,2023-04-27_16h10.20.365,uncolored_shuffled,2021.2.3,60.005712573363944,
C:\Users\subject\Desktop\SVRT Experiments\SVRT Experiment 3\svrt_images\generated_images\results_problem_5,C:\Users\subject\Desktop\SVRT Experiments\SVRT Experiment 3\svrt_images\generated_images\results_problem_5\sample_0_0005.png,,,,,,,,,,,,,,,,,,,,,,,0,0,0,0,0,7,7,7,,,,,,,,,,,,,,f,5,A,B,3,0,Incorrect!,4.79652710002847,122.98768379993271,None,122.98768379993271,None,127.80433349998202,None,,,,,11,001,2023-04-27_16h10.20.365,uncolored_shuffled,2021.2.3,60.005712573363944,
C:\Users\subject\Desktop\SVRT Experiments\SVRT Experiment 3\svrt_images\generated_images\results_problem_5,C:\Users\subject\Desktop\SVRT Experiments\SVRT Experiment 3\svrt_images\generated_images\results_problem_5\sample_0_0015.png,,,,,,,,,,,,,,,,,,,,,,,0,0,0,0,0,8,8,8,,,,,,,,,,,,,,j,5,B,B,3,1,Correct!,1.3597000000299886,128.90439739997964,None,128.90439739997964,None,130.2881108999718,None,,,,,11,001,2023-04-27_16h10.20.365,uncolored_shuffled,2021.2.3,60.005712573363944,
C:\Users\subject\Desktop\SVRT Experiments\SVRT Experiment 3\svrt_images\generated_images\results_problem_5,C:\Users\subject\Desktop\SVRT Experiments\SVRT Experiment 3\svrt_images\generated_images\results_problem_5\sample_0_0011.png,,,,,,,,,,,,,,,,,,,,,,,0,0,0,0,0,9,9,9,,,,,,,,,,,,,,f,5,A,B,3,0,Incorrect!,10.699668499990366,131.40442069992423,None,131.40442069992423,None,142.12121279991698,None,,,,,11,001,2023-04-27_16h10.20.365,uncolored_shuffled,2021.2.3,60.005712573363944,
C:\Users\subject\Desktop\SVRT Experiments\SVRT Experiment 3\svrt_images\generated_images\results_problem_5,C:\Users\subject\Desktop\SVRT Experiments\SVRT Experiment 3\svrt_images\generated_images\results_problem_5\sample_0_0003.png,,,,,,,,,,,,,,,,,,,,,,,0,0,0,0,0,10,10,10,,,,,,,,,,,,,,f,5,A,B,3,0,Incorrect!,3.5135691000614315,143.2546251999447,None,143.2546251999447,None,146.80460229993332,None,,,,,11,001,2023-04-27_16h10.20.365,uncolored_shuffled,2021.2.3,60.005712573363944,
C:\Users\subject\Desktop\SVRT Experiments\SVRT Experiment 3\svrt_images\generated_images\results_problem_5,C:\Users\subject\Desktop\SVRT Experiments\SVRT Experiment 3\svrt_images\generated_images\results_problem_5\sample_0_0000.png,,,,,,,,,,,,,,,,,,,,,,,0,0,0,0,0,11,11,11,,,,,,,,,,,,,,f,5,A,B,3,0,Incorrect!,3.0140666000079364,147.93804169993382,None,147.93804169993382,None,150.9880598000018,None,,,,,11,001,2023-04-27_16h10.20.365,uncolored_shuffled,2021.2.3,60.005712573363944,
C:\Users\subject\Desktop\SVRT Experiments\SVRT Experiment 3\svrt_images\generated_images\results_problem_5,C:\Users\subject\Desktop\SVRT Experiments\SVRT Experiment 3\svrt_images\generated_images\results_problem_5\sample_1_0008.png,,,,,,,,,,,,,,,,,,,,,,,0,0,0,0,0,12,12,12,,,,,,,,,,,,,,j,5,B,A,3,0,Incorrect!,5.818675399990752,152.22144529991783,None,152.22144529991783,None,158.07146369991824,None,,,,,11,001,2023-04-27_16h10.20.365,uncolored_shuffled,2021.2.3,60.005712573363944,
C:\Users\subject\Desktop\SVRT Experiments\SVRT Experiment 3\svrt_images\generated_images\results_problem_5,C:\Users\subject\Desktop\SVRT Experiments\SVRT Experiment 3\svrt_images\generated_images\results_problem_5\sample_1_0013.png,,,,,,,,,,,,,,,,,,,,,,,0,0,0,0,0,13,13,13,,,,,,,,,,,,,,j,5,B,A,3,0,Incorrect!,1.4498604000546038,159.23820529994555,None,159.23820529994555,None,160.72150549991056,None,,,,,11,001,2023-04-27_16h10.20.365,uncolored_shuffled,2021.2.3,60.005712573363944,
C:\Users\subject\Desktop\SVRT Experiments\SVRT Experiment 3\svrt_images\generated_images\results_problem_5,C:\Users\subject\Desktop\SVRT Experiments\SVRT Experiment 3\svrt_images\generated_images\results_problem_5\sample_1_0016.png,,,,,,,,,,,,,,,,,,,,,,,0,0,0,0,0,14,14,14,,,,,,,,,,,,,,f,5,A,A,3,1,Correct!,4.12709709990304,161.90493959991727,None,161.90493959991727,None,166.07156489999034,None,,,,,11,001,2023-04-27_16h10.20.365,uncolored_shuffled,2021.2.3,60.005712573363944,
C:\Users\subject\Desktop\SVRT Experiments\SVRT Experiment 3\svrt_images\generated_images\results_problem_5,C:\Users\subject\Desktop\SVRT Experiments\SVRT Experiment 3\svrt_images\generated_images\results_problem_5\sample_0_0004.png,,,,,,,,,,,,,,,,,,,,,,,0,0,0,0,0,15,15,15,,,,,,,,,,,,,,f,5,A,B,3,0,Incorrect!,4.809778099996038,167.23829639994074,None,167.23829639994074,None,172.08837219991256,None,,,,,11,001,2023-04-27_16h10.20.365,uncolored_shuffled,2021.2.3,60.005712573363944,
C:\Users\subject\Desktop\SVRT Experiments\SVRT Experiment 3\svrt_images\generated_images\results_problem_5,C:\Users\subject\Desktop\SVRT Experiments\SVRT Experiment 3\svrt_images\generated_images\results_problem_5\sample_0_0006.png,,,,,,,,,,,,,,,,,,,,,,,0,0,0,0,0,16,16,16,,,,,,,,,,,,,,f,5,A,B,3,0,Incorrect!,6.272438399959356,173.2716936999932,None,173.2716936999932,None,179.58847149997018,None,,,,,11,001,2023-04-27_16h10.20.365,uncolored_shuffled,2021.2.3,60.005712573363944,
C:\Users\subject\Desktop\SVRT Experiments\SVRT Experiment 3\svrt_images\generated_images\results_problem_5,C:\Users\subject\Desktop\SVRT Experiments\SVRT Experiment 3\svrt_images\generated_images\results_problem_5\sample_0_0002.png,,,,,,,,,,,,,,,,,,,,,,,0,0,0,0,0,17,17,17,,,,,,,,,,,,,,f,5,A,B,3,0,Incorrect!,10.33093860000372,180.80515529995319,None,180.80515529995319,None,191.18864979990758,None,,,,,11,001,2023-04-27_16h10.20.365,uncolored_shuffled,2021.2.3,60.005712573363944,
C:\Users\subject\Desktop\SVRT Experiments\SVRT Experiment 3\svrt_images\generated_images\results_problem_5,C:\Users\subject\Desktop\SVRT Experiments\SVRT Experiment 3\svrt_images\generated_images\results_problem_5\sample_0_0010.png,,,,,,,,,,,,,,,,,,,,,,,0,0,0,0,0,18,18,18,,,,,,,,,,,,,,f,5,A,B,3,0,Incorrect!,1.0987701000412926,192.40534739999566,None,192.40534739999566,None,193.52200719993562,None,,,,,11,001,2023-04-27_16h10.20.365,uncolored_shuffled,2021.2.3,60.005712573363944,
C:\Users\subject\Desktop\SVRT Experiments\SVRT Experiment 3\svrt_images\generated_images\results_problem_5,C:\Users\subject\Desktop\SVRT Experiments\SVRT Experiment 3\svrt_images\generated_images\results_problem_5\sample_1_0002.png,,,,,,,,,,,,,,,,,,,,,,,0,0,0,0,0,19,19,19,,,,,,,,,,,,,,j,5,B,A,3,0,Incorrect!,0.9488879999844357,194.7553708999185,None,194.7553708999185,None,195.72202449990436,None,,,,,11,001,2023-04-27_16h10.20.365,uncolored_shuffled,2021.2.3,60.005712573363944,
C:\Users\subject\Desktop\SVRT Experiments\SVRT Experiment 3\svrt_images\generated_images\results_problem_5,C:\Users\subject\Desktop\SVRT Experiments\SVRT Experiment 3\svrt_images\generated_images\results_problem_5\sample_0_0014.png,,,,,,,,,,,,,,,,,,,,,,,0,0,0,0,0,20,20,20,,,,,,,,,,,,,,j,5,B,B,3,1,Correct!,0.6930068000219762,196.95541769999545,None,196.95541769999545,None,197.6720550999744,None,,,,,11,001,2023-04-27_16h10.20.365,uncolored_shuffled,2021.2.3,60.005712573363944,
C:\Users\subject\Desktop\SVRT Experiments\SVRT Experiment 3\svrt_images\generated_images\results_problem_5,C:\Users\subject\Desktop\SVRT Experiments\SVRT Experiment 3\svrt_images\generated_images\results_problem_5\sample_1_0001.png,,,,,,,,,,,,,,,,,,,,,,,0,0,0,0,0,21,21,21,,,,,,,,,,,,,,j,5,B,A,3,0,Incorrect!,0.7014145000139251,198.93874699994922,None,198.93874699994922,None,199.7054120999528,None,,,,,11,001,2023-04-27_16h10.20.365,uncolored_shuffled,2021.2.3,60.005712573363944,
C:\Users\subject\Desktop\SVRT Experiments\SVRT Experiment 3\svrt_images\generated_images\results_problem_5,C:\Users\subject\Desktop\SVRT Experiments\SVRT Experiment 3\svrt_images\generated_images\results_problem_5\sample_1_0004.png,,,,,,,,,,,,,,,,,,,,,,,0,0,0,0,0,22,22,22,,,,,,,,,,,,,,j,5,B,A,3,0,Incorrect!,0.8122073999838904,200.97212699998636,None,200.97212699998636,None,201.838794899988,None,,,,,11,001,2023-04-27_16h10.20.365,uncolored_shuffled,2021.2.3,60.005712573363944,
C:\Users\subject\Desktop\SVRT Experiments\SVRT Experiment 3\svrt_images\generated_images\results_problem_5,C:\Users\subject\Desktop\SVRT Experiments\SVRT Experiment 3\svrt_images\generated_images\results_problem_5\sample_1_0005.png,,,,,,,,,,,,,,,,,,,,,,,0,0,0,0,0,23,23,23,,,,,,,,,,,,,,f,5,A,A,3,1,Correct!,1.1981127000181004,203.12216989998706,None,203.12216989998706,None,204.33881240000483,None,,,,,11,001,2023-04-27_16h10.20.365,uncolored_shuffled,2021.2.3,60.005712573363944,
C:\Users\subject\Desktop\SVRT Experiments\SVRT Experiment 3\svrt_images\generated_images\results_problem_5,C:\Users\subject\Desktop\SVRT Experiments\SVRT Experiment 3\svrt_images\generated_images\results_problem_5\sample_1_0006.png,,,,,,,,,,,,,,,,,,,,,,,0,0,0,0,0,24,24,24,,,,,,,,,,,,,,j,5,B,A,3,0,Incorrect!,15.634055700036697,205.62219269992784,None,205.62219269992784,None,221.30552659998648,None,,,,,11,001,2023-04-27_16h10.20.365,uncolored_shuffled,2021.2.3,60.005712573363944,
C:\Users\subject\Desktop\SVRT Experiments\SVRT Experiment 3\svrt_images\generated_images\results_problem_5,C:\Users\subject\Desktop\SVRT Experiments\SVRT Experiment 3\svrt_images\generated_images\results_problem_5\sample_0_0008.png,,,,,,,,,,,,,,,,,,,,,,,0,0,0,0,0,25,25,25,,,,,,,,,,,,,,j,5,B,B,3,1,Correct!,0.7140653000678867,222.6221174999373,None,222.6221174999373,None,223.38882439990994,None,,,,,11,001,2023-04-27_16h10.20.365,uncolored_shuffled,2021.2.3,60.005712573363944,
C:\Users\subject\Desktop\SVRT Experiments\SVRT Experiment 3\svrt_images\generated_images\results_problem_5,C:\Users\subject\Desktop\SVRT Experiments\SVRT Experiment 3\svrt_images\generated_images\results_problem_5\sample_0_0009.png,,,,,,,,,,,,,,,,,,,,,,,0,0,0,0,0,26,26,26,,,,,,,,,,,,,,f,5,A,B,3,0,Incorrect!,3.3828268999932334,224.7054203998996,None,224.7054203998996,None,228.1386974999914,None,,,,,11,001,2023-04-27_16h10.20.365,uncolored_shuffled,2021.2.3,60.005712573363944,
C:\Users\subject\Desktop\SVRT Experiments\SVRT Experiment 3\svrt_images\generated_images\results_problem_5,C:\Users\subject\Desktop\SVRT Experiments\SVRT Experiment 3\svrt_images\generated_images\results_problem_5\sample_1_0000.png,,,,,,,,,,,,,,,,,,,,,,,0,0,0,0,0,27,27,27,,,,,,,,,,,,,,j,5,B,A,3,0,Incorrect!,0.9121905999490991,229.4720387000125,None,229.4720387000125,None,230.40532409993466,None,,,,,11,001,2023-04-27_16h10.20.365,uncolored_shuffled,2021.2.3,60.005712573363944,
C:\Users\subject\Desktop\SVRT Experiments\SVRT Experiment 3\svrt_images\generated_images\results_problem_5,C:\Users\subject\Desktop\SVRT Experiments\SVRT Experiment 3\svrt_images\generated_images\results_problem_5\sample_1_0007.png,,,,,,,,,,,,,,,,,,,,,,,0,0,0,0,0,28,28,28,,,,,,,,,,,,,,j,5,B,A,3,0,Incorrect!,0.2842629000078887,231.7719642999582,None,231.7719642999582,None,232.10527659999207,None,,,,,11,001,2023-04-27_16h10.20.365,uncolored_shuffled,2021.2.3,60.005712573363944,
C:\Users\subject\Desktop\SVRT Experiments\SVRT Experiment 3\svrt_images\generated_images\results_problem_5,C:\Users\subject\Desktop\SVRT Experiments\SVRT Experiment 3\svrt_images\generated_images\results_problem_5\sample_0_0001.png,,,,,,,,,,,,,,,,,,,,,,,0,0,0,0,0,29,29,29,,,,,,,,,,,,,,j,5,B,B,3,1,Correct!,0.33634579996578395,233.47192589996848,None,233.47192589996848,None,233.88852999999654,None,,,,,11,001,2023-04-27_16h10.20.365,uncolored_shuffled,2021.2.3,60.005712573363944,
C:\Users\subject\Desktop\SVRT Experiments\SVRT Experiment 3\svrt_images\generated_images\results_problem_5,C:\Users\subject\Desktop\SVRT Experiments\SVRT Experiment 3\svrt_images\generated_images\results_problem_5\sample_1_0015.png,,,,,,,,,,,,,,,,,,,,,,,0,0,0,0,0,30,30,30,,,,,,,,,,,,,,f,5,A,A,3,1,Correct!,0.48764319997280836,235.28857319999952,None,235.28857319999952,None,235.80523489997722,None,,,,,11,001,2023-04-27_16h10.20.365,uncolored_shuffled,2021.2.3,60.005712573363944,
C:\Users\subject\Desktop\SVRT Experiments\SVRT Experiment 3\svrt_images\generated_images\results_problem_5,C:\Users\subject\Desktop\SVRT Experiments\SVRT Experiment 3\svrt_images\generated_images\results_problem_5\sample_1_0009.png,,,,,,,,,,,,,,,,,,,,,,,0,0,0,0,0,31,31,31,,,,,,,,,,,,,,f,5,A,A,3,1,Correct!,0.5231008999980986,237.20517959992867,None,237.20517959992867,None,237.82185289997142,None,,,,,11,001,2023-04-27_16h10.20.365,uncolored_shuffled,2021.2.3,60.005712573363944,
C:\Users\subject\Desktop\SVRT Experiments\SVRT Experiment 3\svrt_images\generated_images\results_problem_5,C:\Users\subject\Desktop\SVRT Experiments\SVRT Experiment 3\svrt_images\generated_images\results_problem_5\sample_1_0014.png,,,,,,,,,,,,,,,,,,,,,,,0,0,0,0,0,32,32,32,,,,,,,,,,,,,,f,5,A,A,3,1,Correct!,0.8818562000524253,239.2384382999735,None,239.2384382999735,None,240.1884114999557,None,,,,,11,001,2023-04-27_16h10.20.365,uncolored_shuffled,2021.2.3,60.005712573363944,
C:\Users\subject\Desktop\SVRT Experiments\SVRT Experiment 3\svrt_images\generated_images\results_problem_5,C:\Users\subject\Desktop\SVRT Experiments\SVRT Experiment 3\svrt_images\generated_images\results_problem_5\sample_0_0016.png,,,,,,,,,,,,,,,,,,,,,,,0,0,0,0,0,33,33,33,,,,,,,,,,,,,,j,5,B,B,3,1,Correct!,0.7856850000098348,241.63849199994002,None,241.63849199994002,None,242.4717353999149,None,,,,,11,001,2023-04-27_16h10.20.365,uncolored_shuffled,2021.2.3,60.005712573363944,
C:\Users\subject\Desktop\SVRT Experiments\SVRT Experiment 3\svrt_images\generated_images\results_problem_5,,,,,,,,,,,,,,,,,,,,,,,,0,0,0,0,,,,,,,,,,,,,,,,,,,,,,,,,,,,,,,,243.4716937999474,243.4716937999474,space,1.5364147999789566,11,001,2023-04-27_16h10.20.365,uncolored_shuffled,2021.2.3,60.005712573363944,
C:\Users\subject\Desktop\SVRT Experiments\SVRT Experiment 3\svrt_images\generated_images\results_problem_10,,C:\Users\subject\Desktop\SVRT Experiments\SVRT Experiment 3\svrt_images\generated_images\results_problem_10\sample_1_0007.png,,,,,,,,,,,,,,,,,,,,,,0,1,1,1,0,0,0,0,,,,,,,,,,,,,,f,10,A,A,3,1,Correct!,2.0891194000141695,245.05497870000545,None,245.05497870000545,None,247.1716066999361,None,,,,,11,001,2023-04-27_16h10.20.365,uncolored_shuffled,2021.2.3,60.005712573363944,
C:\Users\subject\Desktop\SVRT Experiments\SVRT Experiment 3\svrt_images\generated_images\results_problem_10,,C:\Users\subject\Desktop\SVRT Experiments\SVRT Experiment 3\svrt_images\generated_images\results_problem_10\sample_1_0001.png,,,,,,,,,,,,,,,,,,,,,,0,1,1,1,0,1,1,1,,,,,,,,,,,,,,j,10,B,A,3,0,Incorrect!,1.5800607000710443,248.18824579997454,None,248.18824579997454,None,249.7882037999807,None,,,,,11,001,2023-04-27_16h10.20.365,uncolored_shuffled,2021.2.3,60.005712573363944,
C:\Users\subject\Desktop\SVRT Experiments\SVRT Experiment 3\svrt_images\generated_images\results_problem_10,,C:\Users\subject\Desktop\SVRT Experiments\SVRT Experiment 3\svrt_images\generated_images\results_problem_10\sample_0_0013.png,,,,,,,,,,,,,,,,,,,,,,0,1,1,1,0,2,2,2,,,,,,,,,,,,,,j,10,B,B,3,1,Correct!,1.1546467000152916,250.8215320999734,None,250.8215320999734,None,252.00483599992003,None,,,,,11,001,2023-04-27_16h10.20.365,uncolored_shuffled,2021.2.3,60.005712573363944,
C:\Users\subject\Desktop\SVRT Experiments\SVRT Experiment 3\svrt_images\generated_images\results_problem_10,,C:\Users\subject\Desktop\SVRT Experiments\SVRT Experiment 3\svrt_images\generated_images\results_problem_10\sample_1_0015.png,,,,,,,,,,,,,,,,,,,,,,0,1,1,1,0,3,3,3,,,,,,,,,,,,,,j,10,B,A,3,0,Incorrect!,1.8342267000116408,253.0380888999207,None,253.0380888999207,None,254.9047530000098,None,,,,,11,001,2023-04-27_16h10.20.365,uncolored_shuffled,2021.2.3,60.005712573363944,
C:\Users\subject\Desktop\SVRT Experiments\SVRT Experiment 3\svrt_images\generated_images\results_problem_10,,C:\Users\subject\Desktop\SVRT Experiments\SVRT Experiment 3\svrt_images\generated_images\results_problem_10\sample_1_0016.png,,,,,,,,,,,,,,,,,,,,,,0,1,1,1,0,4,4,4,,,,,,,,,,,,,,j,10,B,A,3,0,Incorrect!,1.0213811000576243,255.95472889998928,None,255.95472889998928,None,257.0047209999757,None,,,,,11,001,2023-04-27_16h10.20.365,uncolored_shuffled,2021.2.3,60.005712573363944,
C:\Users\subject\Desktop\SVRT Experiments\SVRT Experiment 3\svrt_images\generated_images\results_problem_10,,C:\Users\subject\Desktop\SVRT Experiments\SVRT Experiment 3\svrt_images\generated_images\results_problem_10\sample_1_0010.png,,,,,,,,,,,,,,,,,,,,,,0,1,1,1,0,5,5,5,,,,,,,,,,,,,,j,10,B,A,3,0,Incorrect!,1.392725499928929,258.0713848999003,None,258.0713848999003,None,259.48801589990035,None,,,,,11,001,2023-04-27_16h10.20.365,uncolored_shuffled,2021.2.3,60.005712573363944,
C:\Users\subject\Desktop\SVRT Experiments\SVRT Experiment 3\svrt_images\generated_images\results_problem_10,,C:\Users\subject\Desktop\SVRT Experiments\SVRT Experiment 3\svrt_images\generated_images\results_problem_10\sample_0_0015.png,,,,,,,,,,,,,,,,,,,,,,0,1,1,1,0,6,6,6,,,,,,,,,,,,,,j,10,B,B,3,1,Correct!,1.0214630999835208,260.5546207999578,None,260.5546207999578,None,261.60459849995095,None,,,,,11,001,2023-04-27_16h10.20.365,uncolored_shuffled,2021.2.3,60.005712573363944,
C:\Users\subject\Desktop\SVRT Experiments\SVRT Experiment 3\svrt_images\generated_images\results_problem_10,,C:\Users\subject\Desktop\SVRT Experiments\SVRT Experiment 3\svrt_images\generated_images\results_problem_10\sample_0_0012.png,,,,,,,,,,,,,,,,,,,,,,0,1,1,1,0,7,7,7,,,,,,,,,,,,,,j,10,B,B,3,1,Correct!,0.8721825999673456,262.6879317999119,None,262.6879317999119,None,263.5878915999783,None,,,,,11,001,2023-04-27_16h10.20.365,uncolored_shuffled,2021.2.3,60.005712573363944,
C:\Users\subject\Desktop\SVRT Experiments\SVRT Experiment 3\svrt_images\generated_images\results_problem_10,,C:\Users\subject\Desktop\SVRT Experiments\SVRT Experiment 3\svrt_images\generated_images\results_problem_10\sample_1_0012.png,,,,,,,,,,,,,,,,,,,,,,0,1,1,1,0,8,8,8,,,,,,,,,,,,,,j,10,B,A,3,0,Incorrect!,1.0642363999504596,264.6879024999216,None,264.6879024999216,None,265.7711885999888,None,,,,,11,001,2023-04-27_16h10.20.365,uncolored_shuffled,2021.2.3,60.005712573363944,
C:\Users\subject\Desktop\SVRT Experiments\SVRT Experiment 3\svrt_images\generated_images\results_problem_10,,C:\Users\subject\Desktop\SVRT Experiments\SVRT Experiment 3\svrt_images\generated_images\results_problem_10\sample_0_0005.png,,,,,,,,,,,,,,,,,,,,,,0,1,1,1,0,9,9,9,,,,,,,,,,,,,,f,10,A,B,3,0,Incorrect!,0.7849426999455318,266.8711939000059,None,266.8711939000059,None,267.6878469999647,None,,,,,11,001,2023-04-27_16h10.20.365,uncolored_shuffled,2021.2.3,60.005712573363944,
C:\Users\subject\Desktop\SVRT Experiments\SVRT Experiment 3\svrt_images\generated_images\results_problem_10,,C:\Users\subject\Desktop\SVRT Experiments\SVRT Experiment 3\svrt_images\generated_images\results_problem_10\sample_0_0000.png,,,,,,,,,,,,,,,,,,,,,,0,1,1,1,0,10,10,10,,,,,,,,,,,,,,f,10,A,B,3,0,Incorrect!,0.5157766999909654,268.8044388999697,None,268.8044388999697,None,269.33777739992365,None,,,,,11,001,2023-04-27_16h10.20.365,uncolored_shuffled,2021.2.3,60.005712573363944,
C:\Users\subject\Desktop\SVRT Experiments\SVRT Experiment 3\svrt_images\generated_images\results_problem_10,,C:\Users\subject\Desktop\SVRT Experiments\SVRT Experiment 3\svrt_images\generated_images\results_problem_10\sample_1_0009.png,,,,,,,,,,,,,,,,,,,,,,0,1,1,1,0,11,11,11,,,,,,,,,,,,,,f,10,A,A,3,1,Correct!,4.937161299982108,270.471088899998,None,270.471088899998,None,275.45428449998144,None,,,,,11,001,2023-04-27_16h10.20.365,uncolored_shuffled,2021.2.3,60.005712573363944,
C:\Users\subject\Desktop\SVRT Experiments\SVRT Experiment 3\svrt_images\generated_images\results_problem_10,,C:\Users\subject\Desktop\SVRT Experiments\SVRT Experiment 3\svrt_images\generated_images\results_problem_10\sample_1_0011.png,,,,,,,,,,,,,,,,,,,,,,0,1,1,1,0,12,12,12,,,,,,,,,,,,,,f,10,A,A,3,1,Correct!,0.7725229000207037,276.58760309999343,None,276.58760309999343,None,277.4042606999865,None,,,,,11,001,2023-04-27_16h10.20.365,uncolored_shuffled,2021.2.3,60.005712573363944,
C:\Users\subject\Desktop\SVRT Experiments\SVRT Experiment 3\svrt_images\generated_images\results_problem_10,,C:\Users\subject\Desktop\SVRT Experiments\SVRT Experiment 3\svrt_images\generated_images\results_problem_10\sample_0_0006.png,,,,,,,,,,,,,,,,,,,,,,0,1,1,1,0,13,13,13,,,,,,,,,,,,,,j,10,B,B,3,1,Correct!,0.8058764000888914,278.5542369999457,None,278.5542369999457,None,279.40419349994045,None,,,,,11,001,2023-04-27_16h10.20.365,uncolored_shuffled,2021.2.3,60.005712573363944,
C:\Users\subject\Desktop\SVRT Experiments\SVRT Experiment 3\svrt_images\generated_images\results_problem_10,,C:\Users\subject\Desktop\SVRT Experiments\SVRT Experiment 3\svrt_images\generated_images\results_problem_10\sample_1_0004.png,,,,,,,,,,,,,,,,,,,,,,0,1,1,1,0,14,14,14,,,,,,,,,,,,,,f,10,A,A,3,1,Correct!,0.6292572999373078,280.5708821999142,None,280.5708821999142,None,281.2208386999555,None,,,,,11,001,2023-04-27_16h10.20.365,uncolored_shuffled,2021.2.3,60.005712573363944,
C:\Users\subject\Desktop\SVRT Experiments\SVRT Experiment 3\svrt_images\generated_images\results_problem_10,,C:\Users\subject\Desktop\SVRT Experiments\SVRT Experiment 3\svrt_images\generated_images\results_problem_10\sample_1_0014.png,,,,,,,,,,,,,,,,,,,,,,0,1,1,1,0,15,15,15,,,,,,,,,,,,,,j,10,B,A,3,0,Incorrect!,0.7960765999741852,282.4041716000065,None,282.4041716000065,None,283.22080179990735,None,,,,,11,001,2023-04-27_16h10.20.365,uncolored_shuffled,2021.2.3,60.005712573363944,
C:\Users\subject\Desktop\SVRT Experiments\SVRT Experiment 3\svrt_images\generated_images\results_problem_10,,C:\Users\subject\Desktop\SVRT Experiments\SVRT Experiment 3\svrt_images\generated_images\results_problem_10\sample_1_0013.png,,,,,,,,,,,,,,,,,,,,,,0,1,1,1,0,16,16,16,,,,,,,,,,,,,,j,10,B,A,3,0,Incorrect!,0.49217280000448227,284.4041138999164,None,284.4041138999164,None,284.920758399996,None,,,,,11,001,2023-04-27_16h10.20.365,uncolored_shuffled,2021.2.3,60.005712573363944,
C:\Users\subject\Desktop\SVRT Experiments\SVRT Experiment 3\svrt_images\generated_images\results_problem_10,,C:\Users\subject\Desktop\SVRT Experiments\SVRT Experiment 3\svrt_images\generated_images\results_problem_10\sample_0_0010.png,,,,,,,,,,,,,,,,,,,,,,0,1,1,1,0,17,17,17,,,,,,,,,,,,,,j,10,B,B,3,1,Correct!,0.863284399965778,286.12073709990364,None,286.12073709990364,None,287.0374039999442,None,,,,,11,001,2023-04-27_16h10.20.365,uncolored_shuffled,2021.2.3,60.005712573363944,
C:\Users\subject\Desktop\SVRT Experiments\SVRT Experiment 3\svrt_images\generated_images\results_problem_10,,C:\Users\subject\Desktop\SVRT Experiments\SVRT Experiment 3\svrt_images\generated_images\results_problem_10\sample_1_0002.png,,,,,,,,,,,,,,,,,,,,,,0,1,1,1,0,18,18,18,,,,,,,,,,,,,,f,10,A,A,3,1,Correct!,0.5779848999809474,288.2540441999445,None,288.2540441999445,None,288.87065769999754,None,,,,,11,001,2023-04-27_16h10.20.365,uncolored_shuffled,2021.2.3,60.005712573363944,
C:\Users\subject\Desktop\SVRT Experiments\SVRT Experiment 3\svrt_images\generated_images\results_problem_10,,C:\Users\subject\Desktop\SVRT Experiments\SVRT Experiment 3\svrt_images\generated_images\results_problem_10\sample_0_0002.png,,,,,,,,,,,,,,,,,,,,,,0,1,1,1,0,19,19,19,,,,,,,,,,,,,,j,10,B,B,3,1,Correct!,0.9841783998999745,290.10399719991256,None,290.10399719991256,None,291.1206070999615,None,,,,,11,001,2023-04-27_16h10.20.365,uncolored_shuffled,2021.2.3,60.005712573363944,
C:\Users\subject\Desktop\SVRT Experiments\SVRT Experiment 3\svrt_images\generated_images\results_problem_10,,C:\Users\subject\Desktop\SVRT Experiments\SVRT Experiment 3\svrt_images\generated_images\results_problem_10\sample_0_0011.png,,,,,,,,,,,,,,,,,,,,,,0,1,1,1,0,20,20,20,,,,,,,,,,,,,,j,10,B,B,3,1,Correct!,1.0375929999863729,292.3706153999083,None,292.3706153999083,None,293.43725069996435,None,,,,,11,001,2023-04-27_16h10.20.365,uncolored_shuffled,2021.2.3,60.005712573363944,
C:\Users\subject\Desktop\SVRT Experiments\SVRT Experiment 3\svrt_images\generated_images\results_problem_10,,C:\Users\subject\Desktop\SVRT Experiments\SVRT Experiment 3\svrt_images\generated_images\results_problem_10\sample_0_0003.png,,,,,,,,,,,,,,,,,,,,,,0,1,1,1,0,21,21,21,,,,,,,,,,,,,,j,10,B,B,3,1,Correct!,0.7688283000607044,294.68720019992907,None,294.68720019992907,None,295.520521099912,None,,,,,11,001,2023-04-27_16h10.20.365,uncolored_shuffled,2021.2.3,60.005712573363944,
C:\Users\subject\Desktop\SVRT Experiments\SVRT Experiment 3\svrt_images\generated_images\results_problem_10,,C:\Users\subject\Desktop\SVRT Experiments\SVRT Experiment 3\svrt_images\generated_images\results_problem_10\sample_0_0008.png,,,,,,,,,,,,,,,,,,,,,,0,1,1,1,0,22,22,22,,,,,,,,,,,,,,j,10,B,B,3,1,Correct!,0.6849800000200048,296.7871755999513,None,296.7871755999513,None,297.53713949990924,None,,,,,11,001,2023-04-27_16h10.20.365,uncolored_shuffled,2021.2.3,60.005712573363944,
C:\Users\subject\Desktop\SVRT Experiments\SVRT Experiment 3\svrt_images\generated_images\results_problem_10,,C:\Users\subject\Desktop\SVRT Experiments\SVRT Experiment 3\svrt_images\generated_images\results_problem_10\sample_0_0009.png,,,,,,,,,,,,,,,,,,,,,,0,1,1,1,0,23,23,23,,,,,,,,,,,,,,j,10,B,B,3,1,Correct!,1.2037904999451712,298.82041970000137,None,298.82041970000137,None,300.1037390999263,None,,,,,11,001,2023-04-27_16h10.20.365,uncolored_shuffled,2021.2.3,60.005712573363944,
C:\Users\subject\Desktop\SVRT Experiments\SVRT Experiment 3\svrt_images\generated_images\results_problem_10,,C:\Users\subject\Desktop\SVRT Experiments\SVRT Experiment 3\svrt_images\generated_images\results_problem_10\sample_1_0005.png,,,,,,,,,,,,,,,,,,,,,,0,1,1,1,0,24,24,24,,,,,,,,,,,,,,,,,,,,,,,,,,,,301.10373440000694,301.10373440000694,space,1.304370400030166,11,001,2023-04-27_16h10.20.365,uncolored_shuffled,2021.2.3,60.005712573363944,
C:\Users\subject\Desktop\SVRT Experiments\SVRT Experiment 3\svrt_images\generated_images\results_problem_12,,C:\Users\subject\Desktop\SVRT Experiments\SVRT Experiment 3\svrt_images\generated_images\results_problem_10\sample_1_0005.png,C:\Users\subject\Desktop\SVRT Experiments\SVRT Experiment 3\svrt_images\generated_images\results_problem_12\sample_0_0016.png,,,,,,,,,,,,,,,,,,,,,0,2,2,2,0,0,0,0,,,,,,,,,,,,,,f,12,A,B,3,0,Incorrect!,2.2823301000753418,302.45370129996445,None,302.45370129996445,None,304.7536727999104,None,,,,,11,001,2023-04-27_16h10.20.365,uncolored_shuffled,2021.2.3,60.005712573363944,
C:\Users\subject\Desktop\SVRT Experiments\SVRT Experiment 3\svrt_images\generated_images\results_problem_12,,C:\Users\subject\Desktop\SVRT Experiments\SVRT Experiment 3\svrt_images\generated_images\results_problem_10\sample_1_0005.png,C:\Users\subject\Desktop\SVRT Experiments\SVRT Experiment 3\svrt_images\generated_images\results_problem_12\sample_1_0016.png,,,,,,,,,,,,,,,,,,,,,0,2,2,2,0,1,1,1,,,,,,,,,,,,,,j,12,B,A,3,0,Incorrect!,2.829735500039533,305.77029769995715,None,305.77029769995715,None,308.62020669993944,None,,,,,11,001,2023-04-27_16h10.20.365,uncolored_shuffled,2021.2.3,60.005712573363944,
C:\Users\subject\Desktop\SVRT Experiments\SVRT Experiment 3\svrt_images\generated_images\results_problem_12,,C:\Users\subject\Desktop\SVRT Experiments\SVRT Experiment 3\svrt_images\generated_images\results_problem_10\sample_1_0005.png,C:\Users\subject\Desktop\SVRT Experiments\SVRT Experiment 3\svrt_images\generated_images\results_problem_12\sample_0_0008.png,,,,,,,,,,,,,,,,,,,,,0,2,2,2,0,2,2,2,,,,,,,,,,,,,,j,12,B,B,3,1,Correct!,0.6505416999571025,309.6535376999527,None,309.6535376999527,None,310.3368360999739,None,,,,,11,001,2023-04-27_16h10.20.365,uncolored_shuffled,2021.2.3,60.005712573363944,
C:\Users\subject\Desktop\SVRT Experiments\SVRT Experiment 3\svrt_images\generated_images\results_problem_12,,C:\Users\subject\Desktop\SVRT Experiments\SVRT Experiment 3\svrt_images\generated_images\results_problem_10\sample_1_0005.png,C:\Users\subject\Desktop\SVRT Experiments\SVRT Experiment 3\svrt_images\generated_images\results_problem_12\sample_0_0004.png,,,,,,,,,,,,,,,,,,,,,0,2,2,2,0,3,3,3,,,,,,,,,,,,,,f,12,A,B,3,0,Incorrect!,2.1332584000192583,311.38681049994193,None,311.38681049994193,None,313.53675709990785,None,,,,,11,001,2023-04-27_16h10.20.365,uncolored_shuffled,2021.2.3,60.005712573363944,
C:\Users\subject\Desktop\SVRT Experiments\SVRT Experiment 3\svrt_images\generated_images\results_problem_12,,C:\Users\subject\Desktop\SVRT Experiments\SVRT Experiment 3\svrt_images\generated_images\results_problem_10\sample_1_0005.png,C:\Users\subject\Desktop\SVRT Experiments\SVRT Experiment 3\svrt_images\generated_images\results_problem_12\sample_0_0009.png,,,,,,,,,,,,,,,,,,,,,0,2,2,2,0,4,4,4,,,,,,,,,,,,,,f,12,A,B,3,0,Incorrect!,5.9492199999513105,314.58677279995754,None,314.58677279995754,None,320.5532613999676,None,,,,,11,001,2023-04-27_16h10.20.365,uncolored_shuffled,2021.2.3,60.005712573363944,
C:\Users\subject\Desktop\SVRT Experiments\SVRT Experiment 3\svrt_images\generated_images\results_problem_12,,C:\Users\subject\Desktop\SVRT Experiments\SVRT Experiment 3\svrt_images\generated_images\results_problem_10\sample_1_0005.png,C:\Users\subject\Desktop\SVRT Experiments\SVRT Experiment 3\svrt_images\generated_images\results_problem_12\sample_0_0013.png,,,,,,,,,,,,,,,,,,,,,0,2,2,2,0,5,5,5,,,,,,,,,,,,,,f,12,A,B,3,0,Incorrect!,0.8600808999035507,321.6199948999565,None,321.6199948999565,None,322.50325879990123,None,,,,,11,001,2023-04-27_16h10.20.365,uncolored_shuffled,2021.2.3,60.005712573363944,
C:\Users\subject\Desktop\SVRT Experiments\SVRT Experiment 3\svrt_images\generated_images\results_problem_12,,C:\Users\subject\Desktop\SVRT Experiments\SVRT Experiment 3\svrt_images\generated_images\results_problem_10\sample_1_0005.png,C:\Users\subject\Desktop\SVRT Experiments\SVRT Experiment 3\svrt_images\generated_images\results_problem_12\sample_1_0003.png,,,,,,,,,,,,,,,,,,,,,0,2,2,2,0,6,6,6,,,,,,,,,,,,,,f,12,A,A,3,1,Correct!,0.5734162000007927,323.58661989995744,None,323.58661989995744,None,324.1875594999874,None,,,,,11,001,2023-04-27_16h10.20.365,uncolored_shuffled,2021.2.3,60.005712573363944,
C:\Users\subject\Desktop\SVRT Experiments\SVRT Experiment 3\svrt_images\generated_images\results_problem_12,,C:\Users\subject\Desktop\SVRT Experiments\SVRT Experiment 3\svrt_images\generated_images\results_problem_10\sample_1_0005.png,C:\Users\subject\Desktop\SVRT Experiments\SVRT Experiment 3\svrt_images\generated_images\results_problem_12\sample_1_0006.png,,,,,,,,,,,,,,,,,,,,,0,2,2,2,0,7,7,7,,,,,,,,,,,,,,j,12,B,A,3,0,Incorrect!,0.7980697999009863,325.3699037999613,None,325.3699037999613,None,326.1865392999025,None,,,,,11,001,2023-04-27_16h10.20.365,uncolored_shuffled,2021.2.3,60.005712573363944,
C:\Users\subject\Desktop\SVRT Experiments\SVRT Experiment 3\svrt_images\generated_images\results_problem_12,,C:\Users\subject\Desktop\SVRT Experiments\SVRT Experiment 3\svrt_images\generated_images\results_problem_10\sample_1_0005.png,C:\Users\subject\Desktop\SVRT Experiments\SVRT Experiment 3\svrt_images\generated_images\results_problem_12\sample_0_0006.png,,,,,,,,,,,,,,,,,,,,,0,2,2,2,0,8,8,8,,,,,,,,,,,,,,f,12,A,B,3,0,Incorrect!,0.8496394000248984,327.28648719994817,None,327.28648719994817,None,328.15315319993533,None,,,,,11,001,2023-04-27_16h10.20.365,uncolored_shuffled,2021.2.3,60.005712573363944,
C:\Users\subject\Desktop\SVRT Experiments\SVRT Experiment 3\svrt_images\generated_images\results_problem_12,,C:\Users\subject\Desktop\SVRT Experiments\SVRT Experiment 3\svrt_images\generated_images\results_problem_10\sample_1_0005.png,C:\Users\subject\Desktop\SVRT Experiments\SVRT Experiment 3\svrt_images\generated_images\results_problem_12\sample_0_0015.png,,,,,,,,,,,,,,,,,,,,,0,2,2,2,0,9,9,9,,,,,,,,,,,,,,f,12,A,B,3,0,Incorrect!,0.779017599998042,329.25306269992143,None,329.25306269992143,None,330.05312359996606,None,,,,,11,001,2023-04-27_16h10.20.365,uncolored_shuffled,2021.2.3,60.005712573363944,
C:\Users\subject\Desktop\SVRT Experiments\SVRT Experiment 3\svrt_images\generated_images\results_problem_12,,C:\Users\subject\Desktop\SVRT Experiments\SVRT Experiment 3\svrt_images\generated_images\results_problem_10\sample_1_0005.png,C:\Users\subject\Desktop\SVRT Experiments\SVRT Experiment 3\svrt_images\generated_images\results_problem_12\sample_0_0007.png,,,,,,,,,,,,,,,,,,,,,0,2,2,2,0,10,10,10,,,,,,,,,,,,,,j,12,B,B,3,1,Correct!,0.8224728000350296,331.1697430999484,None,331.1697430999484,None,332.0197322999593,None,,,,,11,001,2023-04-27_16h10.20.365,uncolored_shuffled,2021.2.3,60.005712573363944,
C:\Users\subject\Desktop\SVRT Experiments\SVRT Experiment 3\svrt_images\generated_images\results_problem_12,,C:\Users\subject\Desktop\SVRT Experiments\SVRT Experiment 3\svrt_images\generated_images\results_problem_10\sample_1_0005.png,C:\Users\subject\Desktop\SVRT Experiments\SVRT Experiment 3\svrt_images\generated_images\results_problem_12\sample_0_0003.png,,,,,,,,,,,,,,,,,,,,,0,2,2,2,0,11,11,11,,,,,,,,,,,,,,f,12,A,B,3,0,Incorrect!,1.0231896999757737,333.1530577999074,None,333.1530577999074,None,334.202990999911,None,,,,,11,001,2023-04-27_16h10.20.365,uncolored_shuffled,2021.2.3,60.005712573363944,
C:\Users\subject\Desktop\SVRT Experiments\SVRT Experiment 3\svrt_images\generated_images\results_problem_12,,C:\Users\subject\Desktop\SVRT Experiments\SVRT Experiment 3\svrt_images\generated_images\results_problem_10\sample_1_0005.png,C:\Users\subject\Desktop\SVRT Experiments\SVRT Experiment 3\svrt_images\generated_images\results_problem_12\sample_0_0000.png,,,,,,,,,,,,,,,,,,,,,0,2,2,2,0,12,12,12,,,,,,,,,,,,,,f,12,A,B,3,0,Incorrect!,0.6392407000530511,335.3530061999336,None,335.3530061999336,None,336.03632479999214,None,,,,,11,001,2023-04-27_16h10.20.365,uncolored_shuffled,2021.2.3,60.005712573363944,
C:\Users\subject\Desktop\SVRT Experiments\SVRT Experiment 3\svrt_images\generated_images\results_problem_12,,C:\Users\subject\Desktop\SVRT Experiments\SVRT Experiment 3\svrt_images\generated_images\results_problem_10\sample_1_0005.png,C:\Users\subject\Desktop\SVRT Experiments\SVRT Experiment 3\svrt_images\generated_images\results_problem_12\sample_1_0013.png,,,,,,,,,,,,,,,,,,,,,0,2,2,2,0,13,13,13,,,,,,,,,,,,,,f,12,A,A,3,1,Correct!,0.6139378000516444,337.1862246999517,None,337.1862246999517,None,337.8362602000125,None,,,,,11,001,2023-04-27_16h10.20.365,uncolored_shuffled,2021.2.3,60.005712573363944,
C:\Users\subject\Desktop\SVRT Experiments\SVRT Experiment 3\svrt_images\generated_images\results_problem_12,,C:\Users\subject\Desktop\SVRT Experiments\SVRT Experiment 3\svrt_images\generated_images\results_problem_10\sample_1_0005.png,C:\Users\subject\Desktop\SVRT Experiments\SVRT Experiment 3\svrt_images\generated_images\results_problem_12\sample_1_0012.png,,,,,,,,,,,,,,,,,,,,,0,2,2,2,0,14,14,14,,,,,,,,,,,,,,j,12,B,A,3,0,Incorrect!,0.7811676999554038,339.0029232999077,None,339.0029232999077,None,339.81956849992275,None,,,,,11,001,2023-04-27_16h10.20.365,uncolored_shuffled,2021.2.3,60.005712573363944,
C:\Users\subject\Desktop\SVRT Experiments\SVRT Experiment 3\svrt_images\generated_images\results_problem_12,,C:\Users\subject\Desktop\SVRT Experiments\SVRT Experiment 3\svrt_images\generated_images\results_problem_10\sample_1_0005.png,C:\Users\subject\Desktop\SVRT Experiments\SVRT Experiment 3\svrt_images\generated_images\results_problem_12\sample_1_0015.png,,,,,,,,,,,,,,,,,,,,,0,2,2,2,0,15,15,15,,,,,,,,,,,,,,f,12,A,A,3,1,Correct!,0.9652783999918029,341.00288799998816,None,341.00288799998816,None,341.98615000001155,None,,,,,11,001,2023-04-27_16h10.20.365,uncolored_shuffled,2021.2.3,60.005712573363944,
C:\Users\subject\Desktop\SVRT Experiments\SVRT Experiment 3\svrt_images\generated_images\results_problem_12,,C:\Users\subject\Desktop\SVRT Experiments\SVRT Experiment 3\svrt_images\generated_images\results_problem_10\sample_1_0005.png,C:\Users\subject\Desktop\SVRT Experiments\SVRT Experiment 3\svrt_images\generated_images\results_problem_12\sample_0_0012.png,,,,,,,,,,,,,,,,,,,,,0,2,2,2,0,16,16,16,,,,,,,,,,,,,,j,12,B,B,3,1,Correct!,2.598638299969025,343.1694323999109,None,343.1694323999109,None,345.7860886999406,None,,,,,11,001,2023-04-27_16h10.20.365,uncolored_shuffled,2021.2.3,60.005712573363944,
C:\Users\subject\Desktop\SVRT Experiments\SVRT Experiment 3\svrt_images\generated_images\results_problem_12,,C:\Users\subject\Desktop\SVRT Experiments\SVRT Experiment 3\svrt_images\generated_images\results_problem_10\sample_1_0005.png,C:\Users\subject\Desktop\SVRT Experiments\SVRT Experiment 3\svrt_images\generated_images\results_problem_12\sample_0_0001.png,,,,,,,,,,,,,,,,,,,,,0,2,2,2,0,17,17,17,,,,,,,,,,,,,,j,12,B,B,3,1,Correct!,0.6779981000581756,346.9860630999319,None,346.9860630999319,None,347.7193864999572,None,,,,,11,001,2023-04-27_16h10.20.365,uncolored_shuffled,2021.2.3,60.005712573363944,
C:\Users\subject\Desktop\SVRT Experiments\SVRT Experiment 3\svrt_images\generated_images\results_problem_12,,C:\Users\subject\Desktop\SVRT Experiments\SVRT Experiment 3\svrt_images\generated_images\results_problem_10\sample_1_0005.png,C:\Users\subject\Desktop\SVRT Experiments\SVRT Experiment 3\svrt_images\generated_images\results_problem_12\sample_0_0002.png,,,,,,,,,,,,,,,,,,,,,0,2,2,2,0,18,18,18,,,,,,,,,,,,,,f,12,A,B,3,0,Incorrect!,1.160217099939473,348.93604659999255,None,348.93604659999255,None,350.1526689999737,None,,,,,11,001,2023-04-27_16h10.20.365,uncolored_shuffled,2021.2.3,60.005712573363944,
C:\Users\subject\Desktop\SVRT Experiments\SVRT Experiment 3\svrt_images\generated_images\results_problem_12,,C:\Users\subject\Desktop\SVRT Experiments\SVRT Experiment 3\svrt_images\generated_images\results_problem_10\sample_1_0005.png,C:\Users\subject\Desktop\SVRT Experiments\SVRT Experiment 3\svrt_images\generated_images\results_problem_12\sample_1_0001.png,,,,,,,,,,,,,,,,,,,,,0,2,2,2,0,19,19,19,,,,,,,,,,,,,,f,12,A,A,3,1,Correct!,0.7022873000241816,351.3859630000079,None,351.3859630000079,None,352.15263289993163,None,,,,,11,001,2023-04-27_16h10.20.365,uncolored_shuffled,2021.2.3,60.005712573363944,
C:\Users\subject\Desktop\SVRT Experiments\SVRT Experiment 3\svrt_images\generated_images\results_problem_12,,C:\Users\subject\Desktop\SVRT Experiments\SVRT Experiment 3\svrt_images\generated_images\results_problem_10\sample_1_0005.png,C:\Users\subject\Desktop\SVRT Experiments\SVRT Experiment 3\svrt_images\generated_images\results_problem_12\sample_0_0005.png,,,,,,,,,,,,,,,,,,,,,0,2,2,2,0,20,20,20,,,,,,,,,,,,,,j,12,B,B,3,1,Correct!,0.821576000074856,353.4026213999605,None,353.4026213999605,None,354.2692211999092,None,,,,,11,001,2023-04-27_16h10.20.365,uncolored_shuffled,2021.2.3,60.005712573363944,
C:\Users\subject\Desktop\SVRT Experiments\SVRT Experiment 3\svrt_images\generated_images\results_problem_12,,C:\Users\subject\Desktop\SVRT Experiments\SVRT Experiment 3\svrt_images\generated_images\results_problem_10\sample_1_0005.png,C:\Users\subject\Desktop\SVRT Experiments\SVRT Experiment 3\svrt_images\generated_images\results_problem_12\sample_1_0008.png,,,,,,,,,,,,,,,,,,,,,0,2,2,2,0,21,21,21,,,,,,,,,,,,,,f,12,A,A,3,1,Correct!,0.8482742999913171,355.53590279992204,None,355.53590279992204,None,356.40254019992426,None,,,,,11,001,2023-04-27_16h10.20.365,uncolored_shuffled,2021.2.3,60.005712573363944,
C:\Users\subject\Desktop\SVRT Experiments\SVRT Experiment 3\svrt_images\generated_images\results_problem_12,,C:\Users\subject\Desktop\SVRT Experiments\SVRT Experiment 3\svrt_images\generated_images\results_problem_10\sample_1_0005.png,C:\Users\subject\Desktop\SVRT Experiments\SVRT Experiment 3\svrt_images\generated_images\results_problem_12\sample_0_0011.png,,,,,,,,,,,,,,,,,,,,,0,2,2,2,0,22,22,22,,,,,,,,,,,,,,j,12,B,B,3,1,Correct!,0.6903387000784278,357.68582459993195,None,357.68582459993195,None,358.4358172999928,None,,,,,11,001,2023-04-27_16h10.20.365,uncolored_shuffled,2021.2.3,60.005712573363944,
C:\Users\subject\Desktop\SVRT Experiments\SVRT Experiment 3\svrt_images\generated_images\results_problem_12,,C:\Users\subject\Desktop\SVRT Experiments\SVRT Experiment 3\svrt_images\generated_images\results_problem_10\sample_1_0005.png,C:\Users\subject\Desktop\SVRT Experiments\SVRT Experiment 3\svrt_images\generated_images\results_problem_12\sample_1_0011.png,,,,,,,,,,,,,,,,,,,,,0,2,2,2,0,23,23,23,,,,,,,,,,,,,,f,12,A,A,3,1,Correct!,0.5531553999753669,359.7191227999283,None,359.7191227999283,None,360.33578029996715,None,,,,,11,001,2023-04-27_16h10.20.365,uncolored_shuffled,2021.2.3,60.005712573363944,
C:\Users\subject\Desktop\SVRT Experiments\SVRT Experiment 3\svrt_images\generated_images\results_problem_12,,C:\Users\subject\Desktop\SVRT Experiments\SVRT Experiment 3\svrt_images\generated_images\results_problem_10\sample_1_0005.png,C:\Users\subject\Desktop\SVRT Experiments\SVRT Experiment 3\svrt_images\generated_images\results_problem_12\sample_0_0014.png,,,,,,,,,,,,,,,,,,,,,0,2,2,2,0,24,24,24,,,,,,,,,,,,,,f,12,A,B,3,0,Incorrect!,0.7244469000725076,361.6357539999299,None,361.6357539999299,None,362.3857205999084,None,,,,,11,001,2023-04-27_16h10.20.365,uncolored_shuffled,2021.2.3,60.005712573363944,
C:\Users\subject\Desktop\SVRT Experiments\SVRT Experiment 3\svrt_images\generated_images\results_problem_12,,C:\Users\subject\Desktop\SVRT Experiments\SVRT Experiment 3\svrt_images\generated_images\results_problem_10\sample_1_0005.png,C:\Users\subject\Desktop\SVRT Experiments\SVRT Experiment 3\svrt_images\generated_images\results_problem_12\sample_1_0010.png,,,,,,,,,,,,,,,,,,,,,0,2,2,2,0,25,25,25,,,,,,,,,,,,,,f,12,A,A,3,1,Correct!,0.4896996000315994,363.7023901999928,None,363.7023901999928,None,364.2523763999343,None,,,,,11,001,2023-04-27_16h10.20.365,uncolored_shuffled,2021.2.3,60.005712573363944,
C:\Users\subject\Desktop\SVRT Experiments\SVRT Experiment 3\svrt_images\generated_images\results_problem_12,,C:\Users\subject\Desktop\SVRT Experiments\SVRT Experiment 3\svrt_images\generated_images\results_problem_10\sample_1_0005.png,C:\Users\subject\Desktop\SVRT Experiments\SVRT Experiment 3\svrt_images\generated_images\results_problem_12\sample_1_0000.png,,,,,,,,,,,,,,,,,,,,,0,2,2,2,0,26,26,26,,,,,,,,,,,,,,f,12,A,A,3,1,Correct!,0.5584907999727875,365.58568819996435,None,365.58568819996435,None,366.1856428999454,None,,,,,11,001,2023-04-27_16h10.20.365,uncolored_shuffled,2021.2.3,60.005712573363944,
C:\Users\subject\Desktop\SVRT Experiments\SVRT Experiment 3\svrt_images\generated_images\results_problem_12,,C:\Users\subject\Desktop\SVRT Experiments\SVRT Experiment 3\svrt_images\generated_images\results_problem_10\sample_1_0005.png,C:\Users\subject\Desktop\SVRT Experiments\SVRT Experiment 3\svrt_images\generated_images\results_problem_12\sample_1_0014.png,,,,,,,,,,,,,,,,,,,,,0,2,2,2,0,27,27,27,,,,,,,,,,,,,,f,12,A,A,3,1,Correct!,0.7446302000898868,367.53564299992286,None,367.53564299992286,None,368.3022437999025,None,,,,,11,001,2023-04-27_16h10.20.365,uncolored_shuffled,2021.2.3,60.005712573363944,
C:\Users\subject\Desktop\SVRT Experiments\SVRT Experiment 3\svrt_images\generated_images\results_problem_12,,C:\Users\subject\Desktop\SVRT Experiments\SVRT Experiment 3\svrt_images\generated_images\results_problem_10\sample_1_0005.png,C:\Users\subject\Desktop\SVRT Experiments\SVRT Experiment 3\svrt_images\generated_images\results_problem_12\sample_1_0007.png,,,,,,,,,,,,,,,,,,,,,0,2,2,2,0,28,28,28,,,,,,,,,,,,,,f,12,A,A,3,1,Correct!,0.6598973999498412,369.65227039996535,None,369.65227039996535,None,370.3355345999589,None,,,,,11,001,2023-04-27_16h10.20.365,uncolored_shuffled,2021.2.3,60.005712573363944,
C:\Users\subject\Desktop\SVRT Experiments\SVRT Experiment 3\svrt_images\generated_images\results_problem_12,,C:\Users\subject\Desktop\SVRT Experiments\SVRT Experiment 3\svrt_images\generated_images\results_problem_10\sample_1_0005.png,C:\Users\subject\Desktop\SVRT Experiments\SVRT Experiment 3\svrt_images\generated_images\results_problem_12\sample_1_0009.png,,,,,,,,,,,,,,,,,,,,,0,2,2,2,0,29,29,29,,,,,,,,,,,,,,f,12,A,A,3,1,Correct!,0.6978926999727264,371.70216190000065,None,371.70216190000065,None,372.50218399998266,None,,,,,11,001,2023-04-27_16h10.20.365,uncolored_shuffled,2021.2.3,60.005712573363944,
C:\Users\subject\Desktop\SVRT Experiments\SVRT Experiment 3\svrt_images\generated_images\results_problem_12,,C:\Users\subject\Desktop\SVRT Experiments\SVRT Experiment 3\svrt_images\generated_images\results_problem_10\sample_1_0005.png,C:\Users\subject\Desktop\SVRT Experiments\SVRT Experiment 3\svrt_images\generated_images\results_problem_12\sample_1_0002.png,,,,,,,,,,,,,,,,,,,,,0,2,2,2,0,30,30,30,,,,,,,,,,,,,,f,12,A,A,3,1,Correct!,0.5780922999838367,373.9021536000073,None,373.9021536000073,None,374.51879609993193,None,,,,,11,001,2023-04-27_16h10.20.365,uncolored_shuffled,2021.2.3,60.005712573363944,
C:\Users\subject\Desktop\SVRT Experiments\SVRT Experiment 3\svrt_images\generated_images\results_problem_12,,C:\Users\subject\Desktop\SVRT Experiments\SVRT Experiment 3\svrt_images\generated_images\results_problem_10\sample_1_0005.png,C:\Users\subject\Desktop\SVRT Experiments\SVRT Experiment 3\svrt_images\generated_images\results_problem_12\sample_0_0010.png,,,,,,,,,,,,,,,,,,,,,0,2,2,2,0,31,31,31,,,,,,,,,,,,,,j,12,B,B,3,1,Correct!,1.353474700008519,375.9187784999376,None,375.9187784999376,None,377.33541029994376,None,,,,,11,001,2023-04-27_16h10.20.365,uncolored_shuffled,2021.2.3,60.005712573363944,
C:\Users\subject\Desktop\SVRT Experiments\SVRT Experiment 3\svrt_images\generated_images\results_problem_12,,C:\Users\subject\Desktop\SVRT Experiments\SVRT Experiment 3\svrt_images\generated_images\results_problem_10\sample_1_0005.png,C:\Users\subject\Desktop\SVRT Experiments\SVRT Experiment 3\svrt_images\generated_images\results_problem_12\sample_1_0005.png,,,,,,,,,,,,,,,,,,,,,0,2,2,2,0,32,32,32,,,,,,,,,,,,,,,,,,,,,,,,,,,,378.3353627999313,378.3353627999313,space,0.9287927000550553,11,001,2023-04-27_16h10.20.365,uncolored_shuffled,2021.2.3,60.005712573363944,
C:\Users\subject\Desktop\SVRT Experiments\SVRT Experiment 3\svrt_images\generated_images\results_problem_1,,C:\Users\subject\Desktop\SVRT Experiments\SVRT Experiment 3\svrt_images\generated_images\results_problem_10\sample_1_0005.png,C:\Users\subject\Desktop\SVRT Experiments\SVRT Experiment 3\svrt_images\generated_images\results_problem_12\sample_1_0005.png,C:\Users\subject\Desktop\SVRT Experiments\SVRT Experiment 3\svrt_images\generated_images\results_problem_1\sample_1_0015.png,,,,,,,,,,,,,,,,,,,,0,3,3,3,0,0,0,0,,,,,,,,,,,,,,j,1,B,A,3,0,Incorrect!,1.4341176999732852,379.3020566999912,None,379.3020566999912,None,380.7686898999382,None,,,,,11,001,2023-04-27_16h10.20.365,uncolored_shuffled,2021.2.3,60.005712573363944,
C:\Users\subject\Desktop\SVRT Experiments\SVRT Experiment 3\svrt_images\generated_images\results_problem_1,,C:\Users\subject\Desktop\SVRT Experiments\SVRT Experiment 3\svrt_images\generated_images\results_problem_10\sample_1_0005.png,C:\Users\subject\Desktop\SVRT Experiments\SVRT Experiment 3\svrt_images\generated_images\results_problem_12\sample_1_0005.png,C:\Users\subject\Desktop\SVRT Experiments\SVRT Experiment 3\svrt_images\generated_images\results_problem_1\sample_0_0007.png,,,,,,,,,,,,,,,,,,,,0,3,3,3,0,1,1,1,,,,,,,,,,,,,,f,1,A,B,3,0,Incorrect!,1.0547560999402776,381.7853008999955,None,381.7853008999955,None,382.8686290999176,None,,,,,11,001,2023-04-27_16h10.20.365,uncolored_shuffled,2021.2.3,60.005712573363944,
C:\Users\subject\Desktop\SVRT Experiments\SVRT Experiment 3\svrt_images\generated_images\results_problem_1,,C:\Users\subject\Desktop\SVRT Experiments\SVRT Experiment 3\svrt_images\generated_images\results_problem_10\sample_1_0005.png,C:\Users\subject\Desktop\SVRT Experiments\SVRT Experiment 3\svrt_images\generated_images\results_problem_12\sample_1_0005.png,C:\Users\subject\Desktop\SVRT Experiments\SVRT Experiment 3\svrt_images\generated_images\results_problem_1\sample_0_0009.png,,,,,,,,,,,,,,,,,,,,0,3,3,3,0,2,2,2,,,,,,,,,,,,,,f,1,A,B,3,0,Incorrect!,0.7701523000141606,383.90195809991565,None,383.90195809991565,None,384.7019366999157,None,,,,,11,001,2023-04-27_16h10.20.365,uncolored_shuffled,2021.2.3,60.005712573363944,
C:\Users\subject\Desktop\SVRT Experiments\SVRT Experiment 3\svrt_images\generated_images\results_problem_1,,C:\Users\subject\Desktop\SVRT Experiments\SVRT Experiment 3\svrt_images\generated_images\results_problem_10\sample_1_0005.png,C:\Users\subject\Desktop\SVRT Experiments\SVRT Experiment 3\svrt_images\generated_images\results_problem_12\sample_1_0005.png,C:\Users\subject\Desktop\SVRT Experiments\SVRT Experiment 3\svrt_images\generated_images\results_problem_1\sample_0_0005.png,,,,,,,,,,,,,,,,,,,,0,3,3,3,0,3,3,3,,,,,,,,,,,,,,f,1,A,B,3,0,Incorrect!,1.8880721000023186,385.75190559995826,None,385.75190559995826,None,387.6685271000024,None,,,,,11,001,2023-04-27_16h10.20.365,uncolored_shuffled,2021.2.3,60.005712573363944,
C:\Users\subject\Desktop\SVRT Experiments\SVRT Experiment 3\svrt_images\generated_images\results_problem_1,,C:\Users\subject\Desktop\SVRT Experiments\SVRT Experiment 3\svrt_images\generated_images\results_problem_10\sample_1_0005.png,C:\Users\subject\Desktop\SVRT Experiments\SVRT Experiment 3\svrt_images\generated_images\results_problem_12\sample_1_0005.png,C:\Users\subject\Desktop\SVRT Experiments\SVRT Experiment 3\svrt_images\generated_images\results_problem_1\sample_1_0011.png,,,,,,,,,,,,,,,,,,,,0,3,3,3,0,4,4,4,,,,,,,,,,,,,,j,1,B,A,3,0,Incorrect!,0.79362259991467,388.7185080999043,None,388.7185080999043,None,389.53514319995884,None,,,,,11,001,2023-04-27_16h10.20.365,uncolored_shuffled,2021.2.3,60.005712573363944,
C:\Users\subject\Desktop\SVRT Experiments\SVRT Experiment 3\svrt_images\generated_images\results_problem_1,,C:\Users\subject\Desktop\SVRT Experiments\SVRT Experiment 3\svrt_images\generated_images\results_problem_10\sample_1_0005.png,C:\Users\subject\Desktop\SVRT Experiments\SVRT Experiment 3\svrt_images\generated_images\results_problem_12\sample_1_0005.png,C:\Users\subject\Desktop\SVRT Experiments\SVRT Experiment 3\svrt_images\generated_images\results_problem_1\sample_0_0004.png,,,,,,,,,,,,,,,,,,,,0,3,3,3,0,5,5,5,,,,,,,,,,,,,,j,1,B,B,3,1,Correct!,1.1183597000781447,390.6018147999421,None,390.6018147999421,None,391.7517856999766,None,,,,,11,001,2023-04-27_16h10.20.365,uncolored_shuffled,2021.2.3,60.005712573363944,
C:\Users\subject\Desktop\SVRT Experiments\SVRT Experiment 3\svrt_images\generated_images\results_problem_1,,C:\Users\subject\Desktop\SVRT Experiments\SVRT Experiment 3\svrt_images\generated_images\results_problem_10\sample_1_0005.png,C:\Users\subject\Desktop\SVRT Experiments\SVRT Experiment 3\svrt_images\generated_images\results_problem_12\sample_1_0005.png,C:\Users\subject\Desktop\SVRT Experiments\SVRT Experiment 3\svrt_images\generated_images\results_problem_1\sample_1_0016.png,,,,,,,,,,,,,,,,,,,,0,3,3,3,0,6,6,6,,,,,,,,,,,,,,f,1,A,A,3,1,Correct!,4.725651400047354,392.81839389994275,None,392.81839389994275,None,397.5682952000061,None,,,,,11,001,2023-04-27_16h10.20.365,uncolored_shuffled,2021.2.3,60.005712573363944,
C:\Users\subject\Desktop\SVRT Experiments\SVRT Experiment 3\svrt_images\generated_images\results_problem_1,,C:\Users\subject\Desktop\SVRT Experiments\SVRT Experiment 3\svrt_images\generated_images\results_problem_10\sample_1_0005.png,C:\Users\subject\Desktop\SVRT Experiments\SVRT Experiment 3\svrt_images\generated_images\results_problem_12\sample_1_0005.png,C:\Users\subject\Desktop\SVRT Experiments\SVRT Experiment 3\svrt_images\generated_images\results_problem_1\sample_1_0013.png,,,,,,,,,,,,,,,,,,,,0,3,3,3,0,7,7,7,,,,,,,,,,,,,,j,1,B,A,3,0,Incorrect!,0.7964167998870835,398.65163420001045,None,398.65163420001045,None,399.46825339994393,None,,,,,11,001,2023-04-27_16h10.20.365,uncolored_shuffled,2021.2.3,60.005712573363944,
C:\Users\subject\Desktop\SVRT Experiments\SVRT Experiment 3\svrt_images\generated_images\results_problem_1,,C:\Users\subject\Desktop\SVRT Experiments\SVRT Experiment 3\svrt_images\generated_images\results_problem_10\sample_1_0005.png,C:\Users\subject\Desktop\SVRT Experiments\SVRT Experiment 3\svrt_images\generated_images\results_problem_12\sample_1_0005.png,C:\Users\subject\Desktop\SVRT Experiments\SVRT Experiment 3\svrt_images\generated_images\results_problem_1\sample_1_0004.png,,,,,,,,,,,,,,,,,,,,0,3,3,3,0,8,8,8,,,,,,,,,,,,,,f,1,A,A,3,1,Correct!,0.959859500057064,400.5682679999154,None,400.5682679999154,None,401.5515540000051,None,,,,,11,001,2023-04-27_16h10.20.365,uncolored_shuffled,2021.2.3,60.005712573363944,
C:\Users\subject\Desktop\SVRT Experiments\SVRT Experiment 3\svrt_images\generated_images\results_problem_1,,C:\Users\subject\Desktop\SVRT Experiments\SVRT Experiment 3\svrt_images\generated_images\results_problem_10\sample_1_0005.png,C:\Users\subject\Desktop\SVRT Experiments\SVRT Experiment 3\svrt_images\generated_images\results_problem_12\sample_1_0005.png,C:\Users\subject\Desktop\SVRT Experiments\SVRT Experiment 3\svrt_images\generated_images\results_problem_1\sample_0_0002.png,,,,,,,,,,,,,,,,,,,,0,3,3,3,0,9,9,9,,,,,,,,,,,,,,f,1,A,B,3,0,Incorrect!,0.6206080999691039,402.6515274000121,None,402.6515274000121,None,403.30151949997526,None,,,,,11,001,2023-04-27_16h10.20.365,uncolored_shuffled,2021.2.3,60.005712573363944,
C:\Users\subject\Desktop\SVRT Experiments\SVRT Experiment 3\svrt_images\generated_images\results_problem_1,,C:\Users\subject\Desktop\SVRT Experiments\SVRT Experiment 3\svrt_images\generated_images\results_problem_10\sample_1_0005.png,C:\Users\subject\Desktop\SVRT Experiments\SVRT Experiment 3\svrt_images\generated_images\results_problem_12\sample_1_0005.png,C:\Users\subject\Desktop\SVRT Experiments\SVRT Experiment 3\svrt_images\generated_images\results_problem_1\sample_1_0014.png,,,,,,,,,,,,,,,,,,,,0,3,3,3,0,10,10,10,,,,,,,,,,,,,,f,1,A,A,3,1,Correct!,3.181942099938169,404.41815389995463,None,404.41815389995463,None,407.6181173999794,None,,,,,11,001,2023-04-27_16h10.20.365,uncolored_shuffled,2021.2.3,60.005712573363944,
C:\Users\subject\Desktop\SVRT Experiments\SVRT Experiment 3\svrt_images\generated_images\results_problem_1,,C:\Users\subject\Desktop\SVRT Experiments\SVRT Experiment 3\svrt_images\generated_images\results_problem_10\sample_1_0005.png,C:\Users\subject\Desktop\SVRT Experiments\SVRT Experiment 3\svrt_images\generated_images\results_problem_12\sample_1_0005.png,C:\Users\subject\Desktop\SVRT Experiments\SVRT Experiment 3\svrt_images\generated_images\results_problem_1\sample_1_0010.png,,,,,,,,,,,,,,,,,,,,0,3,3,3,0,11,11,11,,,,,,,,,,,,,,f,1,A,A,3,1,Correct!,2.3527555000036955,408.75142569991294,None,408.75142569991294,None,411.1346829999238,None,,,,,11,001,2023-04-27_16h10.20.365,uncolored_shuffled,2021.2.3,60.005712573363944,
C:\Users\subject\Desktop\SVRT Experiments\SVRT Experiment 3\svrt_images\generated_images\results_problem_1,,C:\Users\subject\Desktop\SVRT Experiments\SVRT Experiment 3\svrt_images\generated_images\results_problem_10\sample_1_0005.png,C:\Users\subject\Desktop\SVRT Experiments\SVRT Experiment 3\svrt_images\generated_images\results_problem_12\sample_1_0005.png,C:\Users\subject\Desktop\SVRT Experiments\SVRT Experiment 3\svrt_images\generated_images\results_problem_1\sample_0_0015.png,,,,,,,,,,,,,,,,,,,,0,3,3,3,0,12,12,12,,,,,,,,,,,,,,j,1,B,B,3,1,Correct!,1.1561105999862775,412.2680204999633,None,412.2680204999633,None,413.45133139996324,None,,,,,11,001,2023-04-27_16h10.20.365,uncolored_shuffled,2021.2.3,60.005712573363944,
C:\Users\subject\Desktop\SVRT Experiments\SVRT Experiment 3\svrt_images\generated_images\results_problem_1,,C:\Users\subject\Desktop\SVRT Experiments\SVRT Experiment 3\svrt_images\generated_images\results_problem_10\sample_1_0005.png,C:\Users\subject\Desktop\SVRT Experiments\SVRT Experiment 3\svrt_images\generated_images\results_problem_12\sample_1_0005.png,C:\Users\subject\Desktop\SVRT Experiments\SVRT Experiment 3\svrt_images\generated_images\results_problem_1\sample_0_0003.png,,,,,,,,,,,,,,,,,,,,0,3,3,3,0,13,13,13,,,,,,,,,,,,,,j,1,B,B,3,1,Correct!,1.7186984000727534,414.6013119999552,None,414.6013119999552,None,416.3512547999853,None,,,,,11,001,2023-04-27_16h10.20.365,uncolored_shuffled,2021.2.3,60.005712573363944,
C:\Users\subject\Desktop\SVRT Experiments\SVRT Experiment 3\svrt_images\generated_images\results_problem_1,,C:\Users\subject\Desktop\SVRT Experiments\SVRT Experiment 3\svrt_images\generated_images\results_problem_10\sample_1_0005.png,C:\Users\subject\Desktop\SVRT Experiments\SVRT Experiment 3\svrt_images\generated_images\results_problem_12\sample_1_0005.png,C:\Users\subject\Desktop\SVRT Experiments\SVRT Experiment 3\svrt_images\generated_images\results_problem_1\sample_0_0001.png,,,,,,,,,,,,,,,,,,,,0,3,3,3,0,14,14,14,,,,,,,,,,,,,,f,1,A,B,3,0,Incorrect!,0.6422506000380963,417.5179175999947,None,417.5179175999947,None,418.20121259998996,None,,,,,11,001,2023-04-27_16h10.20.365,uncolored_shuffled,2021.2.3,60.005712573363944,
C:\Users\subject\Desktop\SVRT Experiments\SVRT Experiment 3\svrt_images\generated_images\results_problem_1,,C:\Users\subject\Desktop\SVRT Experiments\SVRT Experiment 3\svrt_images\generated_images\results_problem_10\sample_1_0005.png,C:\Users\subject\Desktop\SVRT Experiments\SVRT Experiment 3\svrt_images\generated_images\results_problem_12\sample_1_0005.png,C:\Users\subject\Desktop\SVRT Experiments\SVRT Experiment 3\svrt_images\generated_images\results_problem_1\sample_1_0005.png,,,,,,,,,,,,,,,,,,,,0,3,3,3,0,15,15,15,,,,,,,,,,,,,,f,1,A,A,3,1,Correct!,0.7275315000442788,419.3845078999875,None,419.3845078999875,None,420.13443069998175,None,,,,,11,001,2023-04-27_16h10.20.365,uncolored_shuffled,2021.2.3,60.005712573363944,
C:\Users\subject\Desktop\SVRT Experiments\SVRT Experiment 3\svrt_images\generated_images\results_problem_1,,C:\Users\subject\Desktop\SVRT Experiments\SVRT Experiment 3\svrt_images\generated_images\results_problem_10\sample_1_0005.png,C:\Users\subject\Desktop\SVRT Experiments\SVRT Experiment 3\svrt_images\generated_images\results_problem_12\sample_1_0005.png,C:\Users\subject\Desktop\SVRT Experiments\SVRT Experiment 3\svrt_images\generated_images\results_problem_1\sample_0_0000.png,,,,,,,,,,,,,,,,,,,,0,3,3,3,0,16,16,16,,,,,,,,,,,,,,f,1,A,B,3,0,Incorrect!,1.8816729000536725,421.33441779995337,None,421.33441779995337,None,423.2511469000019,None,,,,,11,001,2023-04-27_16h10.20.365,uncolored_shuffled,2021.2.3,60.005712573363944,
C:\Users\subject\Desktop\SVRT Experiments\SVRT Experiment 3\svrt_images\generated_images\results_problem_1,,C:\Users\subject\Desktop\SVRT Experiments\SVRT Experiment 3\svrt_images\generated_images\results_problem_10\sample_1_0005.png,C:\Users\subject\Desktop\SVRT Experiments\SVRT Experiment 3\svrt_images\generated_images\results_problem_12\sample_1_0005.png,C:\Users\subject\Desktop\SVRT Experiments\SVRT Experiment 3\svrt_images\generated_images\results_problem_1\sample_0_0016.png,,,,,,,,,,,,,,,,,,,,0,3,3,3,0,17,17,17,,,,,,,,,,,,,,f,1,A,B,3,0,Incorrect!,1.1410781999584287,424.45107909990475,None,424.45107909990475,None,425.6177170999581,None,,,,,11,001,2023-04-27_16h10.20.365,uncolored_shuffled,2021.2.3,60.005712573363944,
C:\Users\subject\Desktop\SVRT Experiments\SVRT Experiment 3\svrt_images\generated_images\results_problem_1,,C:\Users\subject\Desktop\SVRT Experiments\SVRT Experiment 3\svrt_images\generated_images\results_problem_10\sample_1_0005.png,C:\Users\subject\Desktop\SVRT Experiments\SVRT Experiment 3\svrt_images\generated_images\results_problem_12\sample_1_0005.png,C:\Users\subject\Desktop\SVRT Experiments\SVRT Experiment 3\svrt_images\generated_images\results_problem_1\sample_0_0008.png,,,,,,,,,,,,,,,,,,,,0,3,3,3,0,18,18,18,,,,,,,,,,,,,,j,1,B,B,3,1,Correct!,1.7977007000008598,426.83433199999854,None,426.83433199999854,None,428.65098019992,None,,,,,11,001,2023-04-27_16h10.20.365,uncolored_shuffled,2021.2.3,60.005712573363944,
C:\Users\subject\Desktop\SVRT Experiments\SVRT Experiment 3\svrt_images\generated_images\results_problem_1,,C:\Users\subject\Desktop\SVRT Experiments\SVRT Experiment 3\svrt_images\generated_images\results_problem_10\sample_1_0005.png,C:\Users\subject\Desktop\SVRT Experiments\SVRT Experiment 3\svrt_images\generated_images\results_problem_12\sample_1_0005.png,C:\Users\subject\Desktop\SVRT Experiments\SVRT Experiment 3\svrt_images\generated_images\results_problem_1\sample_1_0008.png,,,,,,,,,,,,,,,,,,,,0,3,3,3,0,19,19,19,,,,,,,,,,,,,,f,1,A,A,3,1,Correct!,0.9638070000801235,429.8843047999544,None,429.8843047999544,None,430.90094439999666,None,,,,,11,001,2023-04-27_16h10.20.365,uncolored_shuffled,2021.2.3,60.005712573363944,
C:\Users\subject\Desktop\SVRT Experiments\SVRT Experiment 3\svrt_images\generated_images\results_problem_1,,C:\Users\subject\Desktop\SVRT Experiments\SVRT Experiment 3\svrt_images\generated_images\results_problem_10\sample_1_0005.png,C:\Users\subject\Desktop\SVRT Experiments\SVRT Experiment 3\svrt_images\generated_images\results_problem_12\sample_1_0005.png,C:\Users\subject\Desktop\SVRT Experiments\SVRT Experiment 3\svrt_images\generated_images\results_problem_1\sample_1_0006.png,,,,,,,,,,,,,,,,,,,,0,3,3,3,0,20,20,20,,,,,,,,,,,,,,j,1,B,A,3,0,Incorrect!,1.305191499995999,432.15091749990825,None,432.15091749990825,None,433.51755929994397,None,,,,,11,001,2023-04-27_16h10.20.365,uncolored_shuffled,2021.2.3,60.005712573363944,
C:\Users\subject\Desktop\SVRT Experiments\SVRT Experiment 3\svrt_images\generated_images\results_problem_1,,C:\Users\subject\Desktop\SVRT Experiments\SVRT Experiment 3\svrt_images\generated_images\results_problem_10\sample_1_0005.png,C:\Users\subject\Desktop\SVRT Experiments\SVRT Experiment 3\svrt_images\generated_images\results_problem_12\sample_1_0005.png,C:\Users\subject\Desktop\SVRT Experiments\SVRT Experiment 3\svrt_images\generated_images\results_problem_1\sample_0_0010.png,,,,,,,,,,,,,,,,,,,,0,3,3,3,0,21,21,21,,,,,,,,,,,,,,f,1,A,B,3,0,Incorrect!,2.639881100039929,434.784207199933,None,434.784207199933,None,437.4508230999345,None,,,,,11,001,2023-04-27_16h10.20.365,uncolored_shuffled,2021.2.3,60.005712573363944,
C:\Users\subject\Desktop\SVRT Experiments\SVRT Experiment 3\svrt_images\generated_images\results_problem_1,,C:\Users\subject\Desktop\SVRT Experiments\SVRT Experiment 3\svrt_images\generated_images\results_problem_10\sample_1_0005.png,C:\Users\subject\Desktop\SVRT Experiments\SVRT Experiment 3\svrt_images\generated_images\results_problem_12\sample_1_0005.png,C:\Users\subject\Desktop\SVRT Experiments\SVRT Experiment 3\svrt_images\generated_images\results_problem_1\sample_0_0013.png,,,,,,,,,,,,,,,,,,,,0,3,3,3,0,22,22,22,,,,,,,,,,,,,,f,1,A,B,3,0,Incorrect!,0.8426249000476673,438.71746809990145,None,438.71746809990145,None,439.60074659995735,None,,,,,11,001,2023-04-27_16h10.20.365,uncolored_shuffled,2021.2.3,60.005712573363944,
C:\Users\subject\Desktop\SVRT Experiments\SVRT Experiment 3\svrt_images\generated_images\results_problem_1,,C:\Users\subject\Desktop\SVRT Experiments\SVRT Experiment 3\svrt_images\generated_images\results_problem_10\sample_1_0005.png,C:\Users\subject\Desktop\SVRT Experiments\SVRT Experiment 3\svrt_images\generated_images\results_problem_12\sample_1_0005.png,C:\Users\subject\Desktop\SVRT Experiments\SVRT Experiment 3\svrt_images\generated_images\results_problem_1\sample_0_0011.png,,,,,,,,,,,,,,,,,,,,0,3,3,3,0,23,23,23,,,,,,,,,,,,,,j,1,B,B,3,1,Correct!,0.46794730005785823,440.88407419994473,None,440.88407419994473,None,441.4339805999771,None,,,,,11,001,2023-04-27_16h10.20.365,uncolored_shuffled,2021.2.3,60.005712573363944,
C:\Users\subject\Desktop\SVRT Experiments\SVRT Experiment 3\svrt_images\generated_images\results_problem_1,,C:\Users\subject\Desktop\SVRT Experiments\SVRT Experiment 3\svrt_images\generated_images\results_problem_10\sample_1_0005.png,C:\Users\subject\Desktop\SVRT Experiments\SVRT Experiment 3\svrt_images\generated_images\results_problem_12\sample_1_0005.png,C:\Users\subject\Desktop\SVRT Experiments\SVRT Experiment 3\svrt_images\generated_images\results_problem_1\sample_0_0012.png,,,,,,,,,,,,,,,,,,,,0,3,3,3,0,24,24,24,,,,,,,,,,,,,,f,1,A,B,3,0,Incorrect!,1.1700380999827757,442.73403179994784,None,442.73403179994784,None,443.9506514999084,None,,,,,11,001,2023-04-27_16h10.20.365,uncolored_shuffled,2021.2.3,60.005712573363944,
C:\Users\subject\Desktop\SVRT Experiments\SVRT Experiment 3\svrt_images\generated_images\results_problem_1,,C:\Users\subject\Desktop\SVRT Experiments\SVRT Experiment 3\svrt_images\generated_images\results_problem_10\sample_1_0005.png,C:\Users\subject\Desktop\SVRT Experiments\SVRT Experiment 3\svrt_images\generated_images\results_problem_12\sample_1_0005.png,C:\Users\subject\Desktop\SVRT Experiments\SVRT Experiment 3\svrt_images\generated_images\results_problem_1\sample_1_0012.png,,,,,,,,,,,,,,,,,,,,0,3,3,3,0,25,25,25,,,,,,,,,,,,,,f,1,A,A,3,1,Correct!,0.9960955999558792,445.28400069999043,None,445.28400069999043,None,446.30070609995164,None,,,,,11,001,2023-04-27_16h10.20.365,uncolored_shuffled,2021.2.3,60.005712573363944,
C:\Users\subject\Desktop\SVRT Experiments\SVRT Experiment 3\svrt_images\generated_images\results_problem_1,,C:\Users\subject\Desktop\SVRT Experiments\SVRT Experiment 3\svrt_images\generated_images\results_problem_10\sample_1_0005.png,C:\Users\subject\Desktop\SVRT Experiments\SVRT Experiment 3\svrt_images\generated_images\results_problem_12\sample_1_0005.png,C:\Users\subject\Desktop\SVRT Experiments\SVRT Experiment 3\svrt_images\generated_images\results_problem_1\sample_1_0001.png,,,,,,,,,,,,,,,,,,,,0,3,3,3,0,26,26,26,,,,,,,,,,,,,,j,1,B,A,3,0,Incorrect!,0.6461720000952482,447.6339334999211,None,447.6339334999211,None,448.3172351999674,None,,,,,11,001,2023-04-27_16h10.20.365,uncolored_shuffled,2021.2.3,60.005712573363944,
C:\Users\subject\Desktop\SVRT Experiments\SVRT Experiment 3\svrt_images\generated_images\results_problem_1,,C:\Users\subject\Desktop\SVRT Experiments\SVRT Experiment 3\svrt_images\generated_images\results_problem_10\sample_1_0005.png,C:\Users\subject\Desktop\SVRT Experiments\SVRT Experiment 3\svrt_images\generated_images\results_problem_12\sample_1_0005.png,C:\Users\subject\Desktop\SVRT Experiments\SVRT Experiment 3\svrt_images\generated_images\results_problem_1\sample_1_0009.png,,,,,,,,,,,,,,,,,,,,0,3,3,3,0,27,27,27,,,,,,,,,,,,,,j,1,B,A,3,0,Incorrect!,0.8848906999919564,449.66725239995867,None,449.66725239995867,None,450.60048919997644,None,,,,,11,001,2023-04-27_16h10.20.365,uncolored_shuffled,2021.2.3,60.005712573363944,
C:\Users\subject\Desktop\SVRT Experiments\SVRT Experiment 3\svrt_images\generated_images\results_problem_1,,C:\Users\subject\Desktop\SVRT Experiments\SVRT Experiment 3\svrt_images\generated_images\results_problem_10\sample_1_0005.png,C:\Users\subject\Desktop\SVRT Experiments\SVRT Experiment 3\svrt_images\generated_images\results_problem_12\sample_1_0005.png,C:\Users\subject\Desktop\SVRT Experiments\SVRT Experiment 3\svrt_images\generated_images\results_problem_1\sample_1_0000.png,,,,,,,,,,,,,,,,,,,,0,3,3,3,0,28,28,28,,,,,,,,,,,,,,j,1,B,A,3,0,Incorrect!,1.2019129999680445,451.9504832999082,None,451.9504832999082,None,453.21712789998855,None,,,,,11,001,2023-04-27_16h10.20.365,uncolored_shuffled,2021.2.3,60.005712573363944,
C:\Users\subject\Desktop\SVRT Experiments\SVRT Experiment 3\svrt_images\generated_images\results_problem_1,,C:\Users\subject\Desktop\SVRT Experiments\SVRT Experiment 3\svrt_images\generated_images\results_problem_10\sample_1_0005.png,C:\Users\subject\Desktop\SVRT Experiments\SVRT Experiment 3\svrt_images\generated_images\results_problem_12\sample_1_0005.png,C:\Users\subject\Desktop\SVRT Experiments\SVRT Experiment 3\svrt_images\generated_images\results_problem_1\sample_1_0003.png,,,,,,,,,,,,,,,,,,,,0,3,3,3,0,29,29,29,,,,,,,,,,,,,,f,1,A,A,3,1,Correct!,1.0963098999345675,454.58379489998333,None,454.58379489998333,None,455.7837404999882,None,,,,,11,001,2023-04-27_16h10.20.365,uncolored_shuffled,2021.2.3,60.005712573363944,
C:\Users\subject\Desktop\SVRT Experiments\SVRT Experiment 3\svrt_images\generated_images\results_problem_1,,C:\Users\subject\Desktop\SVRT Experiments\SVRT Experiment 3\svrt_images\generated_images\results_problem_10\sample_1_0005.png,C:\Users\subject\Desktop\SVRT Experiments\SVRT Experiment 3\svrt_images\generated_images\results_problem_12\sample_1_0005.png,C:\Users\subject\Desktop\SVRT Experiments\SVRT Experiment 3\svrt_images\generated_images\results_problem_1\sample_0_0014.png,,,,,,,,,,,,,,,,,,,,0,3,3,3,0,30,30,30,,,,,,,,,,,,,,f,1,A,B,3,0,Incorrect!,2.1522948999190703,457.18375739990734,None,457.18375739990734,None,459.4003584999591,None,,,,,11,001,2023-04-27_16h10.20.365,uncolored_shuffled,2021.2.3,60.005712573363944,
C:\Users\subject\Desktop\SVRT Experiments\SVRT Experiment 3\svrt_images\generated_images\results_problem_1,,C:\Users\subject\Desktop\SVRT Experiments\SVRT Experiment 3\svrt_images\generated_images\results_problem_10\sample_1_0005.png,C:\Users\subject\Desktop\SVRT Experiments\SVRT Experiment 3\svrt_images\generated_images\results_problem_12\sample_1_0005.png,C:\Users\subject\Desktop\SVRT Experiments\SVRT Experiment 3\svrt_images\generated_images\results_problem_1\sample_1_0007.png,,,,,,,,,,,,,,,,,,,,0,3,3,3,0,31,31,31,,,,,,,,,,,,,,f,1,A,A,3,1,Correct!,0.9596620999509469,460.8003447999945,None,460.8003447999945,None,461.8169722999446,None,,,,,11,001,2023-04-27_16h10.20.365,uncolored_shuffled,2021.2.3,60.005712573363944,
C:\Users\subject\Desktop\SVRT Experiments\SVRT Experiment 3\svrt_images\generated_images\results_problem_1,,C:\Users\subject\Desktop\SVRT Experiments\SVRT Experiment 3\svrt_images\generated_images\results_problem_10\sample_1_0005.png,C:\Users\subject\Desktop\SVRT Experiments\SVRT Experiment 3\svrt_images\generated_images\results_problem_12\sample_1_0005.png,C:\Users\subject\Desktop\SVRT Experiments\SVRT Experiment 3\svrt_images\generated_images\results_problem_1\sample_0_0006.png,,,,,,,,,,,,,,,,,,,,0,3,3,3,0,32,32,32,,,,,,,,,,,,,,f,1,A,B,3,0,Incorrect!,0.7024845000123605,463.2335695999209,None,463.2335695999209,None,464.0502403000137,None,,,,,11,001,2023-04-27_16h10.20.365,uncolored_shuffled,2021.2.3,60.005712573363944,
C:\Users\subject\Desktop\SVRT Experiments\SVRT Experiment 3\svrt_images\generated_images\results_problem_1,,C:\Users\subject\Desktop\SVRT Experiments\SVRT Experiment 3\svrt_images\generated_images\results_problem_10\sample_1_0005.png,C:\Users\subject\Desktop\SVRT Experiments\SVRT Experiment 3\svrt_images\generated_images\results_problem_12\sample_1_0005.png,C:\Users\subject\Desktop\SVRT Experiments\SVRT Experiment 3\svrt_images\generated_images\results_problem_1\sample_1_0002.png,,,,,,,,,,,,,,,,,,,,0,3,3,3,0,33,33,33,,,,,,,,,,,,,,j,1,B,A,3,0,Incorrect!,1.539913999964483,465.5001857999014,None,465.5001857999014,None,467.15017499995884,None,,,,,11,001,2023-04-27_16h10.20.365,uncolored_shuffled,2021.2.3,60.005712573363944,
C:\Users\subject\Desktop\SVRT Experiments\SVRT Experiment 3\svrt_images\generated_images\results_problem_1,,C:\Users\subject\Desktop\SVRT Experiments\SVRT Experiment 3\svrt_images\generated_images\results_problem_10\sample_1_0005.png,C:\Users\subject\Desktop\SVRT Experiments\SVRT Experiment 3\svrt_images\generated_images\results_problem_12\sample_1_0005.png,,,,,,,,,,,,,,,,,,,,,0,3,3,3,0,32,32,32,,,,,,,,,,,,,,,,,,,,,,,,,,,,468.1501687999116,468.1501687999116,space,0.7539512000512332,11,001,2023-04-27_16h10.20.365,uncolored_shuffled,2021.2.3,60.005712573363944,
C:\Users\subject\Desktop\SVRT Experiments\SVRT Experiment 3\svrt_images\generated_images\results_problem_6,,C:\Users\subject\Desktop\SVRT Experiments\SVRT Experiment 3\svrt_images\generated_images\results_problem_10\sample_1_0005.png,C:\Users\subject\Desktop\SVRT Experiments\SVRT Experiment 3\svrt_images\generated_images\results_problem_12\sample_1_0005.png,,C:\Users\subject\Desktop\SVRT Experiments\SVRT Experiment 3\svrt_images\generated_images\results_problem_6\sample_1_0016.png,,,,,,,,,,,,,,,,,,,0,4,4,4,0,0,0,0,,,,,,,,,,,,,,f,6,A,A,3,1,Correct!,8.521770699997433,468.9501752000069,None,468.9501752000069,None,477.500018099905,None,,,,,11,001,2023-04-27_16h10.20.365,uncolored_shuffled,2021.2.3,60.005712573363944,
C:\Users\subject\Desktop\SVRT Experiments\SVRT Experiment 3\svrt_images\generated_images\results_problem_6,,C:\Users\subject\Desktop\SVRT Experiments\SVRT Experiment 3\svrt_images\generated_images\results_problem_10\sample_1_0005.png,C:\Users\subject\Desktop\SVRT Experiments\SVRT Experiment 3\svrt_images\generated_images\results_problem_12\sample_1_0005.png,,C:\Users\subject\Desktop\SVRT Experiments\SVRT Experiment 3\svrt_images\generated_images\results_problem_6\sample_1_0013.png,,,,,,,,,,,,,,,,,,,0,4,4,4,0,1,1,1,,,,,,,,,,,,,,j,6,B,A,3,0,Incorrect!,1.99535940005444,478.5166166999843,None,478.5166166999843,None,480.53323790000286,None,,,,,11,001,2023-04-27_16h10.20.365,uncolored_shuffled,2021.2.3,60.005712573363944,
C:\Users\subject\Desktop\SVRT Experiments\SVRT Experiment 3\svrt_images\generated_images\results_problem_6,,C:\Users\subject\Desktop\SVRT Experiments\SVRT Experiment 3\svrt_images\generated_images\results_problem_10\sample_1_0005.png,C:\Users\subject\Desktop\SVRT Experiments\SVRT Experiment 3\svrt_images\generated_images\results_problem_12\sample_1_0005.png,,C:\Users\subject\Desktop\SVRT Experiments\SVRT Experiment 3\svrt_images\generated_images\results_problem_6\sample_0_0001.png,,,,,,,,,,,,,,,,,,,0,4,4,4,0,2,2,2,,,,,,,,,,,,,,j,6,B,B,3,1,Correct!,1.7294617999577895,481.56654999998864,None,481.56654999998864,None,483.3165009999648,None,,,,,11,001,2023-04-27_16h10.20.365,uncolored_shuffled,2021.2.3,60.005712573363944,
C:\Users\subject\Desktop\SVRT Experiments\SVRT Experiment 3\svrt_images\generated_images\results_problem_6,,C:\Users\subject\Desktop\SVRT Experiments\SVRT Experiment 3\svrt_images\generated_images\results_problem_10\sample_1_0005.png,C:\Users\subject\Desktop\SVRT Experiments\SVRT Experiment 3\svrt_images\generated_images\results_problem_12\sample_1_0005.png,,C:\Users\subject\Desktop\SVRT Experiments\SVRT Experiment 3\svrt_images\generated_images\results_problem_6\sample_0_0006.png,,,,,,,,,,,,,,,,,,,0,4,4,4,0,3,3,3,,,,,,,,,,,,,,f,6,A,B,3,0,Incorrect!,3.065522199962288,484.36651309998706,None,484.36651309998706,None,487.4497768000001,None,,,,,11,001,2023-04-27_16h10.20.365,uncolored_shuffled,2021.2.3,60.005712573363944,
C:\Users\subject\Desktop\SVRT Experiments\SVRT Experiment 3\svrt_images\generated_images\results_problem_6,,C:\Users\subject\Desktop\SVRT Experiments\SVRT Experiment 3\svrt_images\generated_images\results_problem_10\sample_1_0005.png,C:\Users\subject\Desktop\SVRT Experiments\SVRT Experiment 3\svrt_images\generated_images\results_problem_12\sample_1_0005.png,,C:\Users\subject\Desktop\SVRT Experiments\SVRT Experiment 3\svrt_images\generated_images\results_problem_6\sample_1_0007.png,,,,,,,,,,,,,,,,,,,0,4,4,4,0,4,4,4,,,,,,,,,,,,,,j,6,B,A,3,0,Incorrect!,4.748256199993193,488.49974120000843,None,488.49974120000843,None,493.2663320999127,None,,,,,11,001,2023-04-27_16h10.20.365,uncolored_shuffled,2021.2.3,60.005712573363944,
C:\Users\subject\Desktop\SVRT Experiments\SVRT Experiment 3\svrt_images\generated_images\results_problem_6,,C:\Users\subject\Desktop\SVRT Experiments\SVRT Experiment 3\svrt_images\generated_images\results_problem_10\sample_1_0005.png,C:\Users\subject\Desktop\SVRT Experiments\SVRT Experiment 3\svrt_images\generated_images\results_problem_12\sample_1_0005.png,,C:\Users\subject\Desktop\SVRT Experiments\SVRT Experiment 3\svrt_images\generated_images\results_problem_6\sample_0_0015.png,,,,,,,,,,,,,,,,,,,0,4,4,4,0,5,5,5,,,,,,,,,,,,,,j,6,B,B,3,1,Correct!,1.4188167999964207,494.3330362999113,None,494.3330362999113,None,495.7829803999048,None,,,,,11,001,2023-04-27_16h10.20.365,uncolored_shuffled,2021.2.3,60.005712573363944,
C:\Users\subject\Desktop\SVRT Experiments\SVRT Experiment 3\svrt_images\generated_images\results_problem_6,,C:\Users\subject\Desktop\SVRT Experiments\SVRT Experiment 3\svrt_images\generated_images\results_problem_10\sample_1_0005.png,C:\Users\subject\Desktop\SVRT Experiments\SVRT Experiment 3\svrt_images\generated_images\results_problem_12\sample_1_0005.png,,C:\Users\subject\Desktop\SVRT Experiments\SVRT Experiment 3\svrt_images\generated_images\results_problem_6\sample_1_0008.png,,,,,,,,,,,,,,,,,,,0,4,4,4,0,6,6,6,,,,,,,,,,,,,,f,6,A,A,3,1,Correct!,0.8063070999924093,496.8495894999942,None,496.8495894999942,None,497.6828478999669,None,,,,,11,001,2023-04-27_16h10.20.365,uncolored_shuffled,2021.2.3,60.005712573363944,
C:\Users\subject\Desktop\SVRT Experiments\SVRT Experiment 3\svrt_images\generated_images\results_problem_6,,C:\Users\subject\Desktop\SVRT Experiments\SVRT Experiment 3\svrt_images\generated_images\results_problem_10\sample_1_0005.png,C:\Users\subject\Desktop\SVRT Experiments\SVRT Experiment 3\svrt_images\generated_images\results_problem_12\sample_1_0005.png,,C:\Users\subject\Desktop\SVRT Experiments\SVRT Experiment 3\svrt_images\generated_images\results_problem_6\sample_0_0012.png,,,,,,,,,,,,,,,,,,,0,4,4,4,0,7,7,7,,,,,,,,,,,,,,f,6,A,B,3,0,Incorrect!,0.5217050000792369,498.7662513999967,None,498.7662513999967,None,499.3162100999616,None,,,,,11,001,2023-04-27_16h10.20.365,uncolored_shuffled,2021.2.3,60.005712573363944,
C:\Users\subject\Desktop\SVRT Experiments\SVRT Experiment 3\svrt_images\generated_images\results_problem_6,,C:\Users\subject\Desktop\SVRT Experiments\SVRT Experiment 3\svrt_images\generated_images\results_problem_10\sample_1_0005.png,C:\Users\subject\Desktop\SVRT Experiments\SVRT Experiment 3\svrt_images\generated_images\results_problem_12\sample_1_0005.png,,C:\Users\subject\Desktop\SVRT Experiments\SVRT Experiment 3\svrt_images\generated_images\results_problem_6\sample_0_0009.png,,,,,,,,,,,,,,,,,,,0,4,4,4,0,8,8,8,,,,,,,,,,,,,,j,6,B,B,3,1,Correct!,1.0236582000507042,500.41627129993867,None,500.41627129993867,None,501.4662127000047,None,,,,,11,001,2023-04-27_16h10.20.365,uncolored_shuffled,2021.2.3,60.005712573363944,
C:\Users\subject\Desktop\SVRT Experiments\SVRT Experiment 3\svrt_images\generated_images\results_problem_6,,C:\Users\subject\Desktop\SVRT Experiments\SVRT Experiment 3\svrt_images\generated_images\results_problem_10\sample_1_0005.png,C:\Users\subject\Desktop\SVRT Experiments\SVRT Experiment 3\svrt_images\generated_images\results_problem_12\sample_1_0005.png,,C:\Users\subject\Desktop\SVRT Experiments\SVRT Experiment 3\svrt_images\generated_images\results_problem_6\sample_1_0001.png,,,,,,,,,,,,,,,,,,,0,4,4,4,0,9,9,9,,,,,,,,,,,,,,f,6,A,A,3,1,Correct!,0.8012302999850363,502.58273869997356,None,502.58273869997356,None,503.4161188999424,None,,,,,11,001,2023-04-27_16h10.20.365,uncolored_shuffled,2021.2.3,60.005712573363944,
C:\Users\subject\Desktop\SVRT Experiments\SVRT Experiment 3\svrt_images\generated_images\results_problem_6,,C:\Users\subject\Desktop\SVRT Experiments\SVRT Experiment 3\svrt_images\generated_images\results_problem_10\sample_1_0005.png,C:\Users\subject\Desktop\SVRT Experiments\SVRT Experiment 3\svrt_images\generated_images\results_problem_12\sample_1_0005.png,,C:\Users\subject\Desktop\SVRT Experiments\SVRT Experiment 3\svrt_images\generated_images\results_problem_6\sample_0_0005.png,,,,,,,,,,,,,,,,,,,0,4,4,4,0,10,10,10,,,,,,,,,,,,,,j,6,B,B,3,1,Correct!,1.394536399981007,504.5493946999777,None,504.5493946999777,None,505.96603789995424,None,,,,,11,001,2023-04-27_16h10.20.365,uncolored_shuffled,2021.2.3,60.005712573363944,
C:\Users\subject\Desktop\SVRT Experiments\SVRT Experiment 3\svrt_images\generated_images\results_problem_6,,C:\Users\subject\Desktop\SVRT Experiments\SVRT Experiment 3\svrt_images\generated_images\results_problem_10\sample_1_0005.png,C:\Users\subject\Desktop\SVRT Experiments\SVRT Experiment 3\svrt_images\generated_images\results_problem_12\sample_1_0005.png,,C:\Users\subject\Desktop\SVRT Experiments\SVRT Experiment 3\svrt_images\generated_images\results_problem_6\sample_1_0006.png,,,,,,,,,,,,,,,,,,,0,4,4,4,0,11,11,11,,,,,,,,,,,,,,j,6,B,A,3,0,Incorrect!,1.708555500023067,507.09942949994,None,507.09942949994,None,508.8493733999785,None,,,,,11,001,2023-04-27_16h10.20.365,uncolored_shuffled,2021.2.3,60.005712573363944,
C:\Users\subject\Desktop\SVRT Experiments\SVRT Experiment 3\svrt_images\generated_images\results_problem_6,,C:\Users\subject\Desktop\SVRT Experiments\SVRT Experiment 3\svrt_images\generated_images\results_problem_10\sample_1_0005.png,C:\Users\subject\Desktop\SVRT Experiments\SVRT Experiment 3\svrt_images\generated_images\results_problem_12\sample_1_0005.png,,C:\Users\subject\Desktop\SVRT Experiments\SVRT Experiment 3\svrt_images\generated_images\results_problem_6\sample_0_0007.png,,,,,,,,,,,,,,,,,,,0,4,4,4,0,12,12,12,,,,,,,,,,,,,,j,6,B,B,3,1,Correct!,0.8485585000598803,509.9993720999919,None,509.9993720999919,None,510.8826652999269,None,,,,,11,001,2023-04-27_16h10.20.365,uncolored_shuffled,2021.2.3,60.005712573363944,
C:\Users\subject\Desktop\SVRT Experiments\SVRT Experiment 3\svrt_images\generated_images\results_problem_6,,C:\Users\subject\Desktop\SVRT Experiments\SVRT Experiment 3\svrt_images\generated_images\results_problem_10\sample_1_0005.png,C:\Users\subject\Desktop\SVRT Experiments\SVRT Experiment 3\svrt_images\generated_images\results_problem_12\sample_1_0005.png,,C:\Users\subject\Desktop\SVRT Experiments\SVRT Experiment 3\svrt_images\generated_images\results_problem_6\sample_0_0013.png,,,,,,,,,,,,,,,,,,,0,4,4,4,0,13,13,13,,,,,,,,,,,,,,j,6,B,B,3,1,Correct!,1.5112688000081107,512.0326488999417,None,512.0326488999417,None,513.5825698999688,None,,,,,11,001,2023-04-27_16h10.20.365,uncolored_shuffled,2021.2.3,60.005712573363944,
C:\Users\subject\Desktop\SVRT Experiments\SVRT Experiment 3\svrt_images\generated_images\results_problem_6,,C:\Users\subject\Desktop\SVRT Experiments\SVRT Experiment 3\svrt_images\generated_images\results_problem_10\sample_1_0005.png,C:\Users\subject\Desktop\SVRT Experiments\SVRT Experiment 3\svrt_images\generated_images\results_problem_12\sample_1_0005.png,,C:\Users\subject\Desktop\SVRT Experiments\SVRT Experiment 3\svrt_images\generated_images\results_problem_6\sample_1_0015.png,,,,,,,,,,,,,,,,,,,0,4,4,4,0,14,14,14,,,,,,,,,,,,,,f,6,A,A,3,1,Correct!,2.0028492000419647,514.7492446999531,None,514.7492446999531,None,516.7992112999782,None,,,,,11,001,2023-04-27_16h10.20.365,uncolored_shuffled,2021.2.3,60.005712573363944,
C:\Users\subject\Desktop\SVRT Experiments\SVRT Experiment 3\svrt_images\generated_images\results_problem_6,,C:\Users\subject\Desktop\SVRT Experiments\SVRT Experiment 3\svrt_images\generated_images\results_problem_10\sample_1_0005.png,C:\Users\subject\Desktop\SVRT Experiments\SVRT Experiment 3\svrt_images\generated_images\results_problem_12\sample_1_0005.png,,C:\Users\subject\Desktop\SVRT Experiments\SVRT Experiment 3\svrt_images\generated_images\results_problem_6\sample_0_0010.png,,,,,,,,,,,,,,,,,,,0,4,4,4,0,15,15,15,,,,,,,,,,,,,,f,6,A,B,3,0,Incorrect!,0.9616064999718219,517.982465100009,None,517.982465100009,None,518.9658310000086,None,,,,,11,001,2023-04-27_16h10.20.365,uncolored_shuffled,2021.2.3,60.005712573363944,
C:\Users\subject\Desktop\SVRT Experiments\SVRT Experiment 3\svrt_images\generated_images\results_problem_6,,C:\Users\subject\Desktop\SVRT Experiments\SVRT Experiment 3\svrt_images\generated_images\results_problem_10\sample_1_0005.png,C:\Users\subject\Desktop\SVRT Experiments\SVRT Experiment 3\svrt_images\generated_images\results_problem_12\sample_1_0005.png,,C:\Users\subject\Desktop\SVRT Experiments\SVRT Experiment 3\svrt_images\generated_images\results_problem_6\sample_1_0004.png,,,,,,,,,,,,,,,,,,,0,4,4,4,0,16,16,16,,,,,,,,,,,,,,f,6,A,A,3,1,Correct!,0.850869300076738,520.1491337999469,None,520.1491337999469,None,521.0324031999335,None,,,,,11,001,2023-04-27_16h10.20.365,uncolored_shuffled,2021.2.3,60.005712573363944,
C:\Users\subject\Desktop\SVRT Experiments\SVRT Experiment 3\svrt_images\generated_images\results_problem_6,,C:\Users\subject\Desktop\SVRT Experiments\SVRT Experiment 3\svrt_images\generated_images\results_problem_10\sample_1_0005.png,C:\Users\subject\Desktop\SVRT Experiments\SVRT Experiment 3\svrt_images\generated_images\results_problem_12\sample_1_0005.png,,C:\Users\subject\Desktop\SVRT Experiments\SVRT Experiment 3\svrt_images\generated_images\results_problem_6\sample_0_0004.png,,,,,,,,,,,,,,,,,,,0,4,4,4,0,17,17,17,,,,,,,,,,,,,,f,6,A,B,3,0,Incorrect!,0.7597411000169814,522.2324139999691,None,522.2324139999691,None,523.0490321000107,None,,,,,11,001,2023-04-27_16h10.20.365,uncolored_shuffled,2021.2.3,60.005712573363944,
C:\Users\subject\Desktop\SVRT Experiments\SVRT Experiment 3\svrt_images\generated_images\results_problem_6,,C:\Users\subject\Desktop\SVRT Experiments\SVRT Experiment 3\svrt_images\generated_images\results_problem_10\sample_1_0005.png,C:\Users\subject\Desktop\SVRT Experiments\SVRT Experiment 3\svrt_images\generated_images\results_problem_12\sample_1_0005.png,,C:\Users\subject\Desktop\SVRT Experiments\SVRT Experiment 3\svrt_images\generated_images\results_problem_6\sample_1_0011.png,,,,,,,,,,,,,,,,,,,0,4,4,4,0,18,18,18,,,,,,,,,,,,,,f,6,A,A,3,1,Correct!,1.9742655999725685,524.2657134999754,None,524.2657134999754,None,526.2823019999778,None,,,,,11,001,2023-04-27_16h10.20.365,uncolored_shuffled,2021.2.3,60.005712573363944,
C:\Users\subject\Desktop\SVRT Experiments\SVRT Experiment 3\svrt_images\generated_images\results_problem_6,,C:\Users\subject\Desktop\SVRT Experiments\SVRT Experiment 3\svrt_images\generated_images\results_problem_10\sample_1_0005.png,C:\Users\subject\Desktop\SVRT Experiments\SVRT Experiment 3\svrt_images\generated_images\results_problem_12\sample_1_0005.png,,C:\Users\subject\Desktop\SVRT Experiments\SVRT Experiment 3\svrt_images\generated_images\results_problem_6\sample_1_0003.png,,,,,,,,,,,,,,,,,,,0,4,4,4,0,19,19,19,,,,,,,,,,,,,,f,6,A,A,3,1,Correct!,0.6123370999703184,527.5156512999674,None,527.5156512999674,None,528.1822600999149,None,,,,,11,001,2023-04-27_16h10.20.365,uncolored_shuffled,2021.2.3,60.005712573363944,
C:\Users\subject\Desktop\SVRT Experiments\SVRT Experiment 3\svrt_images\generated_images\results_problem_6,,C:\Users\subject\Desktop\SVRT Experiments\SVRT Experiment 3\svrt_images\generated_images\results_problem_10\sample_1_0005.png,C:\Users\subject\Desktop\SVRT Experiments\SVRT Experiment 3\svrt_images\generated_images\results_problem_12\sample_1_0005.png,,C:\Users\subject\Desktop\SVRT Experiments\SVRT Experiment 3\svrt_images\generated_images\results_problem_6\sample_1_0002.png,,,,,,,,,,,,,,,,,,,0,4,4,4,0,20,20,20,,,,,,,,,,,,,,f,6,A,A,3,1,Correct!,2.2158784999046475,529.4322599999141,None,529.4322599999141,None,531.6988559999736,None,,,,,11,001,2023-04-27_16h10.20.365,uncolored_shuffled,2021.2.3,60.005712573363944,
C:\Users\subject\Desktop\SVRT Experiments\SVRT Experiment 3\svrt_images\generated_images\results_problem_6,,C:\Users\subject\Desktop\SVRT Experiments\SVRT Experiment 3\svrt_images\generated_images\results_problem_10\sample_1_0005.png,C:\Users\subject\Desktop\SVRT Experiments\SVRT Experiment 3\svrt_images\generated_images\results_problem_12\sample_1_0005.png,,C:\Users\subject\Desktop\SVRT Experiments\SVRT Experiment 3\svrt_images\generated_images\results_problem_6\sample_1_0000.png,,,,,,,,,,,,,,,,,,,0,4,4,4,0,21,21,21,,,,,,,,,,,,,,j,6,B,A,3,0,Incorrect!,0.9626292999600992,532.9655083999969,None,532.9655083999969,None,533.9821401999798,None,,,,,11,001,2023-04-27_16h10.20.365,uncolored_shuffled,2021.2.3,60.005712573363944,
C:\Users\subject\Desktop\SVRT Experiments\SVRT Experiment 3\svrt_images\generated_images\results_problem_6,,C:\Users\subject\Desktop\SVRT Experiments\SVRT Experiment 3\svrt_images\generated_images\results_problem_10\sample_1_0005.png,C:\Users\subject\Desktop\SVRT Experiments\SVRT Experiment 3\svrt_images\generated_images\results_problem_12\sample_1_0005.png,,C:\Users\subject\Desktop\SVRT Experiments\SVRT Experiment 3\svrt_images\generated_images\results_problem_6\sample_1_0012.png,,,,,,,,,,,,,,,,,,,0,4,4,4,0,22,22,22,,,,,,,,,,,,,,f,6,A,A,3,1,Correct!,0.6951663000509143,535.248801699956,None,535.248801699956,None,535.9987703999504,None,,,,,11,001,2023-04-27_16h10.20.365,uncolored_shuffled,2021.2.3,60.005712573363944,
C:\Users\subject\Desktop\SVRT Experiments\SVRT Experiment 3\svrt_images\generated_images\results_problem_6,,C:\Users\subject\Desktop\SVRT Experiments\SVRT Experiment 3\svrt_images\generated_images\results_problem_10\sample_1_0005.png,C:\Users\subject\Desktop\SVRT Experiments\SVRT Experiment 3\svrt_images\generated_images\results_problem_12\sample_1_0005.png,,C:\Users\subject\Desktop\SVRT Experiments\SVRT Experiment 3\svrt_images\generated_images\results_problem_6\sample_1_0014.png,,,,,,,,,,,,,,,,,,,0,4,4,4,0,23,23,23,,,,,,,,,,,,,,j,6,B,A,3,0,Incorrect!,0.597877399995923,537.2820924000116,None,537.2820924000116,None,537.898751599947,None,,,,,11,001,2023-04-27_16h10.20.365,uncolored_shuffled,2021.2.3,60.005712573363944,
C:\Users\subject\Desktop\SVRT Experiments\SVRT Experiment 3\svrt_images\generated_images\results_problem_6,,C:\Users\subject\Desktop\SVRT Experiments\SVRT Experiment 3\svrt_images\generated_images\results_problem_10\sample_1_0005.png,C:\Users\subject\Desktop\SVRT Experiments\SVRT Experiment 3\svrt_images\generated_images\results_problem_12\sample_1_0005.png,,C:\Users\subject\Desktop\SVRT Experiments\SVRT Experiment 3\svrt_images\generated_images\results_problem_6\sample_0_0003.png,,,,,,,,,,,,,,,,,,,0,4,4,4,0,24,24,24,,,,,,,,,,,,,,j,6,B,B,3,1,Correct!,0.6253356999950483,539.1987274999265,None,539.1987274999265,None,539.882037299918,None,,,,,11,001,2023-04-27_16h10.20.365,uncolored_shuffled,2021.2.3,60.005712573363944,
C:\Users\subject\Desktop\SVRT Experiments\SVRT Experiment 3\svrt_images\generated_images\results_problem_6,,C:\Users\subject\Desktop\SVRT Experiments\SVRT Experiment 3\svrt_images\generated_images\results_problem_10\sample_1_0005.png,C:\Users\subject\Desktop\SVRT Experiments\SVRT Experiment 3\svrt_images\generated_images\results_problem_12\sample_1_0005.png,,C:\Users\subject\Desktop\SVRT Experiments\SVRT Experiment 3\svrt_images\generated_images\results_problem_6\sample_0_0014.png,,,,,,,,,,,,,,,,,,,0,4,4,4,0,25,25,25,,,,,,,,,,,,,,f,6,A,B,3,0,Incorrect!,1.6893680000212044,541.198681699927,None,541.198681699927,None,542.9486714999657,None,,,,,11,001,2023-04-27_16h10.20.365,uncolored_shuffled,2021.2.3,60.005712573363944,
C:\Users\subject\Desktop\SVRT Experiments\SVRT Experiment 3\svrt_images\generated_images\results_problem_6,,C:\Users\subject\Desktop\SVRT Experiments\SVRT Experiment 3\svrt_images\generated_images\results_problem_10\sample_1_0005.png,C:\Users\subject\Desktop\SVRT Experiments\SVRT Experiment 3\svrt_images\generated_images\results_problem_12\sample_1_0005.png,,C:\Users\subject\Desktop\SVRT Experiments\SVRT Experiment 3\svrt_images\generated_images\results_problem_6\sample_1_0010.png,,,,,,,,,,,,,,,,,,,0,4,4,4,0,26,26,26,,,,,,,,,,,,,,f,6,A,A,3,1,Correct!,0.5741252999287099,544.2819529999979,None,544.2819529999979,None,544.8819313999265,None,,,,,11,001,2023-04-27_16h10.20.365,uncolored_shuffled,2021.2.3,60.005712573363944,
C:\Users\subject\Desktop\SVRT Experiments\SVRT Experiment 3\svrt_images\generated_images\results_problem_6,,C:\Users\subject\Desktop\SVRT Experiments\SVRT Experiment 3\svrt_images\generated_images\results_problem_10\sample_1_0005.png,C:\Users\subject\Desktop\SVRT Experiments\SVRT Experiment 3\svrt_images\generated_images\results_problem_12\sample_1_0005.png,,C:\Users\subject\Desktop\SVRT Experiments\SVRT Experiment 3\svrt_images\generated_images\results_problem_6\sample_0_0011.png,,,,,,,,,,,,,,,,,,,0,4,4,4,0,27,27,27,,,,,,,,,,,,,,j,6,B,B,3,1,Correct!,1.304775399970822,546.2152448999695,None,546.2152448999695,None,547.5652096999111,None,,,,,11,001,2023-04-27_16h10.20.365,uncolored_shuffled,2021.2.3,60.005712573363944,
C:\Users\subject\Desktop\SVRT Experiments\SVRT Experiment 3\svrt_images\generated_images\results_problem_6,,C:\Users\subject\Desktop\SVRT Experiments\SVRT Experiment 3\svrt_images\generated_images\results_problem_10\sample_1_0005.png,C:\Users\subject\Desktop\SVRT Experiments\SVRT Experiment 3\svrt_images\generated_images\results_problem_12\sample_1_0005.png,,C:\Users\subject\Desktop\SVRT Experiments\SVRT Experiment 3\svrt_images\generated_images\results_problem_6\sample_1_0009.png,,,,,,,,,,,,,,,,,,,0,4,4,4,0,28,28,28,,,,,,,,,,,,,,j,6,B,A,3,0,Incorrect!,0.7079760000342503,548.9318846999668,None,548.9318846999668,None,549.6984535999363,None,,,,,11,001,2023-04-27_16h10.20.365,uncolored_shuffled,2021.2.3,60.005712573363944,
C:\Users\subject\Desktop\SVRT Experiments\SVRT Experiment 3\svrt_images\generated_images\results_problem_6,,C:\Users\subject\Desktop\SVRT Experiments\SVRT Experiment 3\svrt_images\generated_images\results_problem_10\sample_1_0005.png,C:\Users\subject\Desktop\SVRT Experiments\SVRT Experiment 3\svrt_images\generated_images\results_problem_12\sample_1_0005.png,,C:\Users\subject\Desktop\SVRT Experiments\SVRT Experiment 3\svrt_images\generated_images\results_problem_6\sample_0_0016.png,,,,,,,,,,,,,,,,,,,0,4,4,4,0,29,29,29,,,,,,,,,,,,,,j,6,B,B,3,1,Correct!,0.7661855999613181,551.08183619997,None,551.08183619997,None,551.898431199952,None,,,,,11,001,2023-04-27_16h10.20.365,uncolored_shuffled,2021.2.3,60.005712573363944,
C:\Users\subject\Desktop\SVRT Experiments\SVRT Experiment 3\svrt_images\generated_images\results_problem_6,,C:\Users\subject\Desktop\SVRT Experiments\SVRT Experiment 3\svrt_images\generated_images\results_problem_10\sample_1_0005.png,C:\Users\subject\Desktop\SVRT Experiments\SVRT Experiment 3\svrt_images\generated_images\results_problem_12\sample_1_0005.png,,C:\Users\subject\Desktop\SVRT Experiments\SVRT Experiment 3\svrt_images\generated_images\results_problem_6\sample_1_0005.png,,,,,,,,,,,,,,,,,,,0,4,4,4,0,30,30,30,,,,,,,,,,,,,,f,6,A,A,3,1,Correct!,0.638351000030525,553.2817962999688,None,553.2817962999688,None,553.9984351999592,None,,,,,11,001,2023-04-27_16h10.20.365,uncolored_shuffled,2021.2.3,60.005712573363944,
C:\Users\subject\Desktop\SVRT Experiments\SVRT Experiment 3\svrt_images\generated_images\results_problem_6,,C:\Users\subject\Desktop\SVRT Experiments\SVRT Experiment 3\svrt_images\generated_images\results_problem_10\sample_1_0005.png,C:\Users\subject\Desktop\SVRT Experiments\SVRT Experiment 3\svrt_images\generated_images\results_problem_12\sample_1_0005.png,,C:\Users\subject\Desktop\SVRT Experiments\SVRT Experiment 3\svrt_images\generated_images\results_problem_6\sample_0_0008.png,,,,,,,,,,,,,,,,,,,0,4,4,4,0,31,31,31,,,,,,,,,,,,,,j,6,B,B,3,1,Correct!,0.8016231000656262,555.3984110999154,None,555.3984110999154,None,556.3150425999193,None,,,,,11,001,2023-04-27_16h10.20.365,uncolored_shuffled,2021.2.3,60.005712573363944,
C:\Users\subject\Desktop\SVRT Experiments\SVRT Experiment 3\svrt_images\generated_images\results_problem_6,,C:\Users\subject\Desktop\SVRT Experiments\SVRT Experiment 3\svrt_images\generated_images\results_problem_10\sample_1_0005.png,C:\Users\subject\Desktop\SVRT Experiments\SVRT Experiment 3\svrt_images\generated_images\results_problem_12\sample_1_0005.png,,C:\Users\subject\Desktop\SVRT Experiments\SVRT Experiment 3\svrt_images\generated_images\results_problem_6\sample_0_0000.png,,,,,,,,,,,,,,,,,,,0,4,4,4,0,32,32,32,,,,,,,,,,,,,,f,6,A,B,3,0,Incorrect!,0.7557018001098186,557.7483529999154,None,557.7483529999154,None,558.5816442999057,None,,,,,11,001,2023-04-27_16h10.20.365,uncolored_shuffled,2021.2.3,60.005712573363944,
