folder,results_problem_14,results_problem_7,results_problem_20,results_problem_22,results_problem_5,results_problem_12,results_problem_9,results_problem_15,results_problem_23,results_problem_3,results_problem_19,results_problem_1,results_problem_13,results_problem_17,results_problem_21,results_problem_2,results_problem_18,results_problem_10,results_problem_6,results_problem_11,results_problem_4,results_problem_8,results_problem_16,categories.thisRepN,categories.thisTrialN,categories.thisN,categories.thisIndex,trials.thisRepN,trials.thisTrialN,trials.thisN,trials.thisIndex,consent_text.started,consent_kb.started,consent_kb.keys,consent_kb.rt,Gender.keys,Gender.rt,Age,instructions_text.started,instructions_text.stopped,instructions_kb.keys,instructions_kb.rt,instructions_kb.started,instructions_kb.stopped,trial_kb.keys,current_problem_num,category_resp,answer,seed,accuracy,feedback,trial_kb.rt,trial_kb.started,trial_kb.stopped,trial_image.started,trial_image.stopped,feedback_text.started,feedback_text.stopped,new_problem_kb.started,new_problem_text.started,new_problem_kb.keys,new_problem_kb.rt,Participant #,session,date,expName,psychopyVersion,frameRate,
,,,,,,,,,,,,,,,,,,,,,,,,,,,,,,,,77.33088909997605,77.33088909997605,y,344.05327959998976,,,,,,,,,,,,,,,,,,,,,,,,,,,,120,001,2023-10-10_15h28.38.212,uncolored_sorted,2021.2.3,59.95063663283657,
,,,,,,,,,,,,,,,,,,,,,,,,,,,,,,,,,,,,w,13.372000899980776,,,,,,,,,,,,,,,,,,,,,,,,,,120,001,2023-10-10_15h28.38.212,uncolored_sorted,2021.2.3,59.95063663283657,
,,,,,,,,,,,,,,,,,,,,,,,,,,,,,,,,,,,,,,19,441.88621509994846,None,space,90.80917459994089,441.88621509994846,None,,,,,,,,,,,,,,,,,,,120,001,2023-10-10_15h28.38.212,uncolored_sorted,2021.2.3,59.95063663283657,
C:\Users\subject\Desktop\SVRT Experiments\SVRT Experiment 3\svrt_images\generated_images\results_problem_14,C:\Users\subject\Desktop\SVRT Experiments\SVRT Experiment 3\svrt_images\generated_images\results_problem_14\sample_0_0013.png,,,,,,,,,,,,,,,,,,,,,,,0,0,0,0,0,0,0,0,,,,,,,,,,,,,,f,14,A,B,30,0,Incorrect!,21.821993499994278,532.7213674000232,None,532.7213674000232,None,554.5711948999669,None,,,,,120,001,2023-10-10_15h28.38.212,uncolored_sorted,2021.2.3,59.95063663283657,
C:\Users\subject\Desktop\SVRT Experiments\SVRT Experiment 3\svrt_images\generated_images\results_problem_14,C:\Users\subject\Desktop\SVRT Experiments\SVRT Experiment 3\svrt_images\generated_images\results_problem_14\sample_0_0007.png,,,,,,,,,,,,,,,,,,,,,,,0,0,0,0,0,1,1,1,,,,,,,,,,,,,,f,14,A,B,30,0,Incorrect!,20.619134600041434,555.5719358000206,None,555.5719358000206,None,576.2208251999691,None,,,,,120,001,2023-10-10_15h28.38.212,uncolored_sorted,2021.2.3,59.95063663283657,
C:\Users\subject\Desktop\SVRT Experiments\SVRT Experiment 3\svrt_images\generated_images\results_problem_14,C:\Users\subject\Desktop\SVRT Experiments\SVRT Experiment 3\svrt_images\generated_images\results_problem_14\sample_1_0000.png,,,,,,,,,,,,,,,,,,,,,,,0,0,0,0,0,2,2,2,,,,,,,,,,,,,,f,14,A,A,30,1,Correct!,22.712662199977785,577.238290600013,None,577.238290600013,None,599.9720960999839,None,,,,,120,001,2023-10-10_15h28.38.212,uncolored_sorted,2021.2.3,59.95063663283657,
C:\Users\subject\Desktop\SVRT Experiments\SVRT Experiment 3\svrt_images\generated_images\results_problem_14,C:\Users\subject\Desktop\SVRT Experiments\SVRT Experiment 3\svrt_images\generated_images\results_problem_14\sample_1_0006.png,,,,,,,,,,,,,,,,,,,,,,,0,0,0,0,0,3,3,3,,,,,,,,,,,,,,f,14,A,A,30,1,Correct!,9.12934069999028,600.9895077999681,None,600.9895077999681,None,610.1463876999915,None,,,,,120,001,2023-10-10_15h28.38.212,uncolored_sorted,2021.2.3,59.95063663283657,
C:\Users\subject\Desktop\SVRT Experiments\SVRT Experiment 3\svrt_images\generated_images\results_problem_14,C:\Users\subject\Desktop\SVRT Experiments\SVRT Experiment 3\svrt_images\generated_images\results_problem_14\sample_1_0009.png,,,,,,,,,,,,,,,,,,,,,,,0,0,0,0,0,4,4,4,,,,,,,,,,,,,,j,14,B,A,30,0,Incorrect!,7.474275200045668,611.18061879999,None,611.18061879999,None,618.6862176000141,None,,,,,120,001,2023-10-10_15h28.38.212,uncolored_sorted,2021.2.3,59.95063663283657,
C:\Users\subject\Desktop\SVRT Experiments\SVRT Experiment 3\svrt_images\generated_images\results_problem_14,C:\Users\subject\Desktop\SVRT Experiments\SVRT Experiment 3\svrt_images\generated_images\results_problem_14\sample_0_0009.png,,,,,,,,,,,,,,,,,,,,,,,0,0,0,0,0,5,5,5,,,,,,,,,,,,,,j,14,B,B,30,1,Correct!,6.286437200033106,619.7203328999458,None,619.7203328999458,None,626.0250805000542,None,,,,,120,001,2023-10-10_15h28.38.212,uncolored_sorted,2021.2.3,59.95063663283657,
C:\Users\subject\Desktop\SVRT Experiments\SVRT Experiment 3\svrt_images\generated_images\results_problem_14,C:\Users\subject\Desktop\SVRT Experiments\SVRT Experiment 3\svrt_images\generated_images\results_problem_14\sample_1_0007.png,,,,,,,,,,,,,,,,,,,,,,,0,0,0,0,0,6,6,6,,,,,,,,,,,,,,f,14,A,A,30,1,Correct!,8.634783399989828,627.0758768999949,None,627.0758768999949,None,635.7323847999796,None,,,,,120,001,2023-10-10_15h28.38.212,uncolored_sorted,2021.2.3,59.95063663283657,
C:\Users\subject\Desktop\SVRT Experiments\SVRT Experiment 3\svrt_images\generated_images\results_problem_14,C:\Users\subject\Desktop\SVRT Experiments\SVRT Experiment 3\svrt_images\generated_images\results_problem_14\sample_0_0016.png,,,,,,,,,,,,,,,,,,,,,,,0,0,0,0,0,7,7,7,,,,,,,,,,,,,,j,14,B,B,30,1,Correct!,15.327397299930453,636.7831910999957,None,636.7831910999957,None,652.1280975999543,None,,,,,120,001,2023-10-10_15h28.38.212,uncolored_sorted,2021.2.3,59.95063663283657,
C:\Users\subject\Desktop\SVRT Experiments\SVRT Experiment 3\svrt_images\generated_images\results_problem_14,C:\Users\subject\Desktop\SVRT Experiments\SVRT Experiment 3\svrt_images\generated_images\results_problem_14\sample_0_0012.png,,,,,,,,,,,,,,,,,,,,,,,0,0,0,0,0,8,8,8,,,,,,,,,,,,,,f,14,A,B,30,0,Incorrect!,4.5629423999926075,653.1955474000424,None,653.1955474000424,None,657.7823215000099,None,,,,,120,001,2023-10-10_15h28.38.212,uncolored_sorted,2021.2.3,59.95063663283657,
C:\Users\subject\Desktop\SVRT Experiments\SVRT Experiment 3\svrt_images\generated_images\results_problem_14,C:\Users\subject\Desktop\SVRT Experiments\SVRT Experiment 3\svrt_images\generated_images\results_problem_14\sample_1_0001.png,,,,,,,,,,,,,,,,,,,,,,,0,0,0,0,0,9,9,9,,,,,,,,,,,,,,j,14,B,A,30,0,Incorrect!,32.7556903999066,658.8666062999982,None,658.8666062999982,None,691.6412223000079,None,,,,,120,001,2023-10-10_15h28.38.212,uncolored_sorted,2021.2.3,59.95063663283657,
C:\Users\subject\Desktop\SVRT Experiments\SVRT Experiment 3\svrt_images\generated_images\results_problem_14,C:\Users\subject\Desktop\SVRT Experiments\SVRT Experiment 3\svrt_images\generated_images\results_problem_14\sample_1_0003.png,,,,,,,,,,,,,,,,,,,,,,,0,0,0,0,0,10,10,10,,,,,,,,,,,,,,f,14,A,A,30,1,Correct!,33.78467229998205,692.7253821999766,None,692.7253821999766,None,726.5342045000289,None,,,,,120,001,2023-10-10_15h28.38.212,uncolored_sorted,2021.2.3,59.95063663283657,
C:\Users\subject\Desktop\SVRT Experiments\SVRT Experiment 3\svrt_images\generated_images\results_problem_14,C:\Users\subject\Desktop\SVRT Experiments\SVRT Experiment 3\svrt_images\generated_images\results_problem_14\sample_0_0015.png,,,,,,,,,,,,,,,,,,,,,,,0,0,0,0,0,11,11,11,,,,,,,,,,,,,,j,14,B,B,30,1,Correct!,2.4431050999555737,727.6350381999509,None,727.6350381999509,None,730.1035702000372,None,,,,,120,001,2023-10-10_15h28.38.212,uncolored_sorted,2021.2.3,59.95063663283657,
C:\Users\subject\Desktop\SVRT Experiments\SVRT Experiment 3\svrt_images\generated_images\results_problem_14,C:\Users\subject\Desktop\SVRT Experiments\SVRT Experiment 3\svrt_images\generated_images\results_problem_14\sample_1_0008.png,,,,,,,,,,,,,,,,,,,,,,,0,0,0,0,0,12,12,12,,,,,,,,,,,,,,f,14,A,A,30,1,Correct!,2.2975515999132767,731.2044160000514,None,731.2044160000514,None,733.5227974000154,None,,,,,120,001,2023-10-10_15h28.38.212,uncolored_sorted,2021.2.3,59.95063663283657,
C:\Users\subject\Desktop\SVRT Experiments\SVRT Experiment 3\svrt_images\generated_images\results_problem_14,C:\Users\subject\Desktop\SVRT Experiments\SVRT Experiment 3\svrt_images\generated_images\results_problem_14\sample_0_0011.png,,,,,,,,,,,,,,,,,,,,,,,0,0,0,0,0,13,13,13,,,,,,,,,,,,,,f,14,A,B,30,0,Incorrect!,1.533693499979563,734.6403040000005,None,734.6403040000005,None,736.1914947000332,None,,,,,120,001,2023-10-10_15h28.38.212,uncolored_sorted,2021.2.3,59.95063663283657,
C:\Users\subject\Desktop\SVRT Experiments\SVRT Experiment 3\svrt_images\generated_images\results_problem_14,C:\Users\subject\Desktop\SVRT Experiments\SVRT Experiment 3\svrt_images\generated_images\results_problem_14\sample_0_0000.png,,,,,,,,,,,,,,,,,,,,,,,0,0,0,0,0,14,14,14,,,,,,,,,,,,,,j,14,B,B,30,1,Correct!,58.96853840001859,737.3090090999613,None,737.3090090999613,None,796.3034614999779,None,,,,,120,001,2023-10-10_15h28.38.212,uncolored_sorted,2021.2.3,59.95063663283657,
C:\Users\subject\Desktop\SVRT Experiments\SVRT Experiment 3\svrt_images\generated_images\results_problem_14,C:\Users\subject\Desktop\SVRT Experiments\SVRT Experiment 3\svrt_images\generated_images\results_problem_14\sample_0_0006.png,,,,,,,,,,,,,,,,,,,,,,,0,0,0,0,0,15,15,15,,,,,,,,,,,,,,f,14,A,B,30,0,Incorrect!,2.527866499964148,797.4376846000087,None,797.4376846000087,None,799.9896114000585,None,,,,,120,001,2023-10-10_15h28.38.212,uncolored_sorted,2021.2.3,59.95063663283657,
C:\Users\subject\Desktop\SVRT Experiments\SVRT Experiment 3\svrt_images\generated_images\results_problem_14,C:\Users\subject\Desktop\SVRT Experiments\SVRT Experiment 3\svrt_images\generated_images\results_problem_14\sample_0_0014.png,,,,,,,,,,,,,,,,,,,,,,,0,0,0,0,0,16,16,16,,,,,,,,,,,,,,j,14,B,B,30,1,Correct!,16.51363990001846,801.1237927000038,None,801.1237927000038,None,817.6696123000002,None,,,,,120,001,2023-10-10_15h28.38.212,uncolored_sorted,2021.2.3,59.95063663283657,
C:\Users\subject\Desktop\SVRT Experiments\SVRT Experiment 3\svrt_images\generated_images\results_problem_14,C:\Users\subject\Desktop\SVRT Experiments\SVRT Experiment 3\svrt_images\generated_images\results_problem_14\sample_1_0011.png,,,,,,,,,,,,,,,,,,,,,,,0,0,0,0,0,17,17,17,,,,,,,,,,,,,,f,14,A,A,30,1,Correct!,5.2808813999872655,818.8204811000032,None,818.8204811000032,None,824.1411500000395,None,,,,,120,001,2023-10-10_15h28.38.212,uncolored_sorted,2021.2.3,59.95063663283657,
C:\Users\subject\Desktop\SVRT Experiments\SVRT Experiment 3\svrt_images\generated_images\results_problem_14,C:\Users\subject\Desktop\SVRT Experiments\SVRT Experiment 3\svrt_images\generated_images\results_problem_14\sample_1_0004.png,,,,,,,,,,,,,,,,,,,,,,,0,0,0,0,0,18,18,18,,,,,,,,,,,,,,f,14,A,A,30,1,Correct!,11.03327460004948,825.291992799961,None,825.291992799961,None,836.3503617000533,None,,,,,120,001,2023-10-10_15h28.38.212,uncolored_sorted,2021.2.3,59.95063663283657,
C:\Users\subject\Desktop\SVRT Experiments\SVRT Experiment 3\svrt_images\generated_images\results_problem_14,C:\Users\subject\Desktop\SVRT Experiments\SVRT Experiment 3\svrt_images\generated_images\results_problem_14\sample_1_0015.png,,,,,,,,,,,,,,,,,,,,,,,0,0,0,0,0,19,19,19,,,,,,,,,,,,,,f,14,A,A,30,1,Correct!,7.574660099926405,837.5345878000371,None,837.5345878000371,None,845.1570095999632,None,,,,,120,001,2023-10-10_15h28.38.212,uncolored_sorted,2021.2.3,59.95063663283657,
C:\Users\subject\Desktop\SVRT Experiments\SVRT Experiment 3\svrt_images\generated_images\results_problem_14,C:\Users\subject\Desktop\SVRT Experiments\SVRT Experiment 3\svrt_images\generated_images\results_problem_14\sample_0_0005.png,,,,,,,,,,,,,,,,,,,,,,,0,0,0,0,0,20,20,20,,,,,,,,,,,,,,j,14,B,B,30,1,Correct!,1.7040146000217646,846.341207099962,None,846.341207099962,None,848.0925466000335,None,,,,,120,001,2023-10-10_15h28.38.212,uncolored_sorted,2021.2.3,59.95063663283657,
C:\Users\subject\Desktop\SVRT Experiments\SVRT Experiment 3\svrt_images\generated_images\results_problem_14,C:\Users\subject\Desktop\SVRT Experiments\SVRT Experiment 3\svrt_images\generated_images\results_problem_14\sample_1_0014.png,,,,,,,,,,,,,,,,,,,,,,,0,0,0,0,0,21,21,21,,,,,,,,,,,,,,f,14,A,A,30,1,Correct!,1.6717309999512509,849.2934603999602,None,849.2934603999602,None,851.0114191999892,None,,,,,120,001,2023-10-10_15h28.38.212,uncolored_sorted,2021.2.3,59.95063663283657,
C:\Users\subject\Desktop\SVRT Experiments\SVRT Experiment 3\svrt_images\generated_images\results_problem_14,C:\Users\subject\Desktop\SVRT Experiments\SVRT Experiment 3\svrt_images\generated_images\results_problem_14\sample_0_0001.png,,,,,,,,,,,,,,,,,,,,,,,0,0,0,0,0,22,22,22,,,,,,,,,,,,,,j,14,B,B,30,1,Correct!,1.4968374000163749,852.212324699969,None,852.212324699969,None,853.7468229000224,None,,,,,120,001,2023-10-10_15h28.38.212,uncolored_sorted,2021.2.3,59.95063663283657,
C:\Users\subject\Desktop\SVRT Experiments\SVRT Experiment 3\svrt_images\generated_images\results_problem_14,C:\Users\subject\Desktop\SVRT Experiments\SVRT Experiment 3\svrt_images\generated_images\results_problem_14\sample_1_0012.png,,,,,,,,,,,,,,,,,,,,,,,0,0,0,0,0,23,23,23,,,,,,,,,,,,,,,,,,,,,,,,,,,,854.7475895000389,854.7475895000389,space,3.249520199955441,120,001,2023-10-10_15h28.38.212,uncolored_sorted,2021.2.3,59.95063663283657,
C:\Users\subject\Desktop\SVRT Experiments\SVRT Experiment 3\svrt_images\generated_images\results_problem_7,C:\Users\subject\Desktop\SVRT Experiments\SVRT Experiment 3\svrt_images\generated_images\results_problem_14\sample_1_0012.png,C:\Users\subject\Desktop\SVRT Experiments\SVRT Experiment 3\svrt_images\generated_images\results_problem_7\sample_0_0001.png,,,,,,,,,,,,,,,,,,,,,,0,1,1,1,0,0,0,0,,,,,,,,,,,,,,f,7,A,B,30,0,Incorrect!,9.780414699926041,858.0166746999603,None,858.0166746999603,None,867.8240998999681,None,,,,,120,001,2023-10-10_15h28.38.212,uncolored_sorted,2021.2.3,59.95063663283657,
C:\Users\subject\Desktop\SVRT Experiments\SVRT Experiment 3\svrt_images\generated_images\results_problem_7,C:\Users\subject\Desktop\SVRT Experiments\SVRT Experiment 3\svrt_images\generated_images\results_problem_14\sample_1_0012.png,C:\Users\subject\Desktop\SVRT Experiments\SVRT Experiment 3\svrt_images\generated_images\results_problem_7\sample_0_0015.png,,,,,,,,,,,,,,,,,,,,,,0,1,1,1,0,1,1,1,,,,,,,,,,,,,,j,7,B,B,30,1,Correct!,4.004305899958126,868.8248188999714,None,868.8248188999714,None,872.8612327999435,None,,,,,120,001,2023-10-10_15h28.38.212,uncolored_sorted,2021.2.3,59.95063663283657,
C:\Users\subject\Desktop\SVRT Experiments\SVRT Experiment 3\svrt_images\generated_images\results_problem_7,C:\Users\subject\Desktop\SVRT Experiments\SVRT Experiment 3\svrt_images\generated_images\results_problem_14\sample_1_0012.png,C:\Users\subject\Desktop\SVRT Experiments\SVRT Experiment 3\svrt_images\generated_images\results_problem_7\sample_1_0008.png,,,,,,,,,,,,,,,,,,,,,,0,1,1,1,0,2,2,2,,,,,,,,,,,,,,f,7,A,A,30,1,Correct!,4.83843259990681,873.8786329999566,None,873.8786329999566,None,878.7489911000011,None,,,,,120,001,2023-10-10_15h28.38.212,uncolored_sorted,2021.2.3,59.95063663283657,
C:\Users\subject\Desktop\SVRT Experiments\SVRT Experiment 3\svrt_images\generated_images\results_problem_7,C:\Users\subject\Desktop\SVRT Experiments\SVRT Experiment 3\svrt_images\generated_images\results_problem_14\sample_1_0012.png,C:\Users\subject\Desktop\SVRT Experiments\SVRT Experiment 3\svrt_images\generated_images\results_problem_7\sample_0_0004.png,,,,,,,,,,,,,,,,,,,,,,0,1,1,1,0,3,3,3,,,,,,,,,,,,,,j,7,B,B,30,1,Correct!,1.5985396000323817,879.7664444999536,None,879.7664444999536,None,881.3843257999979,None,,,,,120,001,2023-10-10_15h28.38.212,uncolored_sorted,2021.2.3,59.95063663283657,
C:\Users\subject\Desktop\SVRT Experiments\SVRT Experiment 3\svrt_images\generated_images\results_problem_7,C:\Users\subject\Desktop\SVRT Experiments\SVRT Experiment 3\svrt_images\generated_images\results_problem_14\sample_1_0012.png,C:\Users\subject\Desktop\SVRT Experiments\SVRT Experiment 3\svrt_images\generated_images\results_problem_7\sample_0_0013.png,,,,,,,,,,,,,,,,,,,,,,0,1,1,1,0,4,4,4,,,,,,,,,,,,,,j,7,B,B,30,1,Correct!,1.042517299996689,882.4184415000491,None,882.4184415000491,None,883.4859095000429,None,,,,,120,001,2023-10-10_15h28.38.212,uncolored_sorted,2021.2.3,59.95063663283657,
C:\Users\subject\Desktop\SVRT Experiments\SVRT Experiment 3\svrt_images\generated_images\results_problem_7,C:\Users\subject\Desktop\SVRT Experiments\SVRT Experiment 3\svrt_images\generated_images\results_problem_14\sample_1_0012.png,C:\Users\subject\Desktop\SVRT Experiments\SVRT Experiment 3\svrt_images\generated_images\results_problem_7\sample_1_0004.png,,,,,,,,,,,,,,,,,,,,,,0,1,1,1,0,5,5,5,,,,,,,,,,,,,,j,7,B,A,30,0,Incorrect!,2.548865900025703,884.5200243999716,None,884.5200243999716,None,887.0885897000553,None,,,,,120,001,2023-10-10_15h28.38.212,uncolored_sorted,2021.2.3,59.95063663283657,
C:\Users\subject\Desktop\SVRT Experiments\SVRT Experiment 3\svrt_images\generated_images\results_problem_7,C:\Users\subject\Desktop\SVRT Experiments\SVRT Experiment 3\svrt_images\generated_images\results_problem_14\sample_1_0012.png,C:\Users\subject\Desktop\SVRT Experiments\SVRT Experiment 3\svrt_images\generated_images\results_problem_7\sample_1_0006.png,,,,,,,,,,,,,,,,,,,,,,0,1,1,1,0,6,6,6,,,,,,,,,,,,,,j,7,B,A,30,0,Incorrect!,2.1374954000348225,888.1394103999482,None,888.1394103999482,None,890.3076997000026,None,,,,,120,001,2023-10-10_15h28.38.212,uncolored_sorted,2021.2.3,59.95063663283657,
C:\Users\subject\Desktop\SVRT Experiments\SVRT Experiment 3\svrt_images\generated_images\results_problem_7,C:\Users\subject\Desktop\SVRT Experiments\SVRT Experiment 3\svrt_images\generated_images\results_problem_14\sample_1_0012.png,C:\Users\subject\Desktop\SVRT Experiments\SVRT Experiment 3\svrt_images\generated_images\results_problem_7\sample_1_0014.png,,,,,,,,,,,,,,,,,,,,,,0,1,1,1,0,7,7,7,,,,,,,,,,,,,,j,7,B,A,30,0,Incorrect!,26.646198900067247,891.3585282999557,None,891.3585282999557,None,918.0286200999981,None,,,,,120,001,2023-10-10_15h28.38.212,uncolored_sorted,2021.2.3,59.95063663283657,
C:\Users\subject\Desktop\SVRT Experiments\SVRT Experiment 3\svrt_images\generated_images\results_problem_7,C:\Users\subject\Desktop\SVRT Experiments\SVRT Experiment 3\svrt_images\generated_images\results_problem_14\sample_1_0012.png,C:\Users\subject\Desktop\SVRT Experiments\SVRT Experiment 3\svrt_images\generated_images\results_problem_7\sample_1_0005.png,,,,,,,,,,,,,,,,,,,,,,0,1,1,1,0,8,8,8,,,,,,,,,,,,,,f,7,A,A,30,1,Correct!,11.779863300034776,919.1127791999606,None,919.1127791999606,None,930.9216800000286,None,,,,,120,001,2023-10-10_15h28.38.212,uncolored_sorted,2021.2.3,59.95063663283657,
C:\Users\subject\Desktop\SVRT Experiments\SVRT Experiment 3\svrt_images\generated_images\results_problem_7,C:\Users\subject\Desktop\SVRT Experiments\SVRT Experiment 3\svrt_images\generated_images\results_problem_14\sample_1_0012.png,C:\Users\subject\Desktop\SVRT Experiments\SVRT Experiment 3\svrt_images\generated_images\results_problem_7\sample_1_0009.png,,,,,,,,,,,,,,,,,,,,,,0,1,1,1,0,9,9,9,,,,,,,,,,,,,,j,7,B,A,30,0,Incorrect!,2.2547437000321224,932.0058391999919,None,932.0058391999919,None,934.2908905999502,None,,,,,120,001,2023-10-10_15h28.38.212,uncolored_sorted,2021.2.3,59.95063663283657,
C:\Users\subject\Desktop\SVRT Experiments\SVRT Experiment 3\svrt_images\generated_images\results_problem_7,C:\Users\subject\Desktop\SVRT Experiments\SVRT Experiment 3\svrt_images\generated_images\results_problem_14\sample_1_0012.png,C:\Users\subject\Desktop\SVRT Experiments\SVRT Experiment 3\svrt_images\generated_images\results_problem_7\sample_0_0014.png,,,,,,,,,,,,,,,,,,,,,,0,1,1,1,0,10,10,10,,,,,,,,,,,,,,f,7,A,B,30,0,Incorrect!,7.901587500004098,935.3750597999897,None,935.3750597999897,None,943.2976843999932,None,,,,,120,001,2023-10-10_15h28.38.212,uncolored_sorted,2021.2.3,59.95063663283657,
C:\Users\subject\Desktop\SVRT Experiments\SVRT Experiment 3\svrt_images\generated_images\results_problem_7,C:\Users\subject\Desktop\SVRT Experiments\SVRT Experiment 3\svrt_images\generated_images\results_problem_14\sample_1_0012.png,C:\Users\subject\Desktop\SVRT Experiments\SVRT Experiment 3\svrt_images\generated_images\results_problem_7\sample_0_0003.png,,,,,,,,,,,,,,,,,,,,,,0,1,1,1,0,11,11,11,,,,,,,,,,,,,,j,7,B,B,30,1,Correct!,1.7341065000509843,944.398524899967,None,944.398524899967,None,946.1498282999964,None,,,,,120,001,2023-10-10_15h28.38.212,uncolored_sorted,2021.2.3,59.95063663283657,
C:\Users\subject\Desktop\SVRT Experiments\SVRT Experiment 3\svrt_images\generated_images\results_problem_7,C:\Users\subject\Desktop\SVRT Experiments\SVRT Experiment 3\svrt_images\generated_images\results_problem_14\sample_1_0012.png,C:\Users\subject\Desktop\SVRT Experiments\SVRT Experiment 3\svrt_images\generated_images\results_problem_7\sample_1_0010.png,,,,,,,,,,,,,,,,,,,,,,0,1,1,1,0,12,12,12,,,,,,,,,,,,,,j,7,B,A,30,0,Incorrect!,3.0659030000679195,947.250629200018,None,947.250629200018,None,950.3363285999512,None,,,,,120,001,2023-10-10_15h28.38.212,uncolored_sorted,2021.2.3,59.95063663283657,
C:\Users\subject\Desktop\SVRT Experiments\SVRT Experiment 3\svrt_images\generated_images\results_problem_7,C:\Users\subject\Desktop\SVRT Experiments\SVRT Experiment 3\svrt_images\generated_images\results_problem_14\sample_1_0012.png,C:\Users\subject\Desktop\SVRT Experiments\SVRT Experiment 3\svrt_images\generated_images\results_problem_7\sample_1_0016.png,,,,,,,,,,,,,,,,,,,,,,0,1,1,1,0,13,13,13,,,,,,,,,,,,,,f,7,A,A,30,1,Correct!,12.75056559999939,951.4538417999865,None,951.4538417999865,None,964.2301329999464,None,,,,,120,001,2023-10-10_15h28.38.212,uncolored_sorted,2021.2.3,59.95063663283657,
C:\Users\subject\Desktop\SVRT Experiments\SVRT Experiment 3\svrt_images\generated_images\results_problem_7,C:\Users\subject\Desktop\SVRT Experiments\SVRT Experiment 3\svrt_images\generated_images\results_problem_14\sample_1_0012.png,C:\Users\subject\Desktop\SVRT Experiments\SVRT Experiment 3\svrt_images\generated_images\results_problem_7\sample_1_0000.png,,,,,,,,,,,,,,,,,,,,,,0,1,1,1,0,14,14,14,,,,,,,,,,,,,,f,7,A,A,30,1,Correct!,3.4648275999352336,965.3476479999954,None,965.3476479999954,None,968.833608499961,None,,,,,120,001,2023-10-10_15h28.38.212,uncolored_sorted,2021.2.3,59.95063663283657,
C:\Users\subject\Desktop\SVRT Experiments\SVRT Experiment 3\svrt_images\generated_images\results_problem_7,C:\Users\subject\Desktop\SVRT Experiments\SVRT Experiment 3\svrt_images\generated_images\results_problem_14\sample_1_0012.png,C:\Users\subject\Desktop\SVRT Experiments\SVRT Experiment 3\svrt_images\generated_images\results_problem_7\sample_1_0013.png,,,,,,,,,,,,,,,,,,,,,,0,1,1,1,0,15,15,15,,,,,,,,,,,,,,j,7,B,A,30,0,Incorrect!,9.500520100002177,969.9677640000591,None,969.9677640000591,None,979.4916113000363,None,,,,,120,001,2023-10-10_15h28.38.212,uncolored_sorted,2021.2.3,59.95063663283657,
C:\Users\subject\Desktop\SVRT Experiments\SVRT Experiment 3\svrt_images\generated_images\results_problem_7,C:\Users\subject\Desktop\SVRT Experiments\SVRT Experiment 3\svrt_images\generated_images\results_problem_14\sample_1_0012.png,C:\Users\subject\Desktop\SVRT Experiments\SVRT Experiment 3\svrt_images\generated_images\results_problem_7\sample_0_0011.png,,,,,,,,,,,,,,,,,,,,,,0,1,1,1,0,16,16,16,,,,,,,,,,,,,,f,7,A,B,30,0,Incorrect!,18.753678599954583,980.6424831999466,None,980.6424831999466,None,999.4233440000098,None,,,,,120,001,2023-10-10_15h28.38.212,uncolored_sorted,2021.2.3,59.95063663283657,
C:\Users\subject\Desktop\SVRT Experiments\SVRT Experiment 3\svrt_images\generated_images\results_problem_7,C:\Users\subject\Desktop\SVRT Experiments\SVRT Experiment 3\svrt_images\generated_images\results_problem_14\sample_1_0012.png,C:\Users\subject\Desktop\SVRT Experiments\SVRT Experiment 3\svrt_images\generated_images\results_problem_7\sample_1_0015.png,,,,,,,,,,,,,,,,,,,,,,0,1,1,1,0,17,17,17,,,,,,,,,,,,,,j,7,B,A,30,0,Incorrect!,14.501883000019006,1000.5741848000325,None,1000.5741848000325,None,1015.1018331999658,None,,,,,120,001,2023-10-10_15h28.38.212,uncolored_sorted,2021.2.3,59.95063663283657,
C:\Users\subject\Desktop\SVRT Experiments\SVRT Experiment 3\svrt_images\generated_images\results_problem_7,C:\Users\subject\Desktop\SVRT Experiments\SVRT Experiment 3\svrt_images\generated_images\results_problem_14\sample_1_0012.png,C:\Users\subject\Desktop\SVRT Experiments\SVRT Experiment 3\svrt_images\generated_images\results_problem_7\sample_1_0002.png,,,,,,,,,,,,,,,,,,,,,,0,1,1,1,0,18,18,18,,,,,,,,,,,,,,f,7,A,A,30,1,Correct!,15.726521100034006,1016.2694172000047,None,1016.2694172000047,None,1032.0312706000404,None,,,,,120,001,2023-10-10_15h28.38.212,uncolored_sorted,2021.2.3,59.95063663283657,
C:\Users\subject\Desktop\SVRT Experiments\SVRT Experiment 3\svrt_images\generated_images\results_problem_7,C:\Users\subject\Desktop\SVRT Experiments\SVRT Experiment 3\svrt_images\generated_images\results_problem_14\sample_1_0012.png,C:\Users\subject\Desktop\SVRT Experiments\SVRT Experiment 3\svrt_images\generated_images\results_problem_7\sample_0_0008.png,,,,,,,,,,,,,,,,,,,,,,0,1,1,1,0,19,19,19,,,,,,,,,,,,,,j,7,B,B,30,1,Correct!,2.6611390999751166,1033.198794499971,None,1033.198794499971,None,1035.884177800035,None,,,,,120,001,2023-10-10_15h28.38.212,uncolored_sorted,2021.2.3,59.95063663283657,
C:\Users\subject\Desktop\SVRT Experiments\SVRT Experiment 3\svrt_images\generated_images\results_problem_7,C:\Users\subject\Desktop\SVRT Experiments\SVRT Experiment 3\svrt_images\generated_images\results_problem_14\sample_1_0012.png,C:\Users\subject\Desktop\SVRT Experiments\SVRT Experiment 3\svrt_images\generated_images\results_problem_7\sample_0_0009.png,,,,,,,,,,,,,,,,,,,,,,0,1,1,1,0,20,20,20,,,,,,,,,,,,,,j,7,B,B,30,1,Correct!,1.830837499932386,1037.0850686000194,None,1037.0850686000194,None,1038.936485299957,None,,,,,120,001,2023-10-10_15h28.38.212,uncolored_sorted,2021.2.3,59.95063663283657,
C:\Users\subject\Desktop\SVRT Experiments\SVRT Experiment 3\svrt_images\generated_images\results_problem_7,C:\Users\subject\Desktop\SVRT Experiments\SVRT Experiment 3\svrt_images\generated_images\results_problem_14\sample_1_0012.png,C:\Users\subject\Desktop\SVRT Experiments\SVRT Experiment 3\svrt_images\generated_images\results_problem_7\sample_1_0012.png,,,,,,,,,,,,,,,,,,,,,,0,1,1,1,0,21,21,21,,,,,,,,,,,,,,f,7,A,A,30,1,Correct!,10.722544899908826,1040.1373624999542,None,1040.1373624999542,None,1050.8955255999463,None,,,,,120,001,2023-10-10_15h28.38.212,uncolored_sorted,2021.2.3,59.95063663283657,
C:\Users\subject\Desktop\SVRT Experiments\SVRT Experiment 3\svrt_images\generated_images\results_problem_7,C:\Users\subject\Desktop\SVRT Experiments\SVRT Experiment 3\svrt_images\generated_images\results_problem_14\sample_1_0012.png,C:\Users\subject\Desktop\SVRT Experiments\SVRT Experiment 3\svrt_images\generated_images\results_problem_7\sample_0_0010.png,,,,,,,,,,,,,,,,,,,,,,0,1,1,1,0,22,22,22,,,,,,,,,,,,,,j,7,B,B,30,1,Correct!,4.553383000078611,1052.1464519000147,None,1052.1464519000147,None,1056.716564500006,None,,,,,120,001,2023-10-10_15h28.38.212,uncolored_sorted,2021.2.3,59.95063663283657,
C:\Users\subject\Desktop\SVRT Experiments\SVRT Experiment 3\svrt_images\generated_images\results_problem_7,C:\Users\subject\Desktop\SVRT Experiments\SVRT Experiment 3\svrt_images\generated_images\results_problem_14\sample_1_0012.png,C:\Users\subject\Desktop\SVRT Experiments\SVRT Experiment 3\svrt_images\generated_images\results_problem_7\sample_1_0011.png,,,,,,,,,,,,,,,,,,,,,,0,1,1,1,0,23,23,23,,,,,,,,,,,,,,f,7,A,A,30,1,Correct!,2.685652800020762,1057.9341192999855,None,1057.9341192999855,None,1060.6695449999534,None,,,,,120,001,2023-10-10_15h28.38.212,uncolored_sorted,2021.2.3,59.95063663283657,
C:\Users\subject\Desktop\SVRT Experiments\SVRT Experiment 3\svrt_images\generated_images\results_problem_7,C:\Users\subject\Desktop\SVRT Experiments\SVRT Experiment 3\svrt_images\generated_images\results_problem_14\sample_1_0012.png,C:\Users\subject\Desktop\SVRT Experiments\SVRT Experiment 3\svrt_images\generated_images\results_problem_7\sample_0_0006.png,,,,,,,,,,,,,,,,,,,,,,0,1,1,1,0,24,24,24,,,,,,,,,,,,,,f,7,A,B,30,0,Incorrect!,9.139213099959306,1061.9204896000447,None,1061.9204896000447,None,1071.077370199957,None,,,,,120,001,2023-10-10_15h28.38.212,uncolored_sorted,2021.2.3,59.95063663283657,
C:\Users\subject\Desktop\SVRT Experiments\SVRT Experiment 3\svrt_images\generated_images\results_problem_7,C:\Users\subject\Desktop\SVRT Experiments\SVRT Experiment 3\svrt_images\generated_images\results_problem_14\sample_1_0012.png,C:\Users\subject\Desktop\SVRT Experiments\SVRT Experiment 3\svrt_images\generated_images\results_problem_7\sample_0_0007.png,,,,,,,,,,,,,,,,,,,,,,0,1,1,1,0,25,25,25,,,,,,,,,,,,,,j,7,B,B,30,1,Correct!,3.6272854999406263,1072.3283236999996,None,1072.3283236999996,None,1075.9810735000065,None,,,,,120,001,2023-10-10_15h28.38.212,uncolored_sorted,2021.2.3,59.95063663283657,
C:\Users\subject\Desktop\SVRT Experiments\SVRT Experiment 3\svrt_images\generated_images\results_problem_7,C:\Users\subject\Desktop\SVRT Experiments\SVRT Experiment 3\svrt_images\generated_images\results_problem_14\sample_1_0012.png,C:\Users\subject\Desktop\SVRT Experiments\SVRT Experiment 3\svrt_images\generated_images\results_problem_7\sample_1_0007.png,,,,,,,,,,,,,,,,,,,,,,0,1,1,1,0,26,26,26,,,,,,,,,,,,,,f,7,A,A,30,1,Correct!,4.218917099991813,1077.2487115999684,None,1077.2487115999684,None,1081.5019211999606,None,,,,,120,001,2023-10-10_15h28.38.212,uncolored_sorted,2021.2.3,59.95063663283657,
C:\Users\subject\Desktop\SVRT Experiments\SVRT Experiment 3\svrt_images\generated_images\results_problem_7,C:\Users\subject\Desktop\SVRT Experiments\SVRT Experiment 3\svrt_images\generated_images\results_problem_14\sample_1_0012.png,C:\Users\subject\Desktop\SVRT Experiments\SVRT Experiment 3\svrt_images\generated_images\results_problem_7\sample_0_0005.png,,,,,,,,,,,,,,,,,,,,,,0,1,1,1,0,27,27,27,,,,,,,,,,,,,,f,7,A,B,30,0,Incorrect!,3.8407672999892384,1082.8028997000074,None,1082.8028997000074,None,1086.6724852999905,None,,,,,120,001,2023-10-10_15h28.38.212,uncolored_sorted,2021.2.3,59.95063663283657,
C:\Users\subject\Desktop\SVRT Experiments\SVRT Experiment 3\svrt_images\generated_images\results_problem_7,C:\Users\subject\Desktop\SVRT Experiments\SVRT Experiment 3\svrt_images\generated_images\results_problem_14\sample_1_0012.png,C:\Users\subject\Desktop\SVRT Experiments\SVRT Experiment 3\svrt_images\generated_images\results_problem_7\sample_1_0001.png,,,,,,,,,,,,,,,,,,,,,,0,1,1,1,0,28,28,28,,,,,,,,,,,,,,j,7,B,A,30,0,Incorrect!,4.414749899995513,1087.9567873999476,None,1087.9567873999476,None,1092.41014729999,None,,,,,120,001,2023-10-10_15h28.38.212,uncolored_sorted,2021.2.3,59.95063663283657,
C:\Users\subject\Desktop\SVRT Experiments\SVRT Experiment 3\svrt_images\generated_images\results_problem_7,C:\Users\subject\Desktop\SVRT Experiments\SVRT Experiment 3\svrt_images\generated_images\results_problem_14\sample_1_0012.png,C:\Users\subject\Desktop\SVRT Experiments\SVRT Experiment 3\svrt_images\generated_images\results_problem_7\sample_0_0000.png,,,,,,,,,,,,,,,,,,,,,,0,1,1,1,0,29,29,29,,,,,,,,,,,,,,j,7,B,B,30,1,Correct!,1.6844480999279767,1093.7111335999798,None,1093.7111335999798,None,1095.4624443999492,None,,,,,120,001,2023-10-10_15h28.38.212,uncolored_sorted,2021.2.3,59.95063663283657,
C:\Users\subject\Desktop\SVRT Experiments\SVRT Experiment 3\svrt_images\generated_images\results_problem_7,C:\Users\subject\Desktop\SVRT Experiments\SVRT Experiment 3\svrt_images\generated_images\results_problem_14\sample_1_0012.png,C:\Users\subject\Desktop\SVRT Experiments\SVRT Experiment 3\svrt_images\generated_images\results_problem_7\sample_1_0003.png,,,,,,,,,,,,,,,,,,,,,,0,1,1,1,0,30,30,30,,,,,,,,,,,,,,j,7,B,A,30,0,Incorrect!,3.4146601000102237,1096.796808999963,None,1096.796808999963,None,1100.28274960001,None,,,,,120,001,2023-10-10_15h28.38.212,uncolored_sorted,2021.2.3,59.95063663283657,
C:\Users\subject\Desktop\SVRT Experiments\SVRT Experiment 3\svrt_images\generated_images\results_problem_7,C:\Users\subject\Desktop\SVRT Experiments\SVRT Experiment 3\svrt_images\generated_images\results_problem_14\sample_1_0012.png,C:\Users\subject\Desktop\SVRT Experiments\SVRT Experiment 3\svrt_images\generated_images\results_problem_7\sample_0_0012.png,,,,,,,,,,,,,,,,,,,,,,0,1,1,1,0,31,31,31,,,,,,,,,,,,,,f,7,A,B,30,0,Incorrect!,3.2183407000266016,1101.6170683000237,None,1101.6170683000237,None,1104.8861753999954,None,,,,,120,001,2023-10-10_15h28.38.212,uncolored_sorted,2021.2.3,59.95063663283657,
C:\Users\subject\Desktop\SVRT Experiments\SVRT Experiment 3\svrt_images\generated_images\results_problem_7,C:\Users\subject\Desktop\SVRT Experiments\SVRT Experiment 3\svrt_images\generated_images\results_problem_14\sample_1_0012.png,C:\Users\subject\Desktop\SVRT Experiments\SVRT Experiment 3\svrt_images\generated_images\results_problem_7\sample_0_0002.png,,,,,,,,,,,,,,,,,,,,,,0,1,1,1,0,32,32,32,,,,,,,,,,,,,,f,7,A,B,30,0,Incorrect!,18.75141899997834,1106.2038895000005,None,1106.2038895000005,None,1124.9847126000095,None,,,,,120,001,2023-10-10_15h28.38.212,uncolored_sorted,2021.2.3,59.95063663283657,
C:\Users\subject\Desktop\SVRT Experiments\SVRT Experiment 3\svrt_images\generated_images\results_problem_7,C:\Users\subject\Desktop\SVRT Experiments\SVRT Experiment 3\svrt_images\generated_images\results_problem_14\sample_1_0012.png,C:\Users\subject\Desktop\SVRT Experiments\SVRT Experiment 3\svrt_images\generated_images\results_problem_7\sample_0_0016.png,,,,,,,,,,,,,,,,,,,,,,0,1,1,1,0,33,33,33,,,,,,,,,,,,,,f,7,A,B,30,0,Incorrect!,3.836244000005536,1126.3190598000074,None,1126.3190598000074,None,1130.2219961000374,None,,,,,120,001,2023-10-10_15h28.38.212,uncolored_sorted,2021.2.3,59.95063663283657,
C:\Users\subject\Desktop\SVRT Experiments\SVRT Experiment 3\svrt_images\generated_images\results_problem_7,C:\Users\subject\Desktop\SVRT Experiments\SVRT Experiment 3\svrt_images\generated_images\results_problem_14\sample_1_0012.png,,,,,,,,,,,,,,,,,,,,,,,0,1,1,1,0,23,23,23,,,,,,,,,,,,,,,,,,,,,,,,,,,,1131.2227531999815,1131.2227531999815,space,1.9804843999445438,120,001,2023-10-10_15h28.38.212,uncolored_sorted,2021.2.3,59.95063663283657,
C:\Users\subject\Desktop\SVRT Experiments\SVRT Experiment 3\svrt_images\generated_images\results_problem_20,C:\Users\subject\Desktop\SVRT Experiments\SVRT Experiment 3\svrt_images\generated_images\results_problem_14\sample_1_0012.png,,C:\Users\subject\Desktop\SVRT Experiments\SVRT Experiment 3\svrt_images\generated_images\results_problem_20\sample_1_0011.png,,,,,,,,,,,,,,,,,,,,,0,2,2,2,0,0,0,0,,,,,,,,,,,,,,j,20,B,A,30,0,Incorrect!,2.4269251000368968,1133.224264999968,None,1133.224264999968,None,1135.6760889999568,None,,,,,120,001,2023-10-10_15h28.38.212,uncolored_sorted,2021.2.3,59.95063663283657,
C:\Users\subject\Desktop\SVRT Experiments\SVRT Experiment 3\svrt_images\generated_images\results_problem_20,C:\Users\subject\Desktop\SVRT Experiments\SVRT Experiment 3\svrt_images\generated_images\results_problem_14\sample_1_0012.png,,C:\Users\subject\Desktop\SVRT Experiments\SVRT Experiment 3\svrt_images\generated_images\results_problem_20\sample_0_0013.png,,,,,,,,,,,,,,,,,,,,,0,2,2,2,0,1,1,1,,,,,,,,,,,,,,j,20,B,B,30,1,Correct!,4.262357200030237,1136.676866200054,None,1136.676866200054,None,1140.9633889000397,None,,,,,120,001,2023-10-10_15h28.38.212,uncolored_sorted,2021.2.3,59.95063663283657,
C:\Users\subject\Desktop\SVRT Experiments\SVRT Experiment 3\svrt_images\generated_images\results_problem_20,C:\Users\subject\Desktop\SVRT Experiments\SVRT Experiment 3\svrt_images\generated_images\results_problem_14\sample_1_0012.png,,C:\Users\subject\Desktop\SVRT Experiments\SVRT Experiment 3\svrt_images\generated_images\results_problem_20\sample_0_0005.png,,,,,,,,,,,,,,,,,,,,,0,2,2,2,0,2,2,2,,,,,,,,,,,,,,f,20,A,B,30,0,Incorrect!,2.966321999905631,1141.9808255999815,None,1141.9808255999815,None,1144.9664229999762,None,,,,,120,001,2023-10-10_15h28.38.212,uncolored_sorted,2021.2.3,59.95063663283657,
C:\Users\subject\Desktop\SVRT Experiments\SVRT Experiment 3\svrt_images\generated_images\results_problem_20,C:\Users\subject\Desktop\SVRT Experiments\SVRT Experiment 3\svrt_images\generated_images\results_problem_14\sample_1_0012.png,,C:\Users\subject\Desktop\SVRT Experiments\SVRT Experiment 3\svrt_images\generated_images\results_problem_20\sample_0_0001.png,,,,,,,,,,,,,,,,,,,,,0,2,2,2,0,3,3,3,,,,,,,,,,,,,,j,20,B,B,30,1,Correct!,10.331191299948841,1145.983886800008,None,1145.983886800008,None,1156.3417100999504,None,,,,,120,001,2023-10-10_15h28.38.212,uncolored_sorted,2021.2.3,59.95063663283657,
C:\Users\subject\Desktop\SVRT Experiments\SVRT Experiment 3\svrt_images\generated_images\results_problem_20,C:\Users\subject\Desktop\SVRT Experiments\SVRT Experiment 3\svrt_images\generated_images\results_problem_14\sample_1_0012.png,,C:\Users\subject\Desktop\SVRT Experiments\SVRT Experiment 3\svrt_images\generated_images\results_problem_20\sample_0_0003.png,,,,,,,,,,,,,,,,,,,,,0,2,2,2,0,4,4,4,,,,,,,,,,,,,,j,20,B,B,30,1,Correct!,5.963313900050707,1157.3758399999933,None,1157.3758399999933,None,1163.3637570999563,None,,,,,120,001,2023-10-10_15h28.38.212,uncolored_sorted,2021.2.3,59.95063663283657,
C:\Users\subject\Desktop\SVRT Experiments\SVRT Experiment 3\svrt_images\generated_images\results_problem_20,C:\Users\subject\Desktop\SVRT Experiments\SVRT Experiment 3\svrt_images\generated_images\results_problem_14\sample_1_0012.png,,C:\Users\subject\Desktop\SVRT Experiments\SVRT Experiment 3\svrt_images\generated_images\results_problem_20\sample_0_0010.png,,,,,,,,,,,,,,,,,,,,,0,2,2,2,0,5,5,5,,,,,,,,,,,,,,j,20,B,B,30,1,Correct!,6.165173099958338,1164.3977765999734,None,1164.3977765999734,None,1170.5857567000203,None,,,,,120,001,2023-10-10_15h28.38.212,uncolored_sorted,2021.2.3,59.95063663283657,
C:\Users\subject\Desktop\SVRT Experiments\SVRT Experiment 3\svrt_images\generated_images\results_problem_20,C:\Users\subject\Desktop\SVRT Experiments\SVRT Experiment 3\svrt_images\generated_images\results_problem_14\sample_1_0012.png,,C:\Users\subject\Desktop\SVRT Experiments\SVRT Experiment 3\svrt_images\generated_images\results_problem_20\sample_1_0007.png,,,,,,,,,,,,,,,,,,,,,0,2,2,2,0,6,6,6,,,,,,,,,,,,,,f,20,A,A,30,1,Correct!,2.6864122999832034,1171.6365724999923,None,1171.6365724999923,None,1174.3552414999576,None,,,,,120,001,2023-10-10_15h28.38.212,uncolored_sorted,2021.2.3,59.95063663283657,
C:\Users\subject\Desktop\SVRT Experiments\SVRT Experiment 3\svrt_images\generated_images\results_problem_20,C:\Users\subject\Desktop\SVRT Experiments\SVRT Experiment 3\svrt_images\generated_images\results_problem_14\sample_1_0012.png,,C:\Users\subject\Desktop\SVRT Experiments\SVRT Experiment 3\svrt_images\generated_images\results_problem_20\sample_1_0003.png,,,,,,,,,,,,,,,,,,,,,0,2,2,2,0,7,7,7,,,,,,,,,,,,,,j,20,B,A,30,0,Incorrect!,9.02016640000511,1175.42272459995,None,1175.42272459995,None,1184.4629033999518,None,,,,,120,001,2023-10-10_15h28.38.212,uncolored_sorted,2021.2.3,59.95063663283657,
C:\Users\subject\Desktop\SVRT Experiments\SVRT Experiment 3\svrt_images\generated_images\results_problem_20,C:\Users\subject\Desktop\SVRT Experiments\SVRT Experiment 3\svrt_images\generated_images\results_problem_14\sample_1_0012.png,,C:\Users\subject\Desktop\SVRT Experiments\SVRT Experiment 3\svrt_images\generated_images\results_problem_20\sample_1_0009.png,,,,,,,,,,,,,,,,,,,,,0,2,2,2,0,8,8,8,,,,,,,,,,,,,,f,20,A,A,30,1,Correct!,5.744545399909839,1185.530382100027,None,1185.530382100027,None,1191.3013812999707,None,,,,,120,001,2023-10-10_15h28.38.212,uncolored_sorted,2021.2.3,59.95063663283657,
C:\Users\subject\Desktop\SVRT Experiments\SVRT Experiment 3\svrt_images\generated_images\results_problem_20,C:\Users\subject\Desktop\SVRT Experiments\SVRT Experiment 3\svrt_images\generated_images\results_problem_14\sample_1_0012.png,,C:\Users\subject\Desktop\SVRT Experiments\SVRT Experiment 3\svrt_images\generated_images\results_problem_20\sample_1_0004.png,,,,,,,,,,,,,,,,,,,,,0,2,2,2,0,9,9,9,,,,,,,,,,,,,,f,20,A,A,30,1,Correct!,1.7859700999688357,1192.3688487999607,None,1192.3688487999607,None,1194.1869055000134,None,,,,,120,001,2023-10-10_15h28.38.212,uncolored_sorted,2021.2.3,59.95063663283657,
C:\Users\subject\Desktop\SVRT Experiments\SVRT Experiment 3\svrt_images\generated_images\results_problem_20,C:\Users\subject\Desktop\SVRT Experiments\SVRT Experiment 3\svrt_images\generated_images\results_problem_14\sample_1_0012.png,,C:\Users\subject\Desktop\SVRT Experiments\SVRT Experiment 3\svrt_images\generated_images\results_problem_20\sample_0_0002.png,,,,,,,,,,,,,,,,,,,,,0,2,2,2,0,10,10,10,,,,,,,,,,,,,,f,20,A,B,30,0,Incorrect!,1.1797527000308037,1195.2710640999721,None,1195.2710640999721,None,1196.471964700031,None,,,,,120,001,2023-10-10_15h28.38.212,uncolored_sorted,2021.2.3,59.95063663283657,
C:\Users\subject\Desktop\SVRT Experiments\SVRT Experiment 3\svrt_images\generated_images\results_problem_20,C:\Users\subject\Desktop\SVRT Experiments\SVRT Experiment 3\svrt_images\generated_images\results_problem_14\sample_1_0012.png,,C:\Users\subject\Desktop\SVRT Experiments\SVRT Experiment 3\svrt_images\generated_images\results_problem_20\sample_1_0016.png,,,,,,,,,,,,,,,,,,,,,0,2,2,2,0,11,11,11,,,,,,,,,,,,,,j,20,B,A,30,0,Incorrect!,3.8219489000039175,1197.5728090000339,None,1197.5728090000339,None,1201.425704400055,None,,,,,120,001,2023-10-10_15h28.38.212,uncolored_sorted,2021.2.3,59.95063663283657,
C:\Users\subject\Desktop\SVRT Experiments\SVRT Experiment 3\svrt_images\generated_images\results_problem_20,C:\Users\subject\Desktop\SVRT Experiments\SVRT Experiment 3\svrt_images\generated_images\results_problem_14\sample_1_0012.png,,C:\Users\subject\Desktop\SVRT Experiments\SVRT Experiment 3\svrt_images\generated_images\results_problem_20\sample_1_0014.png,,,,,,,,,,,,,,,,,,,,,0,2,2,2,0,12,12,12,,,,,,,,,,,,,,f,20,A,A,30,1,Correct!,4.3395679000532255,1202.5432161999634,None,1202.5432161999634,None,1206.9131390999537,None,,,,,120,001,2023-10-10_15h28.38.212,uncolored_sorted,2021.2.3,59.95063663283657,
C:\Users\subject\Desktop\SVRT Experiments\SVRT Experiment 3\svrt_images\generated_images\results_problem_20,C:\Users\subject\Desktop\SVRT Experiments\SVRT Experiment 3\svrt_images\generated_images\results_problem_14\sample_1_0012.png,,C:\Users\subject\Desktop\SVRT Experiments\SVRT Experiment 3\svrt_images\generated_images\results_problem_20\sample_0_0015.png,,,,,,,,,,,,,,,,,,,,,0,2,2,2,0,13,13,13,,,,,,,,,,,,,,j,20,B,B,30,1,Correct!,1.6360046999761835,1208.0306700000074,None,1208.0306700000074,None,1209.6985687999986,None,,,,,120,001,2023-10-10_15h28.38.212,uncolored_sorted,2021.2.3,59.95063663283657,
C:\Users\subject\Desktop\SVRT Experiments\SVRT Experiment 3\svrt_images\generated_images\results_problem_20,C:\Users\subject\Desktop\SVRT Experiments\SVRT Experiment 3\svrt_images\generated_images\results_problem_14\sample_1_0012.png,,C:\Users\subject\Desktop\SVRT Experiments\SVRT Experiment 3\svrt_images\generated_images\results_problem_20\sample_1_0005.png,,,,,,,,,,,,,,,,,,,,,0,2,2,2,0,14,14,14,,,,,,,,,,,,,,f,20,A,A,30,1,Correct!,6.994625100051053,1210.8161202999763,None,1210.8161202999763,None,1217.8380790000083,None,,,,,120,001,2023-10-10_15h28.38.212,uncolored_sorted,2021.2.3,59.95063663283657,
C:\Users\subject\Desktop\SVRT Experiments\SVRT Experiment 3\svrt_images\generated_images\results_problem_20,C:\Users\subject\Desktop\SVRT Experiments\SVRT Experiment 3\svrt_images\generated_images\results_problem_14\sample_1_0012.png,,C:\Users\subject\Desktop\SVRT Experiments\SVRT Experiment 3\svrt_images\generated_images\results_problem_20\sample_1_0006.png,,,,,,,,,,,,,,,,,,,,,0,2,2,2,0,15,15,15,,,,,,,,,,,,,,j,20,B,A,30,0,Incorrect!,3.1343679999699816,1218.9722390000243,None,1218.9722390000243,None,1222.124630299979,None,,,,,120,001,2023-10-10_15h28.38.212,uncolored_sorted,2021.2.3,59.95063663283657,
C:\Users\subject\Desktop\SVRT Experiments\SVRT Experiment 3\svrt_images\generated_images\results_problem_20,C:\Users\subject\Desktop\SVRT Experiments\SVRT Experiment 3\svrt_images\generated_images\results_problem_14\sample_1_0012.png,,C:\Users\subject\Desktop\SVRT Experiments\SVRT Experiment 3\svrt_images\generated_images\results_problem_20\sample_1_0001.png,,,,,,,,,,,,,,,,,,,,,0,2,2,2,0,16,16,16,,,,,,,,,,,,,,f,20,A,A,30,1,Correct!,2.9678161999909207,1223.2587994999485,None,1223.2587994999485,None,1226.244397399947,None,,,,,120,001,2023-10-10_15h28.38.212,uncolored_sorted,2021.2.3,59.95063663283657,
C:\Users\subject\Desktop\SVRT Experiments\SVRT Experiment 3\svrt_images\generated_images\results_problem_20,C:\Users\subject\Desktop\SVRT Experiments\SVRT Experiment 3\svrt_images\generated_images\results_problem_14\sample_1_0012.png,,C:\Users\subject\Desktop\SVRT Experiments\SVRT Experiment 3\svrt_images\generated_images\results_problem_20\sample_1_0013.png,,,,,,,,,,,,,,,,,,,,,0,2,2,2,0,17,17,17,,,,,,,,,,,,,,j,20,B,A,30,0,Incorrect!,8.302565000019968,1227.4119726000354,None,1227.4119726000354,None,1235.7349091999931,None,,,,,120,001,2023-10-10_15h28.38.212,uncolored_sorted,2021.2.3,59.95063663283657,
C:\Users\subject\Desktop\SVRT Experiments\SVRT Experiment 3\svrt_images\generated_images\results_problem_20,C:\Users\subject\Desktop\SVRT Experiments\SVRT Experiment 3\svrt_images\generated_images\results_problem_14\sample_1_0012.png,,C:\Users\subject\Desktop\SVRT Experiments\SVRT Experiment 3\svrt_images\generated_images\results_problem_20\sample_1_0012.png,,,,,,,,,,,,,,,,,,,,,0,2,2,2,0,18,18,18,,,,,,,,,,,,,,f,20,A,A,30,1,Correct!,5.083984999917448,1236.9024611000204,None,1236.9024611000204,None,1242.0229485000018,None,,,,,120,001,2023-10-10_15h28.38.212,uncolored_sorted,2021.2.3,59.95063663283657,
C:\Users\subject\Desktop\SVRT Experiments\SVRT Experiment 3\svrt_images\generated_images\results_problem_20,C:\Users\subject\Desktop\SVRT Experiments\SVRT Experiment 3\svrt_images\generated_images\results_problem_14\sample_1_0012.png,,C:\Users\subject\Desktop\SVRT Experiments\SVRT Experiment 3\svrt_images\generated_images\results_problem_20\sample_0_0007.png,,,,,,,,,,,,,,,,,,,,,0,2,2,2,0,19,19,19,,,,,,,,,,,,,,f,20,A,B,30,0,Incorrect!,1.4831593000562862,1243.2073015000205,None,1243.2073015000205,None,1244.724996099947,None,,,,,120,001,2023-10-10_15h28.38.212,uncolored_sorted,2021.2.3,59.95063663283657,
C:\Users\subject\Desktop\SVRT Experiments\SVRT Experiment 3\svrt_images\generated_images\results_problem_20,C:\Users\subject\Desktop\SVRT Experiments\SVRT Experiment 3\svrt_images\generated_images\results_problem_14\sample_1_0012.png,,C:\Users\subject\Desktop\SVRT Experiments\SVRT Experiment 3\svrt_images\generated_images\results_problem_20\sample_0_0011.png,,,,,,,,,,,,,,,,,,,,,0,2,2,2,0,20,20,20,,,,,,,,,,,,,,j,20,B,B,30,1,Correct!,27.948329699924216,1245.9259403999895,None,1245.9259403999895,None,1273.897019200027,None,,,,,120,001,2023-10-10_15h28.38.212,uncolored_sorted,2021.2.3,59.95063663283657,
C:\Users\subject\Desktop\SVRT Experiments\SVRT Experiment 3\svrt_images\generated_images\results_problem_20,C:\Users\subject\Desktop\SVRT Experiments\SVRT Experiment 3\svrt_images\generated_images\results_problem_14\sample_1_0012.png,,C:\Users\subject\Desktop\SVRT Experiments\SVRT Experiment 3\svrt_images\generated_images\results_problem_20\sample_1_0010.png,,,,,,,,,,,,,,,,,,,,,0,2,2,2,0,21,21,21,,,,,,,,,,,,,,f,20,A,A,30,1,Correct!,3.3130414999322966,1275.0812436999986,None,1275.0812436999986,None,1278.433781299973,None,,,,,120,001,2023-10-10_15h28.38.212,uncolored_sorted,2021.2.3,59.95063663283657,
C:\Users\subject\Desktop\SVRT Experiments\SVRT Experiment 3\svrt_images\generated_images\results_problem_20,C:\Users\subject\Desktop\SVRT Experiments\SVRT Experiment 3\svrt_images\generated_images\results_problem_14\sample_1_0012.png,,C:\Users\subject\Desktop\SVRT Experiments\SVRT Experiment 3\svrt_images\generated_images\results_problem_20\sample_0_0004.png,,,,,,,,,,,,,,,,,,,,,0,2,2,2,0,22,22,22,,,,,,,,,,,,,,j,20,B,B,30,1,Correct!,3.0076350000454113,1279.6346745999763,None,1279.6346745999763,None,1282.6869910999667,None,,,,,120,001,2023-10-10_15h28.38.212,uncolored_sorted,2021.2.3,59.95063663283657,
C:\Users\subject\Desktop\SVRT Experiments\SVRT Experiment 3\svrt_images\generated_images\results_problem_20,C:\Users\subject\Desktop\SVRT Experiments\SVRT Experiment 3\svrt_images\generated_images\results_problem_14\sample_1_0012.png,,C:\Users\subject\Desktop\SVRT Experiments\SVRT Experiment 3\svrt_images\generated_images\results_problem_20\sample_0_0006.png,,,,,,,,,,,,,,,,,,,,,0,2,2,2,0,23,23,23,,,,,,,,,,,,,,j,20,B,B,30,1,Correct!,2.249501600046642,1283.904662200017,None,1283.904662200017,None,1286.2063991000177,None,,,,,120,001,2023-10-10_15h28.38.212,uncolored_sorted,2021.2.3,59.95063663283657,
C:\Users\subject\Desktop\SVRT Experiments\SVRT Experiment 3\svrt_images\generated_images\results_problem_20,C:\Users\subject\Desktop\SVRT Experiments\SVRT Experiment 3\svrt_images\generated_images\results_problem_14\sample_1_0012.png,,C:\Users\subject\Desktop\SVRT Experiments\SVRT Experiment 3\svrt_images\generated_images\results_problem_20\sample_1_0008.png,,,,,,,,,,,,,,,,,,,,,0,2,2,2,0,24,24,24,,,,,,,,,,,,,,f,20,A,A,30,1,Correct!,14.881470400025137,1287.4405731000006,None,1287.4405731000006,None,1302.3684632000513,None,,,,,120,001,2023-10-10_15h28.38.212,uncolored_sorted,2021.2.3,59.95063663283657,
C:\Users\subject\Desktop\SVRT Experiments\SVRT Experiment 3\svrt_images\generated_images\results_problem_20,C:\Users\subject\Desktop\SVRT Experiments\SVRT Experiment 3\svrt_images\generated_images\results_problem_14\sample_1_0012.png,,C:\Users\subject\Desktop\SVRT Experiments\SVRT Experiment 3\svrt_images\generated_images\results_problem_20\sample_1_0015.png,,,,,,,,,,,,,,,,,,,,,0,2,2,2,0,25,25,25,,,,,,,,,,,,,,j,20,B,A,30,0,Incorrect!,3.9186930999858305,1303.6194469999755,None,1303.6194469999755,None,1307.5891023000004,None,,,,,120,001,2023-10-10_15h28.38.212,uncolored_sorted,2021.2.3,59.95063663283657,
C:\Users\subject\Desktop\SVRT Experiments\SVRT Experiment 3\svrt_images\generated_images\results_problem_20,C:\Users\subject\Desktop\SVRT Experiments\SVRT Experiment 3\svrt_images\generated_images\results_problem_14\sample_1_0012.png,,C:\Users\subject\Desktop\SVRT Experiments\SVRT Experiment 3\svrt_images\generated_images\results_problem_20\sample_0_0009.png,,,,,,,,,,,,,,,,,,,,,0,2,2,2,0,26,26,26,,,,,,,,,,,,,,f,20,A,B,30,0,Incorrect!,4.241878099972382,1308.8400552000385,None,1308.8400552000385,None,1313.143298799987,None,,,,,120,001,2023-10-10_15h28.38.212,uncolored_sorted,2021.2.3,59.95063663283657,
C:\Users\subject\Desktop\SVRT Experiments\SVRT Experiment 3\svrt_images\generated_images\results_problem_20,C:\Users\subject\Desktop\SVRT Experiments\SVRT Experiment 3\svrt_images\generated_images\results_problem_14\sample_1_0012.png,,C:\Users\subject\Desktop\SVRT Experiments\SVRT Experiment 3\svrt_images\generated_images\results_problem_20\sample_1_0000.png,,,,,,,,,,,,,,,,,,,,,0,2,2,2,0,27,27,27,,,,,,,,,,,,,,j,20,B,A,30,0,Incorrect!,7.574954799958505,1314.410924899974,None,1314.410924899974,None,1322.0499730999582,None,,,,,120,001,2023-10-10_15h28.38.212,uncolored_sorted,2021.2.3,59.95063663283657,
C:\Users\subject\Desktop\SVRT Experiments\SVRT Experiment 3\svrt_images\generated_images\results_problem_20,C:\Users\subject\Desktop\SVRT Experiments\SVRT Experiment 3\svrt_images\generated_images\results_problem_14\sample_1_0012.png,,C:\Users\subject\Desktop\SVRT Experiments\SVRT Experiment 3\svrt_images\generated_images\results_problem_20\sample_0_0000.png,,,,,,,,,,,,,,,,,,,,,0,2,2,2,0,28,28,28,,,,,,,,,,,,,,j,20,B,B,30,1,Correct!,7.0182333999546245,1323.3676485000178,None,1323.3676485000178,None,1330.406296800007,None,,,,,120,001,2023-10-10_15h28.38.212,uncolored_sorted,2021.2.3,59.95063663283657,
C:\Users\subject\Desktop\SVRT Experiments\SVRT Experiment 3\svrt_images\generated_images\results_problem_20,C:\Users\subject\Desktop\SVRT Experiments\SVRT Experiment 3\svrt_images\generated_images\results_problem_14\sample_1_0012.png,,C:\Users\subject\Desktop\SVRT Experiments\SVRT Experiment 3\svrt_images\generated_images\results_problem_20\sample_0_0008.png,,,,,,,,,,,,,,,,,,,,,0,2,2,2,0,29,29,29,,,,,,,,,,,,,,j,20,B,B,30,1,Correct!,1.743206699960865,1331.6906245000428,None,1331.6906245000428,None,1333.4587075000163,None,,,,,120,001,2023-10-10_15h28.38.212,uncolored_sorted,2021.2.3,59.95063663283657,
C:\Users\subject\Desktop\SVRT Experiments\SVRT Experiment 3\svrt_images\generated_images\results_problem_20,C:\Users\subject\Desktop\SVRT Experiments\SVRT Experiment 3\svrt_images\generated_images\results_problem_14\sample_1_0012.png,,C:\Users\subject\Desktop\SVRT Experiments\SVRT Experiment 3\svrt_images\generated_images\results_problem_20\sample_0_0012.png,,,,,,,,,,,,,,,,,,,,,0,2,2,2,0,30,30,30,,,,,,,,,,,,,,f,20,A,B,30,0,Incorrect!,2.098149000084959,1334.7596384000499,None,1334.7596384000499,None,1336.9278923999518,None,,,,,120,001,2023-10-10_15h28.38.212,uncolored_sorted,2021.2.3,59.95063663283657,
C:\Users\subject\Desktop\SVRT Experiments\SVRT Experiment 3\svrt_images\generated_images\results_problem_20,C:\Users\subject\Desktop\SVRT Experiments\SVRT Experiment 3\svrt_images\generated_images\results_problem_14\sample_1_0012.png,,C:\Users\subject\Desktop\SVRT Experiments\SVRT Experiment 3\svrt_images\generated_images\results_problem_20\sample_0_0016.png,,,,,,,,,,,,,,,,,,,,,0,2,2,2,0,31,31,31,,,,,,,,,,,,,,f,20,A,B,30,0,Incorrect!,4.364890499971807,1338.228883999982,None,1338.228883999982,None,1342.615504299989,None,,,,,120,001,2023-10-10_15h28.38.212,uncolored_sorted,2021.2.3,59.95063663283657,
C:\Users\subject\Desktop\SVRT Experiments\SVRT Experiment 3\svrt_images\generated_images\results_problem_20,C:\Users\subject\Desktop\SVRT Experiments\SVRT Experiment 3\svrt_images\generated_images\results_problem_14\sample_1_0012.png,,C:\Users\subject\Desktop\SVRT Experiments\SVRT Experiment 3\svrt_images\generated_images\results_problem_20\sample_1_0002.png,,,,,,,,,,,,,,,,,,,,,0,2,2,2,0,32,32,32,,,,,,,,,,,,,,j,20,B,A,30,0,Incorrect!,11.723924500052817,1343.9498672999907,None,1343.9498672999907,None,1355.7254142999882,None,,,,,120,001,2023-10-10_15h28.38.212,uncolored_sorted,2021.2.3,59.95063663283657,
C:\Users\subject\Desktop\SVRT Experiments\SVRT Experiment 3\svrt_images\generated_images\results_problem_20,C:\Users\subject\Desktop\SVRT Experiments\SVRT Experiment 3\svrt_images\generated_images\results_problem_14\sample_1_0012.png,,C:\Users\subject\Desktop\SVRT Experiments\SVRT Experiment 3\svrt_images\generated_images\results_problem_20\sample_0_0014.png,,,,,,,,,,,,,,,,,,,,,0,2,2,2,0,33,33,33,,,,,,,,,,,,,,j,20,B,B,30,1,Correct!,3.109317300026305,1357.07642269996,None,1357.07642269996,None,1360.2121274999809,None,,,,,120,001,2023-10-10_15h28.38.212,uncolored_sorted,2021.2.3,59.95063663283657,
C:\Users\subject\Desktop\SVRT Experiments\SVRT Experiment 3\svrt_images\generated_images\results_problem_20,C:\Users\subject\Desktop\SVRT Experiments\SVRT Experiment 3\svrt_images\generated_images\results_problem_14\sample_1_0012.png,,,,,,,,,,,,,,,,,,,,,,,0,2,2,2,0,23,23,23,,,,,,,,,,,,,,,,,,,,,,,,,,,,1361.2128923999844,1361.2128923999844,space,1.3008285000687465,120,001,2023-10-10_15h28.38.212,uncolored_sorted,2021.2.3,59.95063663283657,
C:\Users\subject\Desktop\SVRT Experiments\SVRT Experiment 3\svrt_images\generated_images\results_problem_22,C:\Users\subject\Desktop\SVRT Experiments\SVRT Experiment 3\svrt_images\generated_images\results_problem_14\sample_1_0012.png,,,C:\Users\subject\Desktop\SVRT Experiments\SVRT Experiment 3\svrt_images\generated_images\results_problem_22\sample_1_0006.png,,,,,,,,,,,,,,,,,,,,0,3,3,3,0,0,0,0,,,,,,,,,,,,,,f,22,A,A,30,1,Correct!,5.582444400060922,1362.5471869000467,None,1362.5471869000467,None,1368.151410600054,None,,,,,120,001,2023-10-10_15h28.38.212,uncolored_sorted,2021.2.3,59.95063663283657,
C:\Users\subject\Desktop\SVRT Experiments\SVRT Experiment 3\svrt_images\generated_images\results_problem_22,C:\Users\subject\Desktop\SVRT Experiments\SVRT Experiment 3\svrt_images\generated_images\results_problem_14\sample_1_0012.png,,,C:\Users\subject\Desktop\SVRT Experiments\SVRT Experiment 3\svrt_images\generated_images\results_problem_22\sample_0_0000.png,,,,,,,,,,,,,,,,,,,,0,3,3,3,0,1,1,1,,,,,,,,,,,,,,f,22,A,B,30,0,Incorrect!,5.273452800000086,1369.1521616999526,None,1369.1521616999526,None,1374.4561741000507,None,,,,,120,001,2023-10-10_15h28.38.212,uncolored_sorted,2021.2.3,59.95063663283657,
C:\Users\subject\Desktop\SVRT Experiments\SVRT Experiment 3\svrt_images\generated_images\results_problem_22,C:\Users\subject\Desktop\SVRT Experiments\SVRT Experiment 3\svrt_images\generated_images\results_problem_14\sample_1_0012.png,,,C:\Users\subject\Desktop\SVRT Experiments\SVRT Experiment 3\svrt_images\generated_images\results_problem_22\sample_0_0009.png,,,,,,,,,,,,,,,,,,,,0,3,3,3,0,2,2,2,,,,,,,,,,,,,,j,22,B,B,30,1,Correct!,6.239966699969955,1375.4736439000117,None,1375.4736439000117,None,1381.7450813000323,None,,,,,120,001,2023-10-10_15h28.38.212,uncolored_sorted,2021.2.3,59.95063663283657,
C:\Users\subject\Desktop\SVRT Experiments\SVRT Experiment 3\svrt_images\generated_images\results_problem_22,C:\Users\subject\Desktop\SVRT Experiments\SVRT Experiment 3\svrt_images\generated_images\results_problem_14\sample_1_0012.png,,,C:\Users\subject\Desktop\SVRT Experiments\SVRT Experiment 3\svrt_images\generated_images\results_problem_22\sample_1_0009.png,,,,,,,,,,,,,,,,,,,,0,3,3,3,0,3,3,3,,,,,,,,,,,,,,f,22,A,A,30,1,Correct!,2.2630212999647483,1382.7624741999898,None,1382.7624741999898,None,1385.0475267999573,None,,,,,120,001,2023-10-10_15h28.38.212,uncolored_sorted,2021.2.3,59.95063663283657,
C:\Users\subject\Desktop\SVRT Experiments\SVRT Experiment 3\svrt_images\generated_images\results_problem_22,C:\Users\subject\Desktop\SVRT Experiments\SVRT Experiment 3\svrt_images\generated_images\results_problem_14\sample_1_0012.png,,,C:\Users\subject\Desktop\SVRT Experiments\SVRT Experiment 3\svrt_images\generated_images\results_problem_22\sample_1_0003.png,,,,,,,,,,,,,,,,,,,,0,3,3,3,0,4,4,4,,,,,,,,,,,,,,f,22,A,A,30,1,Correct!,1.9517771999817342,1386.0816445000237,None,1386.0816445000237,None,1388.0664700999623,None,,,,,120,001,2023-10-10_15h28.38.212,uncolored_sorted,2021.2.3,59.95063663283657,
C:\Users\subject\Desktop\SVRT Experiments\SVRT Experiment 3\svrt_images\generated_images\results_problem_22,C:\Users\subject\Desktop\SVRT Experiments\SVRT Experiment 3\svrt_images\generated_images\results_problem_14\sample_1_0012.png,,,C:\Users\subject\Desktop\SVRT Experiments\SVRT Experiment 3\svrt_images\generated_images\results_problem_22\sample_1_0011.png,,,,,,,,,,,,,,,,,,,,0,3,3,3,0,5,5,5,,,,,,,,,,,,,,f,22,A,A,30,1,Correct!,1.564895800082013,1389.100588900037,None,1389.100588900037,None,1390.685077699949,None,,,,,120,001,2023-10-10_15h28.38.212,uncolored_sorted,2021.2.3,59.95063663283657,
C:\Users\subject\Desktop\SVRT Experiments\SVRT Experiment 3\svrt_images\generated_images\results_problem_22,C:\Users\subject\Desktop\SVRT Experiments\SVRT Experiment 3\svrt_images\generated_images\results_problem_14\sample_1_0012.png,,,C:\Users\subject\Desktop\SVRT Experiments\SVRT Experiment 3\svrt_images\generated_images\results_problem_22\sample_0_0012.png,,,,,,,,,,,,,,,,,,,,0,3,3,3,0,6,6,6,,,,,,,,,,,,,,j,22,B,B,30,1,Correct!,1.5456674000015482,1391.7358756000176,None,1391.7358756000176,None,1393.303757000016,None,,,,,120,001,2023-10-10_15h28.38.212,uncolored_sorted,2021.2.3,59.95063663283657,
C:\Users\subject\Desktop\SVRT Experiments\SVRT Experiment 3\svrt_images\generated_images\results_problem_22,C:\Users\subject\Desktop\SVRT Experiments\SVRT Experiment 3\svrt_images\generated_images\results_problem_14\sample_1_0012.png,,,C:\Users\subject\Desktop\SVRT Experiments\SVRT Experiment 3\svrt_images\generated_images\results_problem_22\sample_0_0015.png,,,,,,,,,,,,,,,,,,,,0,3,3,3,0,7,7,7,,,,,,,,,,,,,,j,22,B,B,30,1,Correct!,5.790801800088957,1394.3545504000504,None,1394.3545504000504,None,1400.1755917000119,None,,,,,120,001,2023-10-10_15h28.38.212,uncolored_sorted,2021.2.3,59.95063663283657,
C:\Users\subject\Desktop\SVRT Experiments\SVRT Experiment 3\svrt_images\generated_images\results_problem_22,C:\Users\subject\Desktop\SVRT Experiments\SVRT Experiment 3\svrt_images\generated_images\results_problem_14\sample_1_0012.png,,,C:\Users\subject\Desktop\SVRT Experiments\SVRT Experiment 3\svrt_images\generated_images\results_problem_22\sample_0_0007.png,,,,,,,,,,,,,,,,,,,,0,3,3,3,0,8,8,8,,,,,,,,,,,,,,f,22,A,B,30,0,Incorrect!,1.7024102000286803,1401.2430602000095,None,1401.2430602000095,None,1402.9777186999563,None,,,,,120,001,2023-10-10_15h28.38.212,uncolored_sorted,2021.2.3,59.95063663283657,
C:\Users\subject\Desktop\SVRT Experiments\SVRT Experiment 3\svrt_images\generated_images\results_problem_22,C:\Users\subject\Desktop\SVRT Experiments\SVRT Experiment 3\svrt_images\generated_images\results_problem_14\sample_1_0012.png,,,C:\Users\subject\Desktop\SVRT Experiments\SVRT Experiment 3\svrt_images\generated_images\results_problem_22\sample_0_0005.png,,,,,,,,,,,,,,,,,,,,0,3,3,3,0,9,9,9,,,,,,,,,,,,,,j,22,B,B,30,1,Correct!,3.372119600069709,1404.0452017999487,None,1404.0452017999487,None,1407.447748400038,None,,,,,120,001,2023-10-10_15h28.38.212,uncolored_sorted,2021.2.3,59.95063663283657,
C:\Users\subject\Desktop\SVRT Experiments\SVRT Experiment 3\svrt_images\generated_images\results_problem_22,C:\Users\subject\Desktop\SVRT Experiments\SVRT Experiment 3\svrt_images\generated_images\results_problem_14\sample_1_0012.png,,,C:\Users\subject\Desktop\SVRT Experiments\SVRT Experiment 3\svrt_images\generated_images\results_problem_22\sample_0_0014.png,,,,,,,,,,,,,,,,,,,,0,3,3,3,0,10,10,10,,,,,,,,,,,,,,j,22,B,B,30,1,Correct!,3.0293419000227004,1408.5319177999627,None,1408.5319177999627,None,1411.5842693999875,None,,,,,120,001,2023-10-10_15h28.38.212,uncolored_sorted,2021.2.3,59.95063663283657,
C:\Users\subject\Desktop\SVRT Experiments\SVRT Experiment 3\svrt_images\generated_images\results_problem_22,C:\Users\subject\Desktop\SVRT Experiments\SVRT Experiment 3\svrt_images\generated_images\results_problem_14\sample_1_0012.png,,,C:\Users\subject\Desktop\SVRT Experiments\SVRT Experiment 3\svrt_images\generated_images\results_problem_22\sample_1_0010.png,,,,,,,,,,,,,,,,,,,,0,3,3,3,0,11,11,11,,,,,,,,,,,,,,f,22,A,A,30,1,Correct!,1.4601888000033796,1412.6850505999755,None,1412.6850505999755,None,1414.169550199993,None,,,,,120,001,2023-10-10_15h28.38.212,uncolored_sorted,2021.2.3,59.95063663283657,
C:\Users\subject\Desktop\SVRT Experiments\SVRT Experiment 3\svrt_images\generated_images\results_problem_22,C:\Users\subject\Desktop\SVRT Experiments\SVRT Experiment 3\svrt_images\generated_images\results_problem_14\sample_1_0012.png,,,C:\Users\subject\Desktop\SVRT Experiments\SVRT Experiment 3\svrt_images\generated_images\results_problem_22\sample_1_0008.png,,,,,,,,,,,,,,,,,,,,0,3,3,3,0,12,12,12,,,,,,,,,,,,,,f,22,A,A,30,1,Correct!,1.330278499983251,1415.2869896000484,None,1415.2869896000484,None,1416.6380460000364,None,,,,,120,001,2023-10-10_15h28.38.212,uncolored_sorted,2021.2.3,59.95063663283657,
C:\Users\subject\Desktop\SVRT Experiments\SVRT Experiment 3\svrt_images\generated_images\results_problem_22,C:\Users\subject\Desktop\SVRT Experiments\SVRT Experiment 3\svrt_images\generated_images\results_problem_14\sample_1_0012.png,,,C:\Users\subject\Desktop\SVRT Experiments\SVRT Experiment 3\svrt_images\generated_images\results_problem_22\sample_0_0003.png,,,,,,,,,,,,,,,,,,,,0,3,3,3,0,13,13,13,,,,,,,,,,,,,,f,22,A,B,30,0,Incorrect!,1.4217108000302687,1417.7555516000139,None,1417.7555516000139,None,1419.2066250999924,None,,,,,120,001,2023-10-10_15h28.38.212,uncolored_sorted,2021.2.3,59.95063663283657,
C:\Users\subject\Desktop\SVRT Experiments\SVRT Experiment 3\svrt_images\generated_images\results_problem_22,C:\Users\subject\Desktop\SVRT Experiments\SVRT Experiment 3\svrt_images\generated_images\results_problem_14\sample_1_0012.png,,,C:\Users\subject\Desktop\SVRT Experiments\SVRT Experiment 3\svrt_images\generated_images\results_problem_22\sample_0_0002.png,,,,,,,,,,,,,,,,,,,,0,3,3,3,0,14,14,14,,,,,,,,,,,,,,j,22,B,B,30,1,Correct!,1.7891795000759885,1420.3241422000574,None,1420.3241422000574,None,1422.1421713000163,None,,,,,120,001,2023-10-10_15h28.38.212,uncolored_sorted,2021.2.3,59.95063663283657,
C:\Users\subject\Desktop\SVRT Experiments\SVRT Experiment 3\svrt_images\generated_images\results_problem_22,C:\Users\subject\Desktop\SVRT Experiments\SVRT Experiment 3\svrt_images\generated_images\results_problem_14\sample_1_0012.png,,,C:\Users\subject\Desktop\SVRT Experiments\SVRT Experiment 3\svrt_images\generated_images\results_problem_22\sample_1_0007.png,,,,,,,,,,,,,,,,,,,,0,3,3,3,0,15,15,15,,,,,,,,,,,,,,f,22,A,A,30,1,Correct!,1.4291107999160886,1423.2763469000347,None,1423.2763469000347,None,1424.7274468999822,None,,,,,120,001,2023-10-10_15h28.38.212,uncolored_sorted,2021.2.3,59.95063663283657,
C:\Users\subject\Desktop\SVRT Experiments\SVRT Experiment 3\svrt_images\generated_images\results_problem_22,C:\Users\subject\Desktop\SVRT Experiments\SVRT Experiment 3\svrt_images\generated_images\results_problem_14\sample_1_0012.png,,,C:\Users\subject\Desktop\SVRT Experiments\SVRT Experiment 3\svrt_images\generated_images\results_problem_22\sample_0_0011.png,,,,,,,,,,,,,,,,,,,,0,3,3,3,0,16,16,16,,,,,,,,,,,,,,j,22,B,B,30,1,Correct!,1.8509174999780953,1425.8783106999472,None,1425.8783106999472,None,1427.7464099000208,None,,,,,120,001,2023-10-10_15h28.38.212,uncolored_sorted,2021.2.3,59.95063663283657,
C:\Users\subject\Desktop\SVRT Experiments\SVRT Experiment 3\svrt_images\generated_images\results_problem_22,C:\Users\subject\Desktop\SVRT Experiments\SVRT Experiment 3\svrt_images\generated_images\results_problem_14\sample_1_0012.png,,,C:\Users\subject\Desktop\SVRT Experiments\SVRT Experiment 3\svrt_images\generated_images\results_problem_22\sample_1_0000.png,,,,,,,,,,,,,,,,,,,,0,3,3,3,0,17,17,17,,,,,,,,,,,,,,f,22,A,A,30,1,Correct!,1.4079635000089183,1428.897272799979,None,1428.897272799979,None,1430.3483231000137,None,,,,,120,001,2023-10-10_15h28.38.212,uncolored_sorted,2021.2.3,59.95063663283657,
C:\Users\subject\Desktop\SVRT Experiments\SVRT Experiment 3\svrt_images\generated_images\results_problem_22,C:\Users\subject\Desktop\SVRT Experiments\SVRT Experiment 3\svrt_images\generated_images\results_problem_14\sample_1_0012.png,,,C:\Users\subject\Desktop\SVRT Experiments\SVRT Experiment 3\svrt_images\generated_images\results_problem_22\sample_1_0012.png,,,,,,,,,,,,,,,,,,,,0,3,3,3,0,18,18,18,,,,,,,,,,,,,,f,22,A,A,30,1,Correct!,1.0772011999506503,1431.5159345000284,None,1431.5159345000284,None,1432.6333886999637,None,,,,,120,001,2023-10-10_15h28.38.212,uncolored_sorted,2021.2.3,59.95063663283657,
C:\Users\subject\Desktop\SVRT Experiments\SVRT Experiment 3\svrt_images\generated_images\results_problem_22,C:\Users\subject\Desktop\SVRT Experiments\SVRT Experiment 3\svrt_images\generated_images\results_problem_14\sample_1_0012.png,,,C:\Users\subject\Desktop\SVRT Experiments\SVRT Experiment 3\svrt_images\generated_images\results_problem_22\sample_0_0004.png,,,,,,,,,,,,,,,,,,,,0,3,3,3,0,19,19,19,,,,,,,,,,,,,,j,22,B,B,30,1,Correct!,1.4074542000889778,1433.8176314999582,None,1433.8176314999582,None,1435.268700900022,None,,,,,120,001,2023-10-10_15h28.38.212,uncolored_sorted,2021.2.3,59.95063663283657,
C:\Users\subject\Desktop\SVRT Experiments\SVRT Experiment 3\svrt_images\generated_images\results_problem_22,C:\Users\subject\Desktop\SVRT Experiments\SVRT Experiment 3\svrt_images\generated_images\results_problem_14\sample_1_0012.png,,,C:\Users\subject\Desktop\SVRT Experiments\SVRT Experiment 3\svrt_images\generated_images\results_problem_22\sample_1_0001.png,,,,,,,,,,,,,,,,,,,,0,3,3,3,0,20,20,20,,,,,,,,,,,,,,f,22,A,A,30,1,Correct!,1.1081538998987526,1436.4529492000584,None,1436.4529492000584,None,1437.6038343999535,None,,,,,120,001,2023-10-10_15h28.38.212,uncolored_sorted,2021.2.3,59.95063663283657,
C:\Users\subject\Desktop\SVRT Experiments\SVRT Experiment 3\svrt_images\generated_images\results_problem_22,C:\Users\subject\Desktop\SVRT Experiments\SVRT Experiment 3\svrt_images\generated_images\results_problem_14\sample_1_0012.png,,,C:\Users\subject\Desktop\SVRT Experiments\SVRT Experiment 3\svrt_images\generated_images\results_problem_22\sample_0_0006.png,,,,,,,,,,,,,,,,,,,,0,3,3,3,0,21,21,21,,,,,,,,,,,,,,,,,,,,,,,,,,,,1438.6045904000057,1438.6045904000057,space,1.5244944000151008,120,001,2023-10-10_15h28.38.212,uncolored_sorted,2021.2.3,59.95063663283657,
C:\Users\subject\Desktop\SVRT Experiments\SVRT Experiment 3\svrt_images\generated_images\results_problem_5,C:\Users\subject\Desktop\SVRT Experiments\SVRT Experiment 3\svrt_images\generated_images\results_problem_14\sample_1_0012.png,,,C:\Users\subject\Desktop\SVRT Experiments\SVRT Experiment 3\svrt_images\generated_images\results_problem_22\sample_0_0006.png,C:\Users\subject\Desktop\SVRT Experiments\SVRT Experiment 3\svrt_images\generated_images\results_problem_5\sample_1_0006.png,,,,,,,,,,,,,,,,,,,0,4,4,4,0,0,0,0,,,,,,,,,,,,,,j,5,B,A,30,0,Incorrect!,1.9886331999441609,1440.1724415000062,None,1440.1724415000062,None,1442.1906060000183,None,,,,,120,001,2023-10-10_15h28.38.212,uncolored_sorted,2021.2.3,59.95063663283657,
C:\Users\subject\Desktop\SVRT Experiments\SVRT Experiment 3\svrt_images\generated_images\results_problem_5,C:\Users\subject\Desktop\SVRT Experiments\SVRT Experiment 3\svrt_images\generated_images\results_problem_14\sample_1_0012.png,,,C:\Users\subject\Desktop\SVRT Experiments\SVRT Experiment 3\svrt_images\generated_images\results_problem_22\sample_0_0006.png,C:\Users\subject\Desktop\SVRT Experiments\SVRT Experiment 3\svrt_images\generated_images\results_problem_5\sample_0_0014.png,,,,,,,,,,,,,,,,,,,0,4,4,4,0,1,1,1,,,,,,,,,,,,,,j,5,B,B,30,1,Correct!,1.1617870000191033,1443.1913865000242,None,1443.1913865000242,None,1444.3756038000574,None,,,,,120,001,2023-10-10_15h28.38.212,uncolored_sorted,2021.2.3,59.95063663283657,
C:\Users\subject\Desktop\SVRT Experiments\SVRT Experiment 3\svrt_images\generated_images\results_problem_5,C:\Users\subject\Desktop\SVRT Experiments\SVRT Experiment 3\svrt_images\generated_images\results_problem_14\sample_1_0012.png,,,C:\Users\subject\Desktop\SVRT Experiments\SVRT Experiment 3\svrt_images\generated_images\results_problem_22\sample_0_0006.png,C:\Users\subject\Desktop\SVRT Experiments\SVRT Experiment 3\svrt_images\generated_images\results_problem_5\sample_1_0015.png,,,,,,,,,,,,,,,,,,,0,4,4,4,0,2,2,2,,,,,,,,,,,,,,j,5,B,A,30,0,Incorrect!,5.399988799938001,1445.3930061999708,None,1445.3930061999708,None,1450.8137981999898,None,,,,,120,001,2023-10-10_15h28.38.212,uncolored_sorted,2021.2.3,59.95063663283657,
C:\Users\subject\Desktop\SVRT Experiments\SVRT Experiment 3\svrt_images\generated_images\results_problem_5,C:\Users\subject\Desktop\SVRT Experiments\SVRT Experiment 3\svrt_images\generated_images\results_problem_14\sample_1_0012.png,,,C:\Users\subject\Desktop\SVRT Experiments\SVRT Experiment 3\svrt_images\generated_images\results_problem_22\sample_0_0006.png,C:\Users\subject\Desktop\SVRT Experiments\SVRT Experiment 3\svrt_images\generated_images\results_problem_5\sample_0_0012.png,,,,,,,,,,,,,,,,,,,0,4,4,4,0,3,3,3,,,,,,,,,,,,,,j,5,B,B,30,1,Correct!,1.9211352999554947,1451.8479929999448,None,1451.8479929999448,None,1453.7993818999967,None,,,,,120,001,2023-10-10_15h28.38.212,uncolored_sorted,2021.2.3,59.95063663283657,
C:\Users\subject\Desktop\SVRT Experiments\SVRT Experiment 3\svrt_images\generated_images\results_problem_5,C:\Users\subject\Desktop\SVRT Experiments\SVRT Experiment 3\svrt_images\generated_images\results_problem_14\sample_1_0012.png,,,C:\Users\subject\Desktop\SVRT Experiments\SVRT Experiment 3\svrt_images\generated_images\results_problem_22\sample_0_0006.png,C:\Users\subject\Desktop\SVRT Experiments\SVRT Experiment 3\svrt_images\generated_images\results_problem_5\sample_1_0016.png,,,,,,,,,,,,,,,,,,,0,4,4,4,0,4,4,4,,,,,,,,,,,,,,f,5,A,A,30,1,Correct!,1.567665999988094,1454.833506199997,None,1454.833506199997,None,1456.418029100052,None,,,,,120,001,2023-10-10_15h28.38.212,uncolored_sorted,2021.2.3,59.95063663283657,
C:\Users\subject\Desktop\SVRT Experiments\SVRT Experiment 3\svrt_images\generated_images\results_problem_5,C:\Users\subject\Desktop\SVRT Experiments\SVRT Experiment 3\svrt_images\generated_images\results_problem_14\sample_1_0012.png,,,C:\Users\subject\Desktop\SVRT Experiments\SVRT Experiment 3\svrt_images\generated_images\results_problem_22\sample_0_0006.png,C:\Users\subject\Desktop\SVRT Experiments\SVRT Experiment 3\svrt_images\generated_images\results_problem_5\sample_1_0008.png,,,,,,,,,,,,,,,,,,,0,4,4,4,0,5,5,5,,,,,,,,,,,,,,j,5,B,A,30,0,Incorrect!,0.5728193999966606,1457.4521727999672,None,1457.4521727999672,None,1458.0525634000078,None,,,,,120,001,2023-10-10_15h28.38.212,uncolored_sorted,2021.2.3,59.95063663283657,
C:\Users\subject\Desktop\SVRT Experiments\SVRT Experiment 3\svrt_images\generated_images\results_problem_5,C:\Users\subject\Desktop\SVRT Experiments\SVRT Experiment 3\svrt_images\generated_images\results_problem_14\sample_1_0012.png,,,C:\Users\subject\Desktop\SVRT Experiments\SVRT Experiment 3\svrt_images\generated_images\results_problem_22\sample_0_0006.png,C:\Users\subject\Desktop\SVRT Experiments\SVRT Experiment 3\svrt_images\generated_images\results_problem_5\sample_1_0002.png,,,,,,,,,,,,,,,,,,,0,4,4,4,0,6,6,6,,,,,,,,,,,,,,f,5,A,A,30,1,Correct!,3.577549000037834,1459.1033913999563,None,1459.1033913999563,None,1462.7061001999537,None,,,,,120,001,2023-10-10_15h28.38.212,uncolored_sorted,2021.2.3,59.95063663283657,
C:\Users\subject\Desktop\SVRT Experiments\SVRT Experiment 3\svrt_images\generated_images\results_problem_5,C:\Users\subject\Desktop\SVRT Experiments\SVRT Experiment 3\svrt_images\generated_images\results_problem_14\sample_1_0012.png,,,C:\Users\subject\Desktop\SVRT Experiments\SVRT Experiment 3\svrt_images\generated_images\results_problem_22\sample_0_0006.png,C:\Users\subject\Desktop\SVRT Experiments\SVRT Experiment 3\svrt_images\generated_images\results_problem_5\sample_1_0003.png,,,,,,,,,,,,,,,,,,,0,4,4,4,0,7,7,7,,,,,,,,,,,,,,f,5,A,A,30,1,Correct!,12.298724299995229,1463.7741036999505,None,1463.7741036999505,None,1476.0995512000518,None,,,,,120,001,2023-10-10_15h28.38.212,uncolored_sorted,2021.2.3,59.95063663283657,
C:\Users\subject\Desktop\SVRT Experiments\SVRT Experiment 3\svrt_images\generated_images\results_problem_5,C:\Users\subject\Desktop\SVRT Experiments\SVRT Experiment 3\svrt_images\generated_images\results_problem_14\sample_1_0012.png,,,C:\Users\subject\Desktop\SVRT Experiments\SVRT Experiment 3\svrt_images\generated_images\results_problem_22\sample_0_0006.png,C:\Users\subject\Desktop\SVRT Experiments\SVRT Experiment 3\svrt_images\generated_images\results_problem_5\sample_0_0006.png,,,,,,,,,,,,,,,,,,,0,4,4,4,0,8,8,8,,,,,,,,,,,,,,j,5,B,B,30,1,Correct!,0.9298179000616074,1477.1670042000478,None,1477.1670042000478,None,1478.1177254000213,None,,,,,120,001,2023-10-10_15h28.38.212,uncolored_sorted,2021.2.3,59.95063663283657,
C:\Users\subject\Desktop\SVRT Experiments\SVRT Experiment 3\svrt_images\generated_images\results_problem_5,C:\Users\subject\Desktop\SVRT Experiments\SVRT Experiment 3\svrt_images\generated_images\results_problem_14\sample_1_0012.png,,,C:\Users\subject\Desktop\SVRT Experiments\SVRT Experiment 3\svrt_images\generated_images\results_problem_22\sample_0_0006.png,C:\Users\subject\Desktop\SVRT Experiments\SVRT Experiment 3\svrt_images\generated_images\results_problem_5\sample_0_0011.png,,,,,,,,,,,,,,,,,,,0,4,4,4,0,9,9,9,,,,,,,,,,,,,,j,5,B,B,30,1,Correct!,0.7116414000047371,1479.1851817000424,None,1479.1851817000424,None,1479.9190622000024,None,,,,,120,001,2023-10-10_15h28.38.212,uncolored_sorted,2021.2.3,59.95063663283657,
C:\Users\subject\Desktop\SVRT Experiments\SVRT Experiment 3\svrt_images\generated_images\results_problem_5,C:\Users\subject\Desktop\SVRT Experiments\SVRT Experiment 3\svrt_images\generated_images\results_problem_14\sample_1_0012.png,,,C:\Users\subject\Desktop\SVRT Experiments\SVRT Experiment 3\svrt_images\generated_images\results_problem_22\sample_0_0006.png,C:\Users\subject\Desktop\SVRT Experiments\SVRT Experiment 3\svrt_images\generated_images\results_problem_5\sample_1_0014.png,,,,,,,,,,,,,,,,,,,0,4,4,4,0,10,10,10,,,,,,,,,,,,,,f,5,A,A,30,1,Correct!,7.477491699974053,1481.0032367999665,None,1481.0032367999665,None,1488.5088996000122,None,,,,,120,001,2023-10-10_15h28.38.212,uncolored_sorted,2021.2.3,59.95063663283657,
C:\Users\subject\Desktop\SVRT Experiments\SVRT Experiment 3\svrt_images\generated_images\results_problem_5,C:\Users\subject\Desktop\SVRT Experiments\SVRT Experiment 3\svrt_images\generated_images\results_problem_14\sample_1_0012.png,,,C:\Users\subject\Desktop\SVRT Experiments\SVRT Experiment 3\svrt_images\generated_images\results_problem_22\sample_0_0006.png,C:\Users\subject\Desktop\SVRT Experiments\SVRT Experiment 3\svrt_images\generated_images\results_problem_5\sample_1_0001.png,,,,,,,,,,,,,,,,,,,0,4,4,4,0,11,11,11,,,,,,,,,,,,,,j,5,B,A,30,0,Incorrect!,0.8396797000896186,1489.5930544000585,None,1489.5930544000585,None,1490.460329500027,None,,,,,120,001,2023-10-10_15h28.38.212,uncolored_sorted,2021.2.3,59.95063663283657,
C:\Users\subject\Desktop\SVRT Experiments\SVRT Experiment 3\svrt_images\generated_images\results_problem_5,C:\Users\subject\Desktop\SVRT Experiments\SVRT Experiment 3\svrt_images\generated_images\results_problem_14\sample_1_0012.png,,,C:\Users\subject\Desktop\SVRT Experiments\SVRT Experiment 3\svrt_images\generated_images\results_problem_22\sample_0_0006.png,C:\Users\subject\Desktop\SVRT Experiments\SVRT Experiment 3\svrt_images\generated_images\results_problem_5\sample_0_0002.png,,,,,,,,,,,,,,,,,,,0,4,4,4,0,12,12,12,,,,,,,,,,,,,,j,5,B,B,30,1,Correct!,0.9828463000012562,1491.5778901999583,None,1491.5778901999583,None,1492.5786297000013,None,,,,,120,001,2023-10-10_15h28.38.212,uncolored_sorted,2021.2.3,59.95063663283657,
C:\Users\subject\Desktop\SVRT Experiments\SVRT Experiment 3\svrt_images\generated_images\results_problem_5,C:\Users\subject\Desktop\SVRT Experiments\SVRT Experiment 3\svrt_images\generated_images\results_problem_14\sample_1_0012.png,,,C:\Users\subject\Desktop\SVRT Experiments\SVRT Experiment 3\svrt_images\generated_images\results_problem_22\sample_0_0006.png,C:\Users\subject\Desktop\SVRT Experiments\SVRT Experiment 3\svrt_images\generated_images\results_problem_5\sample_1_0011.png,,,,,,,,,,,,,,,,,,,0,4,4,4,0,13,13,13,,,,,,,,,,,,,,f,5,A,A,30,1,Correct!,1.0325702000409365,1493.6961497999728,None,1493.6961497999728,None,1494.746943200007,None,,,,,120,001,2023-10-10_15h28.38.212,uncolored_sorted,2021.2.3,59.95063663283657,
C:\Users\subject\Desktop\SVRT Experiments\SVRT Experiment 3\svrt_images\generated_images\results_problem_5,C:\Users\subject\Desktop\SVRT Experiments\SVRT Experiment 3\svrt_images\generated_images\results_problem_14\sample_1_0012.png,,,C:\Users\subject\Desktop\SVRT Experiments\SVRT Experiment 3\svrt_images\generated_images\results_problem_22\sample_0_0006.png,C:\Users\subject\Desktop\SVRT Experiments\SVRT Experiment 3\svrt_images\generated_images\results_problem_5\sample_0_0005.png,,,,,,,,,,,,,,,,,,,0,4,4,4,0,14,14,14,,,,,,,,,,,,,,j,5,B,B,30,1,Correct!,0.7596778000006452,1495.8811295999913,None,1495.8811295999913,None,1496.6650508999592,None,,,,,120,001,2023-10-10_15h28.38.212,uncolored_sorted,2021.2.3,59.95063663283657,
C:\Users\subject\Desktop\SVRT Experiments\SVRT Experiment 3\svrt_images\generated_images\results_problem_5,C:\Users\subject\Desktop\SVRT Experiments\SVRT Experiment 3\svrt_images\generated_images\results_problem_14\sample_1_0012.png,,,C:\Users\subject\Desktop\SVRT Experiments\SVRT Experiment 3\svrt_images\generated_images\results_problem_22\sample_0_0006.png,C:\Users\subject\Desktop\SVRT Experiments\SVRT Experiment 3\svrt_images\generated_images\results_problem_5\sample_0_0013.png,,,,,,,,,,,,,,,,,,,0,4,4,4,0,15,15,15,,,,,,,,,,,,,,j,5,B,B,30,1,Correct!,1.2575319999596104,1497.7992077999515,None,1497.7992077999515,None,1499.0834968000418,None,,,,,120,001,2023-10-10_15h28.38.212,uncolored_sorted,2021.2.3,59.95063663283657,
C:\Users\subject\Desktop\SVRT Experiments\SVRT Experiment 3\svrt_images\generated_images\results_problem_5,C:\Users\subject\Desktop\SVRT Experiments\SVRT Experiment 3\svrt_images\generated_images\results_problem_14\sample_1_0012.png,,,C:\Users\subject\Desktop\SVRT Experiments\SVRT Experiment 3\svrt_images\generated_images\results_problem_22\sample_0_0006.png,C:\Users\subject\Desktop\SVRT Experiments\SVRT Experiment 3\svrt_images\generated_images\results_problem_5\sample_0_0007.png,,,,,,,,,,,,,,,,,,,0,4,4,4,0,16,16,16,,,,,,,,,,,,,,f,5,A,B,30,0,Incorrect!,2.7350400999421254,1500.2177293000277,None,1500.2177293000277,None,1502.969804399996,None,,,,,120,001,2023-10-10_15h28.38.212,uncolored_sorted,2021.2.3,59.95063663283657,
C:\Users\subject\Desktop\SVRT Experiments\SVRT Experiment 3\svrt_images\generated_images\results_problem_5,C:\Users\subject\Desktop\SVRT Experiments\SVRT Experiment 3\svrt_images\generated_images\results_problem_14\sample_1_0012.png,,,C:\Users\subject\Desktop\SVRT Experiments\SVRT Experiment 3\svrt_images\generated_images\results_problem_22\sample_0_0006.png,C:\Users\subject\Desktop\SVRT Experiments\SVRT Experiment 3\svrt_images\generated_images\results_problem_5\sample_0_0009.png,,,,,,,,,,,,,,,,,,,0,4,4,4,0,17,17,17,,,,,,,,,,,,,,j,5,B,B,30,1,Correct!,1.5353900999762118,1504.137337799999,None,1504.137337799999,None,1505.7219747999916,None,,,,,120,001,2023-10-10_15h28.38.212,uncolored_sorted,2021.2.3,59.95063663283657,
C:\Users\subject\Desktop\SVRT Experiments\SVRT Experiment 3\svrt_images\generated_images\results_problem_5,C:\Users\subject\Desktop\SVRT Experiments\SVRT Experiment 3\svrt_images\generated_images\results_problem_14\sample_1_0012.png,,,C:\Users\subject\Desktop\SVRT Experiments\SVRT Experiment 3\svrt_images\generated_images\results_problem_22\sample_0_0006.png,C:\Users\subject\Desktop\SVRT Experiments\SVRT Experiment 3\svrt_images\generated_images\results_problem_5\sample_1_0013.png,,,,,,,,,,,,,,,,,,,0,4,4,4,0,18,18,18,,,,,,,,,,,,,,j,5,B,A,30,0,Incorrect!,0.8633187999948859,1506.8894350000191,None,1506.8894350000191,None,1507.7734267000342,None,,,,,120,001,2023-10-10_15h28.38.212,uncolored_sorted,2021.2.3,59.95063663283657,
C:\Users\subject\Desktop\SVRT Experiments\SVRT Experiment 3\svrt_images\generated_images\results_problem_5,C:\Users\subject\Desktop\SVRT Experiments\SVRT Experiment 3\svrt_images\generated_images\results_problem_14\sample_1_0012.png,,,C:\Users\subject\Desktop\SVRT Experiments\SVRT Experiment 3\svrt_images\generated_images\results_problem_22\sample_0_0006.png,C:\Users\subject\Desktop\SVRT Experiments\SVRT Experiment 3\svrt_images\generated_images\results_problem_5\sample_1_0005.png,,,,,,,,,,,,,,,,,,,0,4,4,4,0,19,19,19,,,,,,,,,,,,,,f,5,A,A,30,1,Correct!,1.0757182999514043,1508.9409805999603,None,1508.9409805999603,None,1510.0584503000136,None,,,,,120,001,2023-10-10_15h28.38.212,uncolored_sorted,2021.2.3,59.95063663283657,
C:\Users\subject\Desktop\SVRT Experiments\SVRT Experiment 3\svrt_images\generated_images\results_problem_5,C:\Users\subject\Desktop\SVRT Experiments\SVRT Experiment 3\svrt_images\generated_images\results_problem_14\sample_1_0012.png,,,C:\Users\subject\Desktop\SVRT Experiments\SVRT Experiment 3\svrt_images\generated_images\results_problem_22\sample_0_0006.png,C:\Users\subject\Desktop\SVRT Experiments\SVRT Experiment 3\svrt_images\generated_images\results_problem_5\sample_1_0012.png,,,,,,,,,,,,,,,,,,,0,4,4,4,0,20,20,20,,,,,,,,,,,,,,j,5,B,A,30,0,Incorrect!,1.0053353999974206,1511.2593656999525,None,1511.2593656999525,None,1512.3101825000485,None,,,,,120,001,2023-10-10_15h28.38.212,uncolored_sorted,2021.2.3,59.95063663283657,
C:\Users\subject\Desktop\SVRT Experiments\SVRT Experiment 3\svrt_images\generated_images\results_problem_5,C:\Users\subject\Desktop\SVRT Experiments\SVRT Experiment 3\svrt_images\generated_images\results_problem_14\sample_1_0012.png,,,C:\Users\subject\Desktop\SVRT Experiments\SVRT Experiment 3\svrt_images\generated_images\results_problem_22\sample_0_0006.png,C:\Users\subject\Desktop\SVRT Experiments\SVRT Experiment 3\svrt_images\generated_images\results_problem_5\sample_1_0004.png,,,,,,,,,,,,,,,,,,,0,4,4,4,0,21,21,21,,,,,,,,,,,,,,j,5,B,A,30,0,Incorrect!,2.041508199996315,1513.5110978999874,None,1513.5110978999874,None,1515.5959898000583,None,,,,,120,001,2023-10-10_15h28.38.212,uncolored_sorted,2021.2.3,59.95063663283657,
C:\Users\subject\Desktop\SVRT Experiments\SVRT Experiment 3\svrt_images\generated_images\results_problem_5,C:\Users\subject\Desktop\SVRT Experiments\SVRT Experiment 3\svrt_images\generated_images\results_problem_14\sample_1_0012.png,,,C:\Users\subject\Desktop\SVRT Experiments\SVRT Experiment 3\svrt_images\generated_images\results_problem_22\sample_0_0006.png,C:\Users\subject\Desktop\SVRT Experiments\SVRT Experiment 3\svrt_images\generated_images\results_problem_5\sample_0_0000.png,,,,,,,,,,,,,,,,,,,0,4,4,4,0,22,22,22,,,,,,,,,,,,,,j,5,B,B,30,1,Correct!,1.067855600034818,1516.7968742999947,None,1516.7968742999947,None,1517.9143954999745,None,,,,,120,001,2023-10-10_15h28.38.212,uncolored_sorted,2021.2.3,59.95063663283657,
C:\Users\subject\Desktop\SVRT Experiments\SVRT Experiment 3\svrt_images\generated_images\results_problem_5,C:\Users\subject\Desktop\SVRT Experiments\SVRT Experiment 3\svrt_images\generated_images\results_problem_14\sample_1_0012.png,,,C:\Users\subject\Desktop\SVRT Experiments\SVRT Experiment 3\svrt_images\generated_images\results_problem_22\sample_0_0006.png,C:\Users\subject\Desktop\SVRT Experiments\SVRT Experiment 3\svrt_images\generated_images\results_problem_5\sample_0_0004.png,,,,,,,,,,,,,,,,,,,0,4,4,4,0,23,23,23,,,,,,,,,,,,,,j,5,B,B,30,1,Correct!,1.2518950999947265,1519.1486484999768,None,1519.1486484999768,None,1520.4496481999522,None,,,,,120,001,2023-10-10_15h28.38.212,uncolored_sorted,2021.2.3,59.95063663283657,
C:\Users\subject\Desktop\SVRT Experiments\SVRT Experiment 3\svrt_images\generated_images\results_problem_5,C:\Users\subject\Desktop\SVRT Experiments\SVRT Experiment 3\svrt_images\generated_images\results_problem_14\sample_1_0012.png,,,C:\Users\subject\Desktop\SVRT Experiments\SVRT Experiment 3\svrt_images\generated_images\results_problem_22\sample_0_0006.png,C:\Users\subject\Desktop\SVRT Experiments\SVRT Experiment 3\svrt_images\generated_images\results_problem_5\sample_1_0010.png,,,,,,,,,,,,,,,,,,,0,4,4,4,0,24,24,24,,,,,,,,,,,,,,f,5,A,A,30,1,Correct!,2.324548100004904,1521.6840044000419,None,1521.6840044000419,None,1524.0523748999694,None,,,,,120,001,2023-10-10_15h28.38.212,uncolored_sorted,2021.2.3,59.95063663283657,
C:\Users\subject\Desktop\SVRT Experiments\SVRT Experiment 3\svrt_images\generated_images\results_problem_5,C:\Users\subject\Desktop\SVRT Experiments\SVRT Experiment 3\svrt_images\generated_images\results_problem_14\sample_1_0012.png,,,C:\Users\subject\Desktop\SVRT Experiments\SVRT Experiment 3\svrt_images\generated_images\results_problem_22\sample_0_0006.png,C:\Users\subject\Desktop\SVRT Experiments\SVRT Experiment 3\svrt_images\generated_images\results_problem_5\sample_0_0003.png,,,,,,,,,,,,,,,,,,,0,4,4,4,0,25,25,25,,,,,,,,,,,,,,j,5,B,B,30,1,Correct!,0.7611752999946475,1525.3033223999664,None,1525.3033223999664,None,1526.1039204000263,None,,,,,120,001,2023-10-10_15h28.38.212,uncolored_sorted,2021.2.3,59.95063663283657,
C:\Users\subject\Desktop\SVRT Experiments\SVRT Experiment 3\svrt_images\generated_images\results_problem_5,C:\Users\subject\Desktop\SVRT Experiments\SVRT Experiment 3\svrt_images\generated_images\results_problem_14\sample_1_0012.png,,,C:\Users\subject\Desktop\SVRT Experiments\SVRT Experiment 3\svrt_images\generated_images\results_problem_22\sample_0_0006.png,C:\Users\subject\Desktop\SVRT Experiments\SVRT Experiment 3\svrt_images\generated_images\results_problem_5\sample_0_0015.png,,,,,,,,,,,,,,,,,,,0,4,4,4,0,26,26,26,,,,,,,,,,,,,,j,5,B,B,30,1,Correct!,3.253567500039935,1527.3548699000385,None,1527.3548699000385,None,1530.674005500041,None,,,,,120,001,2023-10-10_15h28.38.212,uncolored_sorted,2021.2.3,59.95063663283657,
C:\Users\subject\Desktop\SVRT Experiments\SVRT Experiment 3\svrt_images\generated_images\results_problem_5,C:\Users\subject\Desktop\SVRT Experiments\SVRT Experiment 3\svrt_images\generated_images\results_problem_14\sample_1_0012.png,,,C:\Users\subject\Desktop\SVRT Experiments\SVRT Experiment 3\svrt_images\generated_images\results_problem_22\sample_0_0006.png,C:\Users\subject\Desktop\SVRT Experiments\SVRT Experiment 3\svrt_images\generated_images\results_problem_5\sample_1_0000.png,,,,,,,,,,,,,,,,,,,0,4,4,4,0,27,27,27,,,,,,,,,,,,,,f,5,A,A,30,1,Correct!,0.9455565001117066,1531.9750055000186,None,1531.9750055000186,None,1532.9590938000474,None,,,,,120,001,2023-10-10_15h28.38.212,uncolored_sorted,2021.2.3,59.95063663283657,
C:\Users\subject\Desktop\SVRT Experiments\SVRT Experiment 3\svrt_images\generated_images\results_problem_5,C:\Users\subject\Desktop\SVRT Experiments\SVRT Experiment 3\svrt_images\generated_images\results_problem_14\sample_1_0012.png,,,C:\Users\subject\Desktop\SVRT Experiments\SVRT Experiment 3\svrt_images\generated_images\results_problem_22\sample_0_0006.png,C:\Users\subject\Desktop\SVRT Experiments\SVRT Experiment 3\svrt_images\generated_images\results_problem_5\sample_1_0009.png,,,,,,,,,,,,,,,,,,,0,4,4,4,0,28,28,28,,,,,,,,,,,,,,f,5,A,A,30,1,Correct!,0.9090970000252128,1534.2433596999617,None,1534.2433596999617,None,1535.1941014999757,None,,,,,120,001,2023-10-10_15h28.38.212,uncolored_sorted,2021.2.3,59.95063663283657,
C:\Users\subject\Desktop\SVRT Experiments\SVRT Experiment 3\svrt_images\generated_images\results_problem_5,C:\Users\subject\Desktop\SVRT Experiments\SVRT Experiment 3\svrt_images\generated_images\results_problem_14\sample_1_0012.png,,,C:\Users\subject\Desktop\SVRT Experiments\SVRT Experiment 3\svrt_images\generated_images\results_problem_22\sample_0_0006.png,C:\Users\subject\Desktop\SVRT Experiments\SVRT Experiment 3\svrt_images\generated_images\results_problem_5\sample_0_0001.png,,,,,,,,,,,,,,,,,,,0,4,4,4,0,29,29,29,,,,,,,,,,,,,,,,,,,,,,,,,,,,1536.194926199969,1536.194926199969,space,1.8535057000117376,120,001,2023-10-10_15h28.38.212,uncolored_sorted,2021.2.3,59.95063663283657,
C:\Users\subject\Desktop\SVRT Experiments\SVRT Experiment 3\svrt_images\generated_images\results_problem_12,C:\Users\subject\Desktop\SVRT Experiments\SVRT Experiment 3\svrt_images\generated_images\results_problem_14\sample_1_0012.png,,,C:\Users\subject\Desktop\SVRT Experiments\SVRT Experiment 3\svrt_images\generated_images\results_problem_22\sample_0_0006.png,C:\Users\subject\Desktop\SVRT Experiments\SVRT Experiment 3\svrt_images\generated_images\results_problem_5\sample_0_0001.png,C:\Users\subject\Desktop\SVRT Experiments\SVRT Experiment 3\svrt_images\generated_images\results_problem_12\sample_1_0016.png,,,,,,,,,,,,,,,,,,0,5,5,5,0,0,0,0,,,,,,,,,,,,,,f,12,A,A,30,1,Correct!,2.3921363999834284,1538.0962604000233,None,1538.0962604000233,None,1540.514789500041,None,,,,,120,001,2023-10-10_15h28.38.212,uncolored_sorted,2021.2.3,59.95063663283657,
C:\Users\subject\Desktop\SVRT Experiments\SVRT Experiment 3\svrt_images\generated_images\results_problem_12,C:\Users\subject\Desktop\SVRT Experiments\SVRT Experiment 3\svrt_images\generated_images\results_problem_14\sample_1_0012.png,,,C:\Users\subject\Desktop\SVRT Experiments\SVRT Experiment 3\svrt_images\generated_images\results_problem_22\sample_0_0006.png,C:\Users\subject\Desktop\SVRT Experiments\SVRT Experiment 3\svrt_images\generated_images\results_problem_5\sample_0_0001.png,C:\Users\subject\Desktop\SVRT Experiments\SVRT Experiment 3\svrt_images\generated_images\results_problem_12\sample_0_0010.png,,,,,,,,,,,,,,,,,,0,5,5,5,0,1,1,1,,,,,,,,,,,,,,j,12,B,B,30,1,Correct!,0.956821900093928,1541.515501099988,None,1541.515501099988,None,1542.4996105999453,None,,,,,120,001,2023-10-10_15h28.38.212,uncolored_sorted,2021.2.3,59.95063663283657,
C:\Users\subject\Desktop\SVRT Experiments\SVRT Experiment 3\svrt_images\generated_images\results_problem_12,C:\Users\subject\Desktop\SVRT Experiments\SVRT Experiment 3\svrt_images\generated_images\results_problem_14\sample_1_0012.png,,,C:\Users\subject\Desktop\SVRT Experiments\SVRT Experiment 3\svrt_images\generated_images\results_problem_22\sample_0_0006.png,C:\Users\subject\Desktop\SVRT Experiments\SVRT Experiment 3\svrt_images\generated_images\results_problem_5\sample_0_0001.png,C:\Users\subject\Desktop\SVRT Experiments\SVRT Experiment 3\svrt_images\generated_images\results_problem_12\sample_0_0002.png,,,,,,,,,,,,,,,,,,0,5,5,5,0,2,2,2,,,,,,,,,,,,,,j,12,B,B,30,1,Correct!,6.4272497000638396,1543.517057799967,None,1543.517057799967,None,1549.9719170000171,None,,,,,120,001,2023-10-10_15h28.38.212,uncolored_sorted,2021.2.3,59.95063663283657,
C:\Users\subject\Desktop\SVRT Experiments\SVRT Experiment 3\svrt_images\generated_images\results_problem_12,C:\Users\subject\Desktop\SVRT Experiments\SVRT Experiment 3\svrt_images\generated_images\results_problem_14\sample_1_0012.png,,,C:\Users\subject\Desktop\SVRT Experiments\SVRT Experiment 3\svrt_images\generated_images\results_problem_22\sample_0_0006.png,C:\Users\subject\Desktop\SVRT Experiments\SVRT Experiment 3\svrt_images\generated_images\results_problem_5\sample_0_0001.png,C:\Users\subject\Desktop\SVRT Experiments\SVRT Experiment 3\svrt_images\generated_images\results_problem_12\sample_1_0014.png,,,,,,,,,,,,,,,,,,0,5,5,5,0,3,3,3,,,,,,,,,,,,,,f,12,A,A,30,1,Correct!,1.2909247999778017,1550.989359500003,None,1550.989359500003,None,1552.3070090999827,None,,,,,120,001,2023-10-10_15h28.38.212,uncolored_sorted,2021.2.3,59.95063663283657,
C:\Users\subject\Desktop\SVRT Experiments\SVRT Experiment 3\svrt_images\generated_images\results_problem_12,C:\Users\subject\Desktop\SVRT Experiments\SVRT Experiment 3\svrt_images\generated_images\results_problem_14\sample_1_0012.png,,,C:\Users\subject\Desktop\SVRT Experiments\SVRT Experiment 3\svrt_images\generated_images\results_problem_22\sample_0_0006.png,C:\Users\subject\Desktop\SVRT Experiments\SVRT Experiment 3\svrt_images\generated_images\results_problem_5\sample_0_0001.png,C:\Users\subject\Desktop\SVRT Experiments\SVRT Experiment 3\svrt_images\generated_images\results_problem_12\sample_0_0003.png,,,,,,,,,,,,,,,,,,0,5,5,5,0,4,4,4,,,,,,,,,,,,,,j,12,B,B,30,1,Correct!,2.795193500001915,1553.34109370003,None,1553.34109370003,None,1556.1598910000175,None,,,,,120,001,2023-10-10_15h28.38.212,uncolored_sorted,2021.2.3,59.95063663283657,
C:\Users\subject\Desktop\SVRT Experiments\SVRT Experiment 3\svrt_images\generated_images\results_problem_12,C:\Users\subject\Desktop\SVRT Experiments\SVRT Experiment 3\svrt_images\generated_images\results_problem_14\sample_1_0012.png,,,C:\Users\subject\Desktop\SVRT Experiments\SVRT Experiment 3\svrt_images\generated_images\results_problem_22\sample_0_0006.png,C:\Users\subject\Desktop\SVRT Experiments\SVRT Experiment 3\svrt_images\generated_images\results_problem_5\sample_0_0001.png,C:\Users\subject\Desktop\SVRT Experiments\SVRT Experiment 3\svrt_images\generated_images\results_problem_12\sample_0_0013.png,,,,,,,,,,,,,,,,,,0,5,5,5,0,5,5,5,,,,,,,,,,,,,,j,12,B,B,30,1,Correct!,0.9502346999943256,1557.1940012000268,None,1557.1940012000268,None,1558.1613928000443,None,,,,,120,001,2023-10-10_15h28.38.212,uncolored_sorted,2021.2.3,59.95063663283657,
C:\Users\subject\Desktop\SVRT Experiments\SVRT Experiment 3\svrt_images\generated_images\results_problem_12,C:\Users\subject\Desktop\SVRT Experiments\SVRT Experiment 3\svrt_images\generated_images\results_problem_14\sample_1_0012.png,,,C:\Users\subject\Desktop\SVRT Experiments\SVRT Experiment 3\svrt_images\generated_images\results_problem_22\sample_0_0006.png,C:\Users\subject\Desktop\SVRT Experiments\SVRT Experiment 3\svrt_images\generated_images\results_problem_5\sample_0_0001.png,C:\Users\subject\Desktop\SVRT Experiments\SVRT Experiment 3\svrt_images\generated_images\results_problem_12\sample_1_0005.png,,,,,,,,,,,,,,,,,,0,5,5,5,0,6,6,6,,,,,,,,,,,,,,f,12,A,A,30,1,Correct!,0.5080847999779508,1559.21222830005,None,1559.21222830005,None,1559.7459568999475,None,,,,,120,001,2023-10-10_15h28.38.212,uncolored_sorted,2021.2.3,59.95063663283657,
C:\Users\subject\Desktop\SVRT Experiments\SVRT Experiment 3\svrt_images\generated_images\results_problem_12,C:\Users\subject\Desktop\SVRT Experiments\SVRT Experiment 3\svrt_images\generated_images\results_problem_14\sample_1_0012.png,,,C:\Users\subject\Desktop\SVRT Experiments\SVRT Experiment 3\svrt_images\generated_images\results_problem_22\sample_0_0006.png,C:\Users\subject\Desktop\SVRT Experiments\SVRT Experiment 3\svrt_images\generated_images\results_problem_5\sample_0_0001.png,C:\Users\subject\Desktop\SVRT Experiments\SVRT Experiment 3\svrt_images\generated_images\results_problem_12\sample_0_0008.png,,,,,,,,,,,,,,,,,,0,5,5,5,0,7,7,7,,,,,,,,,,,,,,,,,,,,,,,,,,,,1560.7467418999877,1560.7467418999877,space,2.397522500017658,120,001,2023-10-10_15h28.38.212,uncolored_sorted,2021.2.3,59.95063663283657,
C:\Users\subject\Desktop\SVRT Experiments\SVRT Experiment 3\svrt_images\generated_images\results_problem_9,C:\Users\subject\Desktop\SVRT Experiments\SVRT Experiment 3\svrt_images\generated_images\results_problem_14\sample_1_0012.png,,,C:\Users\subject\Desktop\SVRT Experiments\SVRT Experiment 3\svrt_images\generated_images\results_problem_22\sample_0_0006.png,C:\Users\subject\Desktop\SVRT Experiments\SVRT Experiment 3\svrt_images\generated_images\results_problem_5\sample_0_0001.png,C:\Users\subject\Desktop\SVRT Experiments\SVRT Experiment 3\svrt_images\generated_images\results_problem_12\sample_0_0008.png,C:\Users\subject\Desktop\SVRT Experiments\SVRT Experiment 3\svrt_images\generated_images\results_problem_9\sample_1_0016.png,,,,,,,,,,,,,,,,,0,6,6,6,0,0,0,0,,,,,,,,,,,,,,f,9,A,A,30,1,Correct!,2.346450399956666,1563.1818894000025,None,1563.1818894000025,None,1565.5503378000576,None,,,,,120,001,2023-10-10_15h28.38.212,uncolored_sorted,2021.2.3,59.95063663283657,
C:\Users\subject\Desktop\SVRT Experiments\SVRT Experiment 3\svrt_images\generated_images\results_problem_9,C:\Users\subject\Desktop\SVRT Experiments\SVRT Experiment 3\svrt_images\generated_images\results_problem_14\sample_1_0012.png,,,C:\Users\subject\Desktop\SVRT Experiments\SVRT Experiment 3\svrt_images\generated_images\results_problem_22\sample_0_0006.png,C:\Users\subject\Desktop\SVRT Experiments\SVRT Experiment 3\svrt_images\generated_images\results_problem_5\sample_0_0001.png,C:\Users\subject\Desktop\SVRT Experiments\SVRT Experiment 3\svrt_images\generated_images\results_problem_12\sample_0_0008.png,C:\Users\subject\Desktop\SVRT Experiments\SVRT Experiment 3\svrt_images\generated_images\results_problem_9\sample_1_0014.png,,,,,,,,,,,,,,,,,0,6,6,6,0,1,1,1,,,,,,,,,,,,,,j,9,B,A,30,0,Incorrect!,2.257066300022416,1566.5511012000497,None,1566.5511012000497,None,1568.836144699948,None,,,,,120,001,2023-10-10_15h28.38.212,uncolored_sorted,2021.2.3,59.95063663283657,
C:\Users\subject\Desktop\SVRT Experiments\SVRT Experiment 3\svrt_images\generated_images\results_problem_9,C:\Users\subject\Desktop\SVRT Experiments\SVRT Experiment 3\svrt_images\generated_images\results_problem_14\sample_1_0012.png,,,C:\Users\subject\Desktop\SVRT Experiments\SVRT Experiment 3\svrt_images\generated_images\results_problem_22\sample_0_0006.png,C:\Users\subject\Desktop\SVRT Experiments\SVRT Experiment 3\svrt_images\generated_images\results_problem_5\sample_0_0001.png,C:\Users\subject\Desktop\SVRT Experiments\SVRT Experiment 3\svrt_images\generated_images\results_problem_12\sample_0_0008.png,C:\Users\subject\Desktop\SVRT Experiments\SVRT Experiment 3\svrt_images\generated_images\results_problem_9\sample_1_0000.png,,,,,,,,,,,,,,,,,0,6,6,6,0,2,2,2,,,,,,,,,,,,,,f,9,A,A,30,1,Correct!,3.338628099998459,1569.8535901999567,None,1569.8535901999567,None,1573.223090399988,None,,,,,120,001,2023-10-10_15h28.38.212,uncolored_sorted,2021.2.3,59.95063663283657,
