folder,results_problem_9,results_problem_23,results_problem_18,results_problem_10,results_problem_4,results_problem_14,results_problem_2,results_problem_1,results_problem_13,results_problem_12,results_problem_7,results_problem_16,results_problem_6,results_problem_22,results_problem_21,results_problem_11,results_problem_17,results_problem_5,results_problem_8,results_problem_3,results_problem_15,results_problem_20,results_problem_19,categories.thisRepN,categories.thisTrialN,categories.thisN,categories.thisIndex,trials.thisRepN,trials.thisTrialN,trials.thisN,trials.thisIndex,consent_text.started,consent_kb.started,consent_kb.keys,consent_kb.rt,Gender.keys,Gender.rt,Age,instructions_text.started,instructions_text.stopped,instructions_kb.keys,instructions_kb.rt,instructions_kb.started,instructions_kb.stopped,trial_kb.keys,current_problem_num,category_resp,answer,seed,accuracy,feedback,trial_kb.rt,trial_kb.started,trial_kb.stopped,trial_image.started,trial_image.stopped,feedback_text.started,feedback_text.stopped,new_problem_kb.started,new_problem_text.started,new_problem_kb.keys,new_problem_kb.rt,Participant #,session,date,expName,psychopyVersion,frameRate,
,,,,,,,,,,,,,,,,,,,,,,,,,,,,,,,,38.56379049998941,38.56379049998941,y,358.19125969999004,,,,,,,,,,,,,,,,,,,,,,,,,,,,121,001,2023-10-10_15h28.20.248,colored_shuffled,2021.2.3,59.99329274768747,
,,,,,,,,,,,,,,,,,,,,,,,,,,,,,,,,,,,,w,13.316224100010004,,,,,,,,,,,,,,,,,,,,,,,,,,121,001,2023-10-10_15h28.20.248,colored_shuffled,2021.2.3,59.99329274768747,
,,,,,,,,,,,,,,,,,,,,,,,,,,,,,,,,,,,,,,21,415.99921360000735,None,space,28.1638889000169,415.99921360000735,None,,,,,,,,,,,,,,,,,,,121,001,2023-10-10_15h28.20.248,colored_shuffled,2021.2.3,59.99329274768747,
C:\Users\subject\Desktop\SVRT Experiments\SVRT Experiment 3\svrt_images\generated_images\results_problem_9,C:\Users\subject\Desktop\SVRT Experiments\SVRT Experiment 3\svrt_images\generated_images\results_problem_9\sample_0_0009.png,,,,,,,,,,,,,,,,,,,,,,,0,0,0,0,0,0,0,0,,,,,,,,,,,,,,j,9,B,B,31,1,Correct!,16.30905109999003,444.1819781999802,None,444.1819781999802,None,460.53176530002384,None,,,,,121,001,2023-10-10_15h28.20.248,colored_shuffled,2021.2.3,59.99329274768747,
C:\Users\subject\Desktop\SVRT Experiments\SVRT Experiment 3\svrt_images\generated_images\results_problem_9,C:\Users\subject\Desktop\SVRT Experiments\SVRT Experiment 3\svrt_images\generated_images\results_problem_9\sample_1_0011.png,,,,,,,,,,,,,,,,,,,,,,,0,0,0,0,0,1,1,1,,,,,,,,,,,,,,j,9,B,A,31,0,Incorrect!,7.886562999978196,461.5483973000082,None,461.5483973000082,None,469.46491989999777,None,,,,,121,001,2023-10-10_15h28.20.248,colored_shuffled,2021.2.3,59.99329274768747,
C:\Users\subject\Desktop\SVRT Experiments\SVRT Experiment 3\svrt_images\generated_images\results_problem_9,C:\Users\subject\Desktop\SVRT Experiments\SVRT Experiment 3\svrt_images\generated_images\results_problem_9\sample_0_0010.png,,,,,,,,,,,,,,,,,,,,,,,0,0,0,0,0,2,2,2,,,,,,,,,,,,,,f,9,A,B,31,0,Incorrect!,20.361435299972072,470.4815474000061,None,470.4815474000061,None,490.86452280002413,None,,,,,121,001,2023-10-10_15h28.20.248,colored_shuffled,2021.2.3,59.99329274768747,
C:\Users\subject\Desktop\SVRT Experiments\SVRT Experiment 3\svrt_images\generated_images\results_problem_9,C:\Users\subject\Desktop\SVRT Experiments\SVRT Experiment 3\svrt_images\generated_images\results_problem_9\sample_0_0013.png,,,,,,,,,,,,,,,,,,,,,,,0,0,0,0,0,3,3,3,,,,,,,,,,,,,,j,9,B,B,31,1,Correct!,4.841232799983118,491.89783759997226,None,491.89783759997226,None,496.7644293999765,None,,,,,121,001,2023-10-10_15h28.20.248,colored_shuffled,2021.2.3,59.99329274768747,
C:\Users\subject\Desktop\SVRT Experiments\SVRT Experiment 3\svrt_images\generated_images\results_problem_9,C:\Users\subject\Desktop\SVRT Experiments\SVRT Experiment 3\svrt_images\generated_images\results_problem_9\sample_1_0009.png,,,,,,,,,,,,,,,,,,,,,,,0,0,0,0,0,4,4,4,,,,,,,,,,,,,,f,9,A,A,31,1,Correct!,4.7486206000321545,497.8144131000154,None,497.8144131000154,None,502.58100140001625,None,,,,,121,001,2023-10-10_15h28.20.248,colored_shuffled,2021.2.3,59.99329274768747,
C:\Users\subject\Desktop\SVRT Experiments\SVRT Experiment 3\svrt_images\generated_images\results_problem_9,C:\Users\subject\Desktop\SVRT Experiments\SVRT Experiment 3\svrt_images\generated_images\results_problem_9\sample_0_0003.png,,,,,,,,,,,,,,,,,,,,,,,0,0,0,0,0,5,5,5,,,,,,,,,,,,,,j,9,B,B,31,1,Correct!,7.620057700027246,503.63092730002245,None,503.63092730002245,None,511.28085919999285,None,,,,,121,001,2023-10-10_15h28.20.248,colored_shuffled,2021.2.3,59.99329274768747,
C:\Users\subject\Desktop\SVRT Experiments\SVRT Experiment 3\svrt_images\generated_images\results_problem_9,C:\Users\subject\Desktop\SVRT Experiments\SVRT Experiment 3\svrt_images\generated_images\results_problem_9\sample_0_0014.png,,,,,,,,,,,,,,,,,,,,,,,0,0,0,0,0,6,6,6,,,,,,,,,,,,,,j,9,B,B,31,1,Correct!,2.7117828000336885,512.3474744000123,None,512.3474744000123,None,515.0808043000288,None,,,,,121,001,2023-10-10_15h28.20.248,colored_shuffled,2021.2.3,59.99329274768747,
C:\Users\subject\Desktop\SVRT Experiments\SVRT Experiment 3\svrt_images\generated_images\results_problem_9,C:\Users\subject\Desktop\SVRT Experiments\SVRT Experiment 3\svrt_images\generated_images\results_problem_9\sample_0_0005.png,,,,,,,,,,,,,,,,,,,,,,,0,0,0,0,0,7,7,7,,,,,,,,,,,,,,j,9,B,B,31,1,Correct!,1.0148933000164106,516.1640456999885,None,516.1640456999885,None,517.1974068999989,None,,,,,121,001,2023-10-10_15h28.20.248,colored_shuffled,2021.2.3,59.99329274768747,
C:\Users\subject\Desktop\SVRT Experiments\SVRT Experiment 3\svrt_images\generated_images\results_problem_9,C:\Users\subject\Desktop\SVRT Experiments\SVRT Experiment 3\svrt_images\generated_images\results_problem_9\sample_1_0007.png,,,,,,,,,,,,,,,,,,,,,,,0,0,0,0,0,8,8,8,,,,,,,,,,,,,,j,9,B,A,31,0,Incorrect!,1.1296484000049531,518.2973856999888,None,518.2973856999888,None,519.4473732999759,None,,,,,121,001,2023-10-10_15h28.20.248,colored_shuffled,2021.2.3,59.99329274768747,
C:\Users\subject\Desktop\SVRT Experiments\SVRT Experiment 3\svrt_images\generated_images\results_problem_9,C:\Users\subject\Desktop\SVRT Experiments\SVRT Experiment 3\svrt_images\generated_images\results_problem_9\sample_0_0006.png,,,,,,,,,,,,,,,,,,,,,,,0,0,0,0,0,9,9,9,,,,,,,,,,,,,,f,9,A,B,31,0,Incorrect!,2.5114942000363953,520.5473660000134,None,520.5473660000134,None,523.0806546999956,None,,,,,121,001,2023-10-10_15h28.20.248,colored_shuffled,2021.2.3,59.99329274768747,
C:\Users\subject\Desktop\SVRT Experiments\SVRT Experiment 3\svrt_images\generated_images\results_problem_9,C:\Users\subject\Desktop\SVRT Experiments\SVRT Experiment 3\svrt_images\generated_images\results_problem_9\sample_1_0000.png,,,,,,,,,,,,,,,,,,,,,,,0,0,0,0,0,10,10,10,,,,,,,,,,,,,,j,9,B,A,31,0,Incorrect!,9.39769349998096,524.1972959000268,None,524.1972959000268,None,533.6137839999865,None,,,,,121,001,2023-10-10_15h28.20.248,colored_shuffled,2021.2.3,59.99329274768747,
C:\Users\subject\Desktop\SVRT Experiments\SVRT Experiment 3\svrt_images\generated_images\results_problem_9,C:\Users\subject\Desktop\SVRT Experiments\SVRT Experiment 3\svrt_images\generated_images\results_problem_9\sample_1_0003.png,,,,,,,,,,,,,,,,,,,,,,,0,0,0,0,0,11,11,11,,,,,,,,,,,,,,f,9,A,A,31,1,Correct!,17.471940500021446,534.747065500007,None,534.747065500007,None,552.2634296999895,None,,,,,121,001,2023-10-10_15h28.20.248,colored_shuffled,2021.2.3,59.99329274768747,
C:\Users\subject\Desktop\SVRT Experiments\SVRT Experiment 3\svrt_images\generated_images\results_problem_9,C:\Users\subject\Desktop\SVRT Experiments\SVRT Experiment 3\svrt_images\generated_images\results_problem_9\sample_1_0015.png,,,,,,,,,,,,,,,,,,,,,,,0,0,0,0,0,12,12,12,,,,,,,,,,,,,,f,9,A,A,31,1,Correct!,2.742303799954243,553.3967477999977,None,553.3967477999977,None,556.1799904999789,None,,,,,121,001,2023-10-10_15h28.20.248,colored_shuffled,2021.2.3,59.99329274768747,
C:\Users\subject\Desktop\SVRT Experiments\SVRT Experiment 3\svrt_images\generated_images\results_problem_9,C:\Users\subject\Desktop\SVRT Experiments\SVRT Experiment 3\svrt_images\generated_images\results_problem_9\sample_1_0010.png,,,,,,,,,,,,,,,,,,,,,,,0,0,0,0,0,13,13,13,,,,,,,,,,,,,,f,9,A,A,31,1,Correct!,1.8650381999905221,557.3299984000041,None,557.3299984000041,None,559.2133649999741,None,,,,,121,001,2023-10-10_15h28.20.248,colored_shuffled,2021.2.3,59.99329274768747,
C:\Users\subject\Desktop\SVRT Experiments\SVRT Experiment 3\svrt_images\generated_images\results_problem_9,C:\Users\subject\Desktop\SVRT Experiments\SVRT Experiment 3\svrt_images\generated_images\results_problem_9\sample_1_0012.png,,,,,,,,,,,,,,,,,,,,,,,0,0,0,0,0,14,14,14,,,,,,,,,,,,,,f,9,A,A,31,1,Correct!,1.310994400002528,560.3799969999818,None,560.3799969999818,None,561.7299576000078,None,,,,,121,001,2023-10-10_15h28.20.248,colored_shuffled,2021.2.3,59.99329274768747,
C:\Users\subject\Desktop\SVRT Experiments\SVRT Experiment 3\svrt_images\generated_images\results_problem_9,C:\Users\subject\Desktop\SVRT Experiments\SVRT Experiment 3\svrt_images\generated_images\results_problem_9\sample_1_0001.png,,,,,,,,,,,,,,,,,,,,,,,0,0,0,0,0,15,15,15,,,,,,,,,,,,,,f,9,A,A,31,1,Correct!,1.9215924000018276,562.9132893999922,None,562.9132893999922,None,564.8632362000062,None,,,,,121,001,2023-10-10_15h28.20.248,colored_shuffled,2021.2.3,59.99329274768747,
C:\Users\subject\Desktop\SVRT Experiments\SVRT Experiment 3\svrt_images\generated_images\results_problem_9,C:\Users\subject\Desktop\SVRT Experiments\SVRT Experiment 3\svrt_images\generated_images\results_problem_9\sample_1_0004.png,,,,,,,,,,,,,,,,,,,,,,,0,0,0,0,0,16,16,16,,,,,,,,,,,,,,f,9,A,A,31,1,Correct!,0.9239003999973647,566.0632341000019,None,566.0632341000019,None,567.0131653000135,None,,,,,121,001,2023-10-10_15h28.20.248,colored_shuffled,2021.2.3,59.99329274768747,
C:\Users\subject\Desktop\SVRT Experiments\SVRT Experiment 3\svrt_images\generated_images\results_problem_9,C:\Users\subject\Desktop\SVRT Experiments\SVRT Experiment 3\svrt_images\generated_images\results_problem_9\sample_0_0007.png,,,,,,,,,,,,,,,,,,,,,,,0,0,0,0,0,17,17,17,,,,,,,,,,,,,,f,9,A,B,31,0,Incorrect!,0.4452387999626808,568.229861699976,None,568.229861699976,None,568.713172400021,None,,,,,121,001,2023-10-10_15h28.20.248,colored_shuffled,2021.2.3,59.99329274768747,
C:\Users\subject\Desktop\SVRT Experiments\SVRT Experiment 3\svrt_images\generated_images\results_problem_9,C:\Users\subject\Desktop\SVRT Experiments\SVRT Experiment 3\svrt_images\generated_images\results_problem_9\sample_0_0000.png,,,,,,,,,,,,,,,,,,,,,,,0,0,0,0,0,18,18,18,,,,,,,,,,,,,,j,9,B,B,31,1,Correct!,2.3052176000201143,569.9298191000125,None,569.9298191000125,None,572.2964346000226,None,,,,,121,001,2023-10-10_15h28.20.248,colored_shuffled,2021.2.3,59.99329274768747,
C:\Users\subject\Desktop\SVRT Experiments\SVRT Experiment 3\svrt_images\generated_images\results_problem_9,C:\Users\subject\Desktop\SVRT Experiments\SVRT Experiment 3\svrt_images\generated_images\results_problem_9\sample_1_0008.png,,,,,,,,,,,,,,,,,,,,,,,0,0,0,0,0,19,19,19,,,,,,,,,,,,,,j,9,B,A,31,0,Incorrect!,0.6645546000218019,573.5464235999971,None,573.5464235999971,None,574.263036600023,None,,,,,121,001,2023-10-10_15h28.20.248,colored_shuffled,2021.2.3,59.99329274768747,
C:\Users\subject\Desktop\SVRT Experiments\SVRT Experiment 3\svrt_images\generated_images\results_problem_9,C:\Users\subject\Desktop\SVRT Experiments\SVRT Experiment 3\svrt_images\generated_images\results_problem_9\sample_1_0013.png,,,,,,,,,,,,,,,,,,,,,,,0,0,0,0,0,20,20,20,,,,,,,,,,,,,,f,9,A,A,31,1,Correct!,0.8258849999983795,575.5130304999766,None,575.5130304999766,None,576.3796120000188,None,,,,,121,001,2023-10-10_15h28.20.248,colored_shuffled,2021.2.3,59.99329274768747,
C:\Users\subject\Desktop\SVRT Experiments\SVRT Experiment 3\svrt_images\generated_images\results_problem_9,C:\Users\subject\Desktop\SVRT Experiments\SVRT Experiment 3\svrt_images\generated_images\results_problem_9\sample_0_0008.png,,,,,,,,,,,,,,,,,,,,,,,0,0,0,0,0,21,21,21,,,,,,,,,,,,,,f,9,A,B,31,0,Incorrect!,2.5719711999990977,577.6630320000113,None,577.6630320000113,None,580.279652199999,None,,,,,121,001,2023-10-10_15h28.20.248,colored_shuffled,2021.2.3,59.99329274768747,
C:\Users\subject\Desktop\SVRT Experiments\SVRT Experiment 3\svrt_images\generated_images\results_problem_9,C:\Users\subject\Desktop\SVRT Experiments\SVRT Experiment 3\svrt_images\generated_images\results_problem_9\sample_0_0015.png,,,,,,,,,,,,,,,,,,,,,,,0,0,0,0,0,22,22,22,,,,,,,,,,,,,,j,9,B,B,31,1,Correct!,1.3200394000159577,581.5630089999759,None,581.5630089999759,None,582.96292000002,None,,,,,121,001,2023-10-10_15h28.20.248,colored_shuffled,2021.2.3,59.99329274768747,
C:\Users\subject\Desktop\SVRT Experiments\SVRT Experiment 3\svrt_images\generated_images\results_problem_9,C:\Users\subject\Desktop\SVRT Experiments\SVRT Experiment 3\svrt_images\generated_images\results_problem_9\sample_0_0002.png,,,,,,,,,,,,,,,,,,,,,,,0,0,0,0,0,23,23,23,,,,,,,,,,,,,,j,9,B,B,31,1,Correct!,1.1080788999679498,584.2629221000243,None,584.2629221000243,None,585.4128544999985,None,,,,,121,001,2023-10-10_15h28.20.248,colored_shuffled,2021.2.3,59.99329274768747,
C:\Users\subject\Desktop\SVRT Experiments\SVRT Experiment 3\svrt_images\generated_images\results_problem_9,C:\Users\subject\Desktop\SVRT Experiments\SVRT Experiment 3\svrt_images\generated_images\results_problem_9\sample_0_0012.png,,,,,,,,,,,,,,,,,,,,,,,0,0,0,0,0,24,24,24,,,,,,,,,,,,,,j,9,B,B,31,1,Correct!,2.129419600008987,586.7295386000187,None,586.7295386000187,None,588.8795047000167,None,,,,,121,001,2023-10-10_15h28.20.248,colored_shuffled,2021.2.3,59.99329274768747,
C:\Users\subject\Desktop\SVRT Experiments\SVRT Experiment 3\svrt_images\generated_images\results_problem_9,C:\Users\subject\Desktop\SVRT Experiments\SVRT Experiment 3\svrt_images\generated_images\results_problem_9\sample_0_0016.png,,,,,,,,,,,,,,,,,,,,,,,0,0,0,0,0,25,25,25,,,,,,,,,,,,,,j,9,B,B,31,1,Correct!,0.5342311000567861,590.2128247999935,None,590.2128247999935,None,590.8294606999843,None,,,,,121,001,2023-10-10_15h28.20.248,colored_shuffled,2021.2.3,59.99329274768747,
C:\Users\subject\Desktop\SVRT Experiments\SVRT Experiment 3\svrt_images\generated_images\results_problem_9,C:\Users\subject\Desktop\SVRT Experiments\SVRT Experiment 3\svrt_images\generated_images\results_problem_9\sample_1_0016.png,,,,,,,,,,,,,,,,,,,,,,,0,0,0,0,0,26,26,26,,,,,,,,,,,,,,j,9,B,A,31,0,Incorrect!,0.41555809997953475,592.1794309000252,None,592.1794309000252,None,592.6627351000207,None,,,,,121,001,2023-10-10_15h28.20.248,colored_shuffled,2021.2.3,59.99329274768747,
C:\Users\subject\Desktop\SVRT Experiments\SVRT Experiment 3\svrt_images\generated_images\results_problem_9,C:\Users\subject\Desktop\SVRT Experiments\SVRT Experiment 3\svrt_images\generated_images\results_problem_9\sample_1_0014.png,,,,,,,,,,,,,,,,,,,,,,,0,0,0,0,0,27,27,27,,,,,,,,,,,,,,f,9,A,A,31,1,Correct!,1.1575605000252835,594.0294167000102,None,594.0294167000102,None,595.212668000022,None,,,,,121,001,2023-10-10_15h28.20.248,colored_shuffled,2021.2.3,59.99329274768747,
C:\Users\subject\Desktop\SVRT Experiments\SVRT Experiment 3\svrt_images\generated_images\results_problem_9,C:\Users\subject\Desktop\SVRT Experiments\SVRT Experiment 3\svrt_images\generated_images\results_problem_9\sample_1_0006.png,,,,,,,,,,,,,,,,,,,,,,,0,0,0,0,0,28,28,28,,,,,,,,,,,,,,f,9,A,A,31,1,Correct!,0.902769000036642,596.5960548000294,None,596.5960548000294,None,597.5960019999766,None,,,,,121,001,2023-10-10_15h28.20.248,colored_shuffled,2021.2.3,59.99329274768747,
C:\Users\subject\Desktop\SVRT Experiments\SVRT Experiment 3\svrt_images\generated_images\results_problem_9,C:\Users\subject\Desktop\SVRT Experiments\SVRT Experiment 3\svrt_images\generated_images\results_problem_9\sample_0_0004.png,,,,,,,,,,,,,,,,,,,,,,,0,0,0,0,0,29,29,29,,,,,,,,,,,,,,f,9,A,B,31,0,Incorrect!,0.7270030999789014,598.9959796000039,None,598.9959796000039,None,599.812641699973,None,,,,,121,001,2023-10-10_15h28.20.248,colored_shuffled,2021.2.3,59.99329274768747,
C:\Users\subject\Desktop\SVRT Experiments\SVRT Experiment 3\svrt_images\generated_images\results_problem_9,C:\Users\subject\Desktop\SVRT Experiments\SVRT Experiment 3\svrt_images\generated_images\results_problem_9\sample_0_0001.png,,,,,,,,,,,,,,,,,,,,,,,0,0,0,0,0,30,30,30,,,,,,,,,,,,,,j,9,B,B,31,1,Correct!,0.7730545999947935,601.2459617999848,None,601.2459617999848,None,602.0626184000284,None,,,,,121,001,2023-10-10_15h28.20.248,colored_shuffled,2021.2.3,59.99329274768747,
C:\Users\subject\Desktop\SVRT Experiments\SVRT Experiment 3\svrt_images\generated_images\results_problem_9,C:\Users\subject\Desktop\SVRT Experiments\SVRT Experiment 3\svrt_images\generated_images\results_problem_9\sample_1_0002.png,,,,,,,,,,,,,,,,,,,,,,,0,0,0,0,0,31,31,31,,,,,,,,,,,,,,j,9,B,A,31,0,Incorrect!,12.811135000025388,603.4959004999837,None,603.4959004999837,None,616.4123203000054,None,,,,,121,001,2023-10-10_15h28.20.248,colored_shuffled,2021.2.3,59.99329274768747,
C:\Users\subject\Desktop\SVRT Experiments\SVRT Experiment 3\svrt_images\generated_images\results_problem_9,C:\Users\subject\Desktop\SVRT Experiments\SVRT Experiment 3\svrt_images\generated_images\results_problem_9\sample_1_0005.png,,,,,,,,,,,,,,,,,,,,,,,0,0,0,0,0,32,32,32,,,,,,,,,,,,,,f,9,A,A,31,1,Correct!,13.388656900031492,617.8623260000022,None,617.8623260000022,None,631.295409000013,None,,,,,121,001,2023-10-10_15h28.20.248,colored_shuffled,2021.2.3,59.99329274768747,
C:\Users\subject\Desktop\SVRT Experiments\SVRT Experiment 3\svrt_images\generated_images\results_problem_9,C:\Users\subject\Desktop\SVRT Experiments\SVRT Experiment 3\svrt_images\generated_images\results_problem_9\sample_0_0011.png,,,,,,,,,,,,,,,,,,,,,,,0,0,0,0,0,33,33,33,,,,,,,,,,,,,,f,9,A,B,31,0,Incorrect!,4.577024400001392,632.7620013999986,None,632.7620013999986,None,637.4453303000191,None,,,,,121,001,2023-10-10_15h28.20.248,colored_shuffled,2021.2.3,59.99329274768747,
C:\Users\subject\Desktop\SVRT Experiments\SVRT Experiment 3\svrt_images\generated_images\results_problem_9,,,,,,,,,,,,,,,,,,,,,,,,0,0,0,0,,,,,,,,,,,,,,,,,,,,,,,,,,,,,,,,638.4453035999904,638.4453035999904,space,2.237646199995652,121,001,2023-10-10_15h28.20.248,colored_shuffled,2021.2.3,59.99329274768747,
C:\Users\subject\Desktop\SVRT Experiments\SVRT Experiment 3\svrt_images\generated_images\results_problem_23,,C:\Users\subject\Desktop\SVRT Experiments\SVRT Experiment 3\svrt_images\generated_images\results_problem_23\sample_1_0010.png,,,,,,,,,,,,,,,,,,,,,,0,1,1,1,0,0,0,0,,,,,,,,,,,,,,f,23,A,A,31,1,Correct!,12.466899599996395,640.7119127999758,None,640.7119127999758,None,653.2117562000058,None,,,,,121,001,2023-10-10_15h28.20.248,colored_shuffled,2021.2.3,59.99329274768747,
C:\Users\subject\Desktop\SVRT Experiments\SVRT Experiment 3\svrt_images\generated_images\results_problem_23,,C:\Users\subject\Desktop\SVRT Experiments\SVRT Experiment 3\svrt_images\generated_images\results_problem_23\sample_1_0001.png,,,,,,,,,,,,,,,,,,,,,,0,1,1,1,0,1,1,1,,,,,,,,,,,,,,j,23,B,A,31,0,Incorrect!,4.7984800999984145,654.2283596000052,None,654.2283596000052,None,659.0449973000214,None,,,,,121,001,2023-10-10_15h28.20.248,colored_shuffled,2021.2.3,59.99329274768747,
C:\Users\subject\Desktop\SVRT Experiments\SVRT Experiment 3\svrt_images\generated_images\results_problem_23,,C:\Users\subject\Desktop\SVRT Experiments\SVRT Experiment 3\svrt_images\generated_images\results_problem_23\sample_0_0008.png,,,,,,,,,,,,,,,,,,,,,,0,1,1,1,0,2,2,2,,,,,,,,,,,,,,f,23,A,B,31,0,Incorrect!,1.277221099997405,660.0616047999938,None,660.0616047999938,None,661.3616151000024,None,,,,,121,001,2023-10-10_15h28.20.248,colored_shuffled,2021.2.3,59.99329274768747,
C:\Users\subject\Desktop\SVRT Experiments\SVRT Experiment 3\svrt_images\generated_images\results_problem_23,,C:\Users\subject\Desktop\SVRT Experiments\SVRT Experiment 3\svrt_images\generated_images\results_problem_23\sample_0_0016.png,,,,,,,,,,,,,,,,,,,,,,0,1,1,1,0,3,3,3,,,,,,,,,,,,,,f,23,A,B,31,0,Incorrect!,2.6400879000429995,662.3948850000161,None,662.3948850000161,None,665.0615381000098,None,,,,,121,001,2023-10-10_15h28.20.248,colored_shuffled,2021.2.3,59.99329274768747,
C:\Users\subject\Desktop\SVRT Experiments\SVRT Experiment 3\svrt_images\generated_images\results_problem_23,,C:\Users\subject\Desktop\SVRT Experiments\SVRT Experiment 3\svrt_images\generated_images\results_problem_23\sample_0_0007.png,,,,,,,,,,,,,,,,,,,,,,0,1,1,1,0,4,4,4,,,,,,,,,,,,,,j,23,B,B,31,1,Correct!,1.8192744000116363,666.1115277999779,None,666.1115277999779,None,667.9614961000043,None,,,,,121,001,2023-10-10_15h28.20.248,colored_shuffled,2021.2.3,59.99329274768747,
C:\Users\subject\Desktop\SVRT Experiments\SVRT Experiment 3\svrt_images\generated_images\results_problem_23,,C:\Users\subject\Desktop\SVRT Experiments\SVRT Experiment 3\svrt_images\generated_images\results_problem_23\sample_1_0007.png,,,,,,,,,,,,,,,,,,,,,,0,1,1,1,0,5,5,5,,,,,,,,,,,,,,j,23,B,A,31,0,Incorrect!,1.895611200015992,669.0114397999714,None,669.0114397999714,None,670.9280447000056,None,,,,,121,001,2023-10-10_15h28.20.248,colored_shuffled,2021.2.3,59.99329274768747,
C:\Users\subject\Desktop\SVRT Experiments\SVRT Experiment 3\svrt_images\generated_images\results_problem_23,,C:\Users\subject\Desktop\SVRT Experiments\SVRT Experiment 3\svrt_images\generated_images\results_problem_23\sample_0_0015.png,,,,,,,,,,,,,,,,,,,,,,0,1,1,1,0,6,6,6,,,,,,,,,,,,,,f,23,A,B,31,0,Incorrect!,0.5921401999657974,671.9947403999977,None,671.9947403999977,None,672.6113954000175,None,,,,,121,001,2023-10-10_15h28.20.248,colored_shuffled,2021.2.3,59.99329274768747,
C:\Users\subject\Desktop\SVRT Experiments\SVRT Experiment 3\svrt_images\generated_images\results_problem_23,,C:\Users\subject\Desktop\SVRT Experiments\SVRT Experiment 3\svrt_images\generated_images\results_problem_23\sample_1_0006.png,,,,,,,,,,,,,,,,,,,,,,0,1,1,1,0,7,7,7,,,,,,,,,,,,,,j,23,B,A,31,0,Incorrect!,0.3003968999837525,673.6947135999799,None,673.6947135999799,None,674.0279949000105,None,,,,,121,001,2023-10-10_15h28.20.248,colored_shuffled,2021.2.3,59.99329274768747,
C:\Users\subject\Desktop\SVRT Experiments\SVRT Experiment 3\svrt_images\generated_images\results_problem_23,,C:\Users\subject\Desktop\SVRT Experiments\SVRT Experiment 3\svrt_images\generated_images\results_problem_23\sample_0_0011.png,,,,,,,,,,,,,,,,,,,,,,0,1,1,1,0,8,8,8,,,,,,,,,,,,,,f,23,A,B,31,0,Incorrect!,0.274868400010746,675.1280438000103,None,675.1280438000103,None,675.4280384000158,None,,,,,121,001,2023-10-10_15h28.20.248,colored_shuffled,2021.2.3,59.99329274768747,
C:\Users\subject\Desktop\SVRT Experiments\SVRT Experiment 3\svrt_images\generated_images\results_problem_23,,C:\Users\subject\Desktop\SVRT Experiments\SVRT Experiment 3\svrt_images\generated_images\results_problem_23\sample_0_0001.png,,,,,,,,,,,,,,,,,,,,,,0,1,1,1,0,9,9,9,,,,,,,,,,,,,,f,23,A,B,31,0,Incorrect!,0.5303819999680854,676.5446706999792,None,676.5446706999792,None,677.0946519999998,None,,,,,121,001,2023-10-10_15h28.20.248,colored_shuffled,2021.2.3,59.99329274768747,
C:\Users\subject\Desktop\SVRT Experiments\SVRT Experiment 3\svrt_images\generated_images\results_problem_23,,C:\Users\subject\Desktop\SVRT Experiments\SVRT Experiment 3\svrt_images\generated_images\results_problem_23\sample_0_0004.png,,,,,,,,,,,,,,,,,,,,,,0,1,1,1,0,10,10,10,,,,,,,,,,,,,,f,23,A,B,31,0,Incorrect!,0.2636765000061132,678.2113071000203,None,678.2113071000203,None,678.4946396999876,None,,,,,121,001,2023-10-10_15h28.20.248,colored_shuffled,2021.2.3,59.99329274768747,
C:\Users\subject\Desktop\SVRT Experiments\SVRT Experiment 3\svrt_images\generated_images\results_problem_23,,C:\Users\subject\Desktop\SVRT Experiments\SVRT Experiment 3\svrt_images\generated_images\results_problem_23\sample_1_0012.png,,,,,,,,,,,,,,,,,,,,,,0,1,1,1,0,11,11,11,,,,,,,,,,,,,,j,23,B,A,31,0,Incorrect!,0.814851599978283,679.6279508000007,None,679.6279508000007,None,680.4779201999772,None,,,,,121,001,2023-10-10_15h28.20.248,colored_shuffled,2021.2.3,59.99329274768747,
C:\Users\subject\Desktop\SVRT Experiments\SVRT Experiment 3\svrt_images\generated_images\results_problem_23,,C:\Users\subject\Desktop\SVRT Experiments\SVRT Experiment 3\svrt_images\generated_images\results_problem_23\sample_0_0005.png,,,,,,,,,,,,,,,,,,,,,,0,1,1,1,0,12,12,12,,,,,,,,,,,,,,f,23,A,B,31,0,Incorrect!,0.39904970000497997,681.6279115999932,None,681.6279115999932,None,682.0445460000192,None,,,,,121,001,2023-10-10_15h28.20.248,colored_shuffled,2021.2.3,59.99329274768747,
C:\Users\subject\Desktop\SVRT Experiments\SVRT Experiment 3\svrt_images\generated_images\results_problem_23,,C:\Users\subject\Desktop\SVRT Experiments\SVRT Experiment 3\svrt_images\generated_images\results_problem_23\sample_1_0004.png,,,,,,,,,,,,,,,,,,,,,,0,1,1,1,0,13,13,13,,,,,,,,,,,,,,f,23,A,A,31,1,Correct!,0.2637601000024006,683.2112402999774,None,683.2112402999774,None,683.4944958999986,None,,,,,121,001,2023-10-10_15h28.20.248,colored_shuffled,2021.2.3,59.99329274768747,
C:\Users\subject\Desktop\SVRT Experiments\SVRT Experiment 3\svrt_images\generated_images\results_problem_23,,C:\Users\subject\Desktop\SVRT Experiments\SVRT Experiment 3\svrt_images\generated_images\results_problem_23\sample_0_0000.png,,,,,,,,,,,,,,,,,,,,,,0,1,1,1,0,14,14,14,,,,,,,,,,,,,,f,23,A,B,31,0,Incorrect!,0.22895619994960725,684.677869200008,None,684.677869200008,None,684.9278961999808,None,,,,,121,001,2023-10-10_15h28.20.248,colored_shuffled,2021.2.3,59.99329274768747,
C:\Users\subject\Desktop\SVRT Experiments\SVRT Experiment 3\svrt_images\generated_images\results_problem_23,,C:\Users\subject\Desktop\SVRT Experiments\SVRT Experiment 3\svrt_images\generated_images\results_problem_23\sample_1_0008.png,,,,,,,,,,,,,,,,,,,,,,0,1,1,1,0,15,15,15,,,,,,,,,,,,,,j,23,B,A,31,0,Incorrect!,2.715721000044141,686.1111723000067,None,686.1111723000067,None,688.8610654000076,None,,,,,121,001,2023-10-10_15h28.20.248,colored_shuffled,2021.2.3,59.99329274768747,
C:\Users\subject\Desktop\SVRT Experiments\SVRT Experiment 3\svrt_images\generated_images\results_problem_23,,C:\Users\subject\Desktop\SVRT Experiments\SVRT Experiment 3\svrt_images\generated_images\results_problem_23\sample_1_0014.png,,,,,,,,,,,,,,,,,,,,,,0,1,1,1,0,16,16,16,,,,,,,,,,,,,,f,23,A,A,31,1,Correct!,0.36599800002295524,690.0610748999752,None,690.0610748999752,None,690.4444305999787,None,,,,,121,001,2023-10-10_15h28.20.248,colored_shuffled,2021.2.3,59.99329274768747,
C:\Users\subject\Desktop\SVRT Experiments\SVRT Experiment 3\svrt_images\generated_images\results_problem_23,,C:\Users\subject\Desktop\SVRT Experiments\SVRT Experiment 3\svrt_images\generated_images\results_problem_23\sample_1_0016.png,,,,,,,,,,,,,,,,,,,,,,0,1,1,1,0,17,17,17,,,,,,,,,,,,,,j,23,B,A,31,0,Incorrect!,0.341925100015942,691.6610307000228,None,691.6610307000228,None,692.0277263000025,None,,,,,121,001,2023-10-10_15h28.20.248,colored_shuffled,2021.2.3,59.99329274768747,
C:\Users\subject\Desktop\SVRT Experiments\SVRT Experiment 3\svrt_images\generated_images\results_problem_23,,C:\Users\subject\Desktop\SVRT Experiments\SVRT Experiment 3\svrt_images\generated_images\results_problem_23\sample_1_0011.png,,,,,,,,,,,,,,,,,,,,,,0,1,1,1,0,18,18,18,,,,,,,,,,,,,,f,23,A,A,31,1,Correct!,0.4778025000123307,693.2610435999813,None,693.2610435999813,None,693.7777265000041,None,,,,,121,001,2023-10-10_15h28.20.248,colored_shuffled,2021.2.3,59.99329274768747,
C:\Users\subject\Desktop\SVRT Experiments\SVRT Experiment 3\svrt_images\generated_images\results_problem_23,,C:\Users\subject\Desktop\SVRT Experiments\SVRT Experiment 3\svrt_images\generated_images\results_problem_23\sample_0_0009.png,,,,,,,,,,,,,,,,,,,,,,0,1,1,1,0,19,19,19,,,,,,,,,,,,,,j,23,B,B,31,1,Correct!,0.38342079997528344,695.0276286000153,None,695.0276286000153,None,695.4443643999984,None,,,,,121,001,2023-10-10_15h28.20.248,colored_shuffled,2021.2.3,59.99329274768747,
C:\Users\subject\Desktop\SVRT Experiments\SVRT Experiment 3\svrt_images\generated_images\results_problem_23,,C:\Users\subject\Desktop\SVRT Experiments\SVRT Experiment 3\svrt_images\generated_images\results_problem_23\sample_1_0013.png,,,,,,,,,,,,,,,,,,,,,,0,1,1,1,0,20,20,20,,,,,,,,,,,,,,f,23,A,A,31,1,Correct!,0.835828700044658,696.7110202999902,None,696.7110202999902,None,697.5776251999778,None,,,,,121,001,2023-10-10_15h28.20.248,colored_shuffled,2021.2.3,59.99329274768747,
C:\Users\subject\Desktop\SVRT Experiments\SVRT Experiment 3\svrt_images\generated_images\results_problem_23,,C:\Users\subject\Desktop\SVRT Experiments\SVRT Experiment 3\svrt_images\generated_images\results_problem_23\sample_0_0010.png,,,,,,,,,,,,,,,,,,,,,,0,1,1,1,0,21,21,21,,,,,,,,,,,,,,j,23,B,B,31,1,Correct!,0.5579058000002988,698.8609000000288,None,698.8609000000288,None,699.4442802999984,None,,,,,121,001,2023-10-10_15h28.20.248,colored_shuffled,2021.2.3,59.99329274768747,
C:\Users\subject\Desktop\SVRT Experiments\SVRT Experiment 3\svrt_images\generated_images\results_problem_23,,C:\Users\subject\Desktop\SVRT Experiments\SVRT Experiment 3\svrt_images\generated_images\results_problem_23\sample_1_0002.png,,,,,,,,,,,,,,,,,,,,,,0,1,1,1,0,22,22,22,,,,,,,,,,,,,,f,23,A,A,31,1,Correct!,0.42668269999558106,700.7442632999737,None,700.7442632999737,None,701.227585399989,None,,,,,121,001,2023-10-10_15h28.20.248,colored_shuffled,2021.2.3,59.99329274768747,
C:\Users\subject\Desktop\SVRT Experiments\SVRT Experiment 3\svrt_images\generated_images\results_problem_23,,C:\Users\subject\Desktop\SVRT Experiments\SVRT Experiment 3\svrt_images\generated_images\results_problem_23\sample_1_0015.png,,,,,,,,,,,,,,,,,,,,,,0,1,1,1,0,23,23,23,,,,,,,,,,,,,,j,23,B,A,31,0,Incorrect!,0.38727589999325573,702.5275896000094,None,702.5275896000094,None,702.9442311999737,None,,,,,121,001,2023-10-10_15h28.20.248,colored_shuffled,2021.2.3,59.99329274768747,
C:\Users\subject\Desktop\SVRT Experiments\SVRT Experiment 3\svrt_images\generated_images\results_problem_23,,C:\Users\subject\Desktop\SVRT Experiments\SVRT Experiment 3\svrt_images\generated_images\results_problem_23\sample_0_0014.png,,,,,,,,,,,,,,,,,,,,,,0,1,1,1,0,24,24,24,,,,,,,,,,,,,,j,23,B,B,31,1,Correct!,0.3574644000036642,704.2775597000145,None,704.2775597000145,None,704.6941707999795,None,,,,,121,001,2023-10-10_15h28.20.248,colored_shuffled,2021.2.3,59.99329274768747,
C:\Users\subject\Desktop\SVRT Experiments\SVRT Experiment 3\svrt_images\generated_images\results_problem_23,,C:\Users\subject\Desktop\SVRT Experiments\SVRT Experiment 3\svrt_images\generated_images\results_problem_23\sample_0_0003.png,,,,,,,,,,,,,,,,,,,,,,0,1,1,1,0,25,25,25,,,,,,,,,,,,,,j,23,B,B,31,1,Correct!,1.9026695000356995,706.0442000000039,None,706.0442000000039,None,707.994070500019,None,,,,,121,001,2023-10-10_15h28.20.248,colored_shuffled,2021.2.3,59.99329274768747,
C:\Users\subject\Desktop\SVRT Experiments\SVRT Experiment 3\svrt_images\generated_images\results_problem_23,,C:\Users\subject\Desktop\SVRT Experiments\SVRT Experiment 3\svrt_images\generated_images\results_problem_23\sample_1_0003.png,,,,,,,,,,,,,,,,,,,,,,0,1,1,1,0,26,26,26,,,,,,,,,,,,,,j,23,B,A,31,0,Incorrect!,0.6980673999642022,709.360787499987,None,709.360787499987,None,710.1274402000126,None,,,,,121,001,2023-10-10_15h28.20.248,colored_shuffled,2021.2.3,59.99329274768747,
C:\Users\subject\Desktop\SVRT Experiments\SVRT Experiment 3\svrt_images\generated_images\results_problem_23,,C:\Users\subject\Desktop\SVRT Experiments\SVRT Experiment 3\svrt_images\generated_images\results_problem_23\sample_0_0006.png,,,,,,,,,,,,,,,,,,,,,,0,1,1,1,0,27,27,27,,,,,,,,,,,,,,f,23,A,B,31,0,Incorrect!,0.9162255999981426,711.510769799992,None,711.510769799992,None,712.4440009000245,None,,,,,121,001,2023-10-10_15h28.20.248,colored_shuffled,2021.2.3,59.99329274768747,
C:\Users\subject\Desktop\SVRT Experiments\SVRT Experiment 3\svrt_images\generated_images\results_problem_23,,C:\Users\subject\Desktop\SVRT Experiments\SVRT Experiment 3\svrt_images\generated_images\results_problem_23\sample_1_0009.png,,,,,,,,,,,,,,,,,,,,,,0,1,1,1,0,28,28,28,,,,,,,,,,,,,,j,23,B,A,31,0,Incorrect!,1.079519699967932,713.827404599986,None,713.827404599986,None,714.9273563000024,None,,,,,121,001,2023-10-10_15h28.20.248,colored_shuffled,2021.2.3,59.99329274768747,
C:\Users\subject\Desktop\SVRT Experiments\SVRT Experiment 3\svrt_images\generated_images\results_problem_23,,C:\Users\subject\Desktop\SVRT Experiments\SVRT Experiment 3\svrt_images\generated_images\results_problem_23\sample_1_0005.png,,,,,,,,,,,,,,,,,,,,,,0,1,1,1,0,29,29,29,,,,,,,,,,,,,,f,23,A,A,31,1,Correct!,0.9314534000004642,716.3273506999831,None,716.3273506999831,None,717.3272654999746,None,,,,,121,001,2023-10-10_15h28.20.248,colored_shuffled,2021.2.3,59.99329274768747,
C:\Users\subject\Desktop\SVRT Experiments\SVRT Experiment 3\svrt_images\generated_images\results_problem_23,,C:\Users\subject\Desktop\SVRT Experiments\SVRT Experiment 3\svrt_images\generated_images\results_problem_23\sample_0_0013.png,,,,,,,,,,,,,,,,,,,,,,0,1,1,1,0,30,30,30,,,,,,,,,,,,,,f,23,A,B,31,0,Incorrect!,1.7142939000041224,718.7606407999992,None,718.7606407999992,None,720.5772591999848,None,,,,,121,001,2023-10-10_15h28.20.248,colored_shuffled,2021.2.3,59.99329274768747,
C:\Users\subject\Desktop\SVRT Experiments\SVRT Experiment 3\svrt_images\generated_images\results_problem_23,,C:\Users\subject\Desktop\SVRT Experiments\SVRT Experiment 3\svrt_images\generated_images\results_problem_23\sample_1_0000.png,,,,,,,,,,,,,,,,,,,,,,0,1,1,1,0,31,31,31,,,,,,,,,,,,,,j,23,B,A,31,0,Incorrect!,1.360334699973464,722.0106005999842,None,722.0106005999842,None,723.4272243999876,None,,,,,121,001,2023-10-10_15h28.20.248,colored_shuffled,2021.2.3,59.99329274768747,
C:\Users\subject\Desktop\SVRT Experiments\SVRT Experiment 3\svrt_images\generated_images\results_problem_23,,C:\Users\subject\Desktop\SVRT Experiments\SVRT Experiment 3\svrt_images\generated_images\results_problem_23\sample_0_0012.png,,,,,,,,,,,,,,,,,,,,,,0,1,1,1,0,32,32,32,,,,,,,,,,,,,,f,23,A,B,31,0,Incorrect!,1.4046750999987125,724.9742709000129,None,724.9742709000129,None,726.493830499996,None,,,,,121,001,2023-10-10_15h28.20.248,colored_shuffled,2021.2.3,59.99329274768747,
C:\Users\subject\Desktop\SVRT Experiments\SVRT Experiment 3\svrt_images\generated_images\results_problem_23,,C:\Users\subject\Desktop\SVRT Experiments\SVRT Experiment 3\svrt_images\generated_images\results_problem_23\sample_0_0002.png,,,,,,,,,,,,,,,,,,,,,,0,1,1,1,0,33,33,33,,,,,,,,,,,,,,j,23,B,B,31,1,Correct!,1.5138670000014827,727.9771733999951,None,727.9771733999951,None,729.5104456000263,None,,,,,121,001,2023-10-10_15h28.20.248,colored_shuffled,2021.2.3,59.99329274768747,
C:\Users\subject\Desktop\SVRT Experiments\SVRT Experiment 3\svrt_images\generated_images\results_problem_23,,,,,,,,,,,,,,,,,,,,,,,,0,1,1,1,,,,,,,,,,,,,,,,,,,,,,,,,,,,,,,,730.5104356000083,730.5104356000083,space,1.2363378000445664,121,001,2023-10-10_15h28.20.248,colored_shuffled,2021.2.3,59.99329274768747,
C:\Users\subject\Desktop\SVRT Experiments\SVRT Experiment 3\svrt_images\generated_images\results_problem_18,,,C:\Users\subject\Desktop\SVRT Experiments\SVRT Experiment 3\svrt_images\generated_images\results_problem_18\sample_0_0005.png,,,,,,,,,,,,,,,,,,,,,0,2,2,2,0,0,0,0,,,,,,,,,,,,,,f,18,A,B,31,0,Incorrect!,10.561763099976815,731.7770520999911,None,731.7770520999911,None,742.360279400018,None,,,,,121,001,2023-10-10_15h28.20.248,colored_shuffled,2021.2.3,59.99329274768747,
C:\Users\subject\Desktop\SVRT Experiments\SVRT Experiment 3\svrt_images\generated_images\results_problem_18,,,C:\Users\subject\Desktop\SVRT Experiments\SVRT Experiment 3\svrt_images\generated_images\results_problem_18\sample_0_0015.png,,,,,,,,,,,,,,,,,,,,,0,2,2,2,0,1,1,1,,,,,,,,,,,,,,j,18,B,B,31,1,Correct!,4.697860100015532,743.3768996999715,None,743.3768996999715,None,748.0935214000056,None,,,,,121,001,2023-10-10_15h28.20.248,colored_shuffled,2021.2.3,59.99329274768747,
C:\Users\subject\Desktop\SVRT Experiments\SVRT Experiment 3\svrt_images\generated_images\results_problem_18,,,C:\Users\subject\Desktop\SVRT Experiments\SVRT Experiment 3\svrt_images\generated_images\results_problem_18\sample_1_0005.png,,,,,,,,,,,,,,,,,,,,,0,2,2,2,0,2,2,2,,,,,,,,,,,,,,j,18,B,A,31,0,Incorrect!,0.8767891000024974,749.1101215999806,None,749.1101215999806,None,750.0101058,None,,,,,121,001,2023-10-10_15h28.20.248,colored_shuffled,2021.2.3,59.99329274768747,
C:\Users\subject\Desktop\SVRT Experiments\SVRT Experiment 3\svrt_images\generated_images\results_problem_18,,,C:\Users\subject\Desktop\SVRT Experiments\SVRT Experiment 3\svrt_images\generated_images\results_problem_18\sample_1_0008.png,,,,,,,,,,,,,,,,,,,,,0,2,2,2,0,3,3,3,,,,,,,,,,,,,,f,18,A,A,31,1,Correct!,2.3754709999775514,751.0434362000087,None,751.0434362000087,None,753.443377699994,None,,,,,121,001,2023-10-10_15h28.20.248,colored_shuffled,2021.2.3,59.99329274768747,
C:\Users\subject\Desktop\SVRT Experiments\SVRT Experiment 3\svrt_images\generated_images\results_problem_18,,,C:\Users\subject\Desktop\SVRT Experiments\SVRT Experiment 3\svrt_images\generated_images\results_problem_18\sample_0_0002.png,,,,,,,,,,,,,,,,,,,,,0,2,2,2,0,4,4,4,,,,,,,,,,,,,,f,18,A,B,31,0,Incorrect!,1.1815193999791518,754.4933866999927,None,754.4933866999927,None,755.6933433000231,None,,,,,121,001,2023-10-10_15h28.20.248,colored_shuffled,2021.2.3,59.99329274768747,
C:\Users\subject\Desktop\SVRT Experiments\SVRT Experiment 3\svrt_images\generated_images\results_problem_18,,,C:\Users\subject\Desktop\SVRT Experiments\SVRT Experiment 3\svrt_images\generated_images\results_problem_18\sample_1_0003.png,,,,,,,,,,,,,,,,,,,,,0,2,2,2,0,5,5,5,,,,,,,,,,,,,,f,18,A,A,31,1,Correct!,0.7554924000287428,756.7433275000076,None,756.7433275000076,None,757.5266636000015,None,,,,,121,001,2023-10-10_15h28.20.248,colored_shuffled,2021.2.3,59.99329274768747,
C:\Users\subject\Desktop\SVRT Experiments\SVRT Experiment 3\svrt_images\generated_images\results_problem_18,,,C:\Users\subject\Desktop\SVRT Experiments\SVRT Experiment 3\svrt_images\generated_images\results_problem_18\sample_1_0004.png,,,,,,,,,,,,,,,,,,,,,0,2,2,2,0,6,6,6,,,,,,,,,,,,,,j,18,B,A,31,0,Incorrect!,2.209527499973774,758.5933368999977,None,758.5933368999977,None,760.8265924999723,None,,,,,121,001,2023-10-10_15h28.20.248,colored_shuffled,2021.2.3,59.99329274768747,
C:\Users\subject\Desktop\SVRT Experiments\SVRT Experiment 3\svrt_images\generated_images\results_problem_18,,,C:\Users\subject\Desktop\SVRT Experiments\SVRT Experiment 3\svrt_images\generated_images\results_problem_18\sample_1_0000.png,,,,,,,,,,,,,,,,,,,,,0,2,2,2,0,7,7,7,,,,,,,,,,,,,,j,18,B,A,31,0,Incorrect!,0.8529360999818891,761.9099190999987,None,761.9099190999987,None,762.7932216000045,None,,,,,121,001,2023-10-10_15h28.20.248,colored_shuffled,2021.2.3,59.99329274768747,
C:\Users\subject\Desktop\SVRT Experiments\SVRT Experiment 3\svrt_images\generated_images\results_problem_18,,,C:\Users\subject\Desktop\SVRT Experiments\SVRT Experiment 3\svrt_images\generated_images\results_problem_18\sample_0_0012.png,,,,,,,,,,,,,,,,,,,,,0,2,2,2,0,8,8,8,,,,,,,,,,,,,,f,18,A,B,31,0,Incorrect!,0.6616015000035986,763.8932379999897,None,763.8932379999897,None,764.5765392999747,None,,,,,121,001,2023-10-10_15h28.20.248,colored_shuffled,2021.2.3,59.99329274768747,
C:\Users\subject\Desktop\SVRT Experiments\SVRT Experiment 3\svrt_images\generated_images\results_problem_18,,,C:\Users\subject\Desktop\SVRT Experiments\SVRT Experiment 3\svrt_images\generated_images\results_problem_18\sample_0_0016.png,,,,,,,,,,,,,,,,,,,,,0,2,2,2,0,9,9,9,,,,,,,,,,,,,,f,18,A,B,31,0,Incorrect!,1.1503421000088565,765.6765355999814,None,765.6765355999814,None,766.85982469999,None,,,,,121,001,2023-10-10_15h28.20.248,colored_shuffled,2021.2.3,59.99329274768747,
C:\Users\subject\Desktop\SVRT Experiments\SVRT Experiment 3\svrt_images\generated_images\results_problem_18,,,C:\Users\subject\Desktop\SVRT Experiments\SVRT Experiment 3\svrt_images\generated_images\results_problem_18\sample_1_0009.png,,,,,,,,,,,,,,,,,,,,,0,2,2,2,0,10,10,10,,,,,,,,,,,,,,f,18,A,A,31,1,Correct!,1.186266999982763,767.9764996999875,None,767.9764996999875,None,769.1931346000056,None,,,,,121,001,2023-10-10_15h28.20.248,colored_shuffled,2021.2.3,59.99329274768747,
C:\Users\subject\Desktop\SVRT Experiments\SVRT Experiment 3\svrt_images\generated_images\results_problem_18,,,C:\Users\subject\Desktop\SVRT Experiments\SVRT Experiment 3\svrt_images\generated_images\results_problem_18\sample_1_0007.png,,,,,,,,,,,,,,,,,,,,,0,2,2,2,0,11,11,11,,,,,,,,,,,,,,f,18,A,A,31,1,Correct!,1.7803482000017539,770.3264576999936,None,770.3264576999936,None,772.1430738000199,None,,,,,121,001,2023-10-10_15h28.20.248,colored_shuffled,2021.2.3,59.99329274768747,
C:\Users\subject\Desktop\SVRT Experiments\SVRT Experiment 3\svrt_images\generated_images\results_problem_18,,,C:\Users\subject\Desktop\SVRT Experiments\SVRT Experiment 3\svrt_images\generated_images\results_problem_18\sample_0_0010.png,,,,,,,,,,,,,,,,,,,,,0,2,2,2,0,12,12,12,,,,,,,,,,,,,,j,18,B,B,31,1,Correct!,1.9978530999505892,773.2930294999969,None,773.2930294999969,None,775.309703100007,None,,,,,121,001,2023-10-10_15h28.20.248,colored_shuffled,2021.2.3,59.99329274768747,
C:\Users\subject\Desktop\SVRT Experiments\SVRT Experiment 3\svrt_images\generated_images\results_problem_18,,,C:\Users\subject\Desktop\SVRT Experiments\SVRT Experiment 3\svrt_images\generated_images\results_problem_18\sample_0_0014.png,,,,,,,,,,,,,,,,,,,,,0,2,2,2,0,13,13,13,,,,,,,,,,,,,,j,18,B,B,31,1,Correct!,0.4945297999656759,776.4763789999997,None,776.4763789999997,None,776.9930379000143,None,,,,,121,001,2023-10-10_15h28.20.248,colored_shuffled,2021.2.3,59.99329274768747,
C:\Users\subject\Desktop\SVRT Experiments\SVRT Experiment 3\svrt_images\generated_images\results_problem_18,,,C:\Users\subject\Desktop\SVRT Experiments\SVRT Experiment 3\svrt_images\generated_images\results_problem_18\sample_1_0002.png,,,,,,,,,,,,,,,,,,,,,0,2,2,2,0,14,14,14,,,,,,,,,,,,,,f,18,A,A,31,1,Correct!,0.6112329999450594,778.1596643999801,None,778.1596643999801,None,778.8096727000084,None,,,,,121,001,2023-10-10_15h28.20.248,colored_shuffled,2021.2.3,59.99329274768747,
C:\Users\subject\Desktop\SVRT Experiments\SVRT Experiment 3\svrt_images\generated_images\results_problem_18,,,C:\Users\subject\Desktop\SVRT Experiments\SVRT Experiment 3\svrt_images\generated_images\results_problem_18\sample_0_0009.png,,,,,,,,,,,,,,,,,,,,,0,2,2,2,0,15,15,15,,,,,,,,,,,,,,j,18,B,B,31,1,Correct!,0.40186409995658323,779.9929889999912,None,779.9929889999912,None,780.4429683000199,None,,,,,121,001,2023-10-10_15h28.20.248,colored_shuffled,2021.2.3,59.99329274768747,
C:\Users\subject\Desktop\SVRT Experiments\SVRT Experiment 3\svrt_images\generated_images\results_problem_18,,,C:\Users\subject\Desktop\SVRT Experiments\SVRT Experiment 3\svrt_images\generated_images\results_problem_18\sample_1_0001.png,,,,,,,,,,,,,,,,,,,,,0,2,2,2,0,16,16,16,,,,,,,,,,,,,,f,18,A,A,31,1,Correct!,0.8239069999544881,781.6429455999751,None,781.6429455999751,None,782.4929469000199,None,,,,,121,001,2023-10-10_15h28.20.248,colored_shuffled,2021.2.3,59.99329274768747,
C:\Users\subject\Desktop\SVRT Experiments\SVRT Experiment 3\svrt_images\generated_images\results_problem_18,,,C:\Users\subject\Desktop\SVRT Experiments\SVRT Experiment 3\svrt_images\generated_images\results_problem_18\sample_0_0008.png,,,,,,,,,,,,,,,,,,,,,0,2,2,2,0,17,17,17,,,,,,,,,,,,,,,,,,,,,,,,,,,,783.4929107999778,783.4929107999778,space,1.1818141000112519,121,001,2023-10-10_15h28.20.248,colored_shuffled,2021.2.3,59.99329274768747,
C:\Users\subject\Desktop\SVRT Experiments\SVRT Experiment 3\svrt_images\generated_images\results_problem_10,,,C:\Users\subject\Desktop\SVRT Experiments\SVRT Experiment 3\svrt_images\generated_images\results_problem_18\sample_0_0008.png,C:\Users\subject\Desktop\SVRT Experiments\SVRT Experiment 3\svrt_images\generated_images\results_problem_10\sample_1_0013.png,,,,,,,,,,,,,,,,,,,,0,3,3,3,0,0,0,0,,,,,,,,,,,,,,j,10,B,A,31,0,Incorrect!,1.2142010000534356,784.6928969,None,784.6928969,None,785.9262225999846,None,,,,,121,001,2023-10-10_15h28.20.248,colored_shuffled,2021.2.3,59.99329274768747,
C:\Users\subject\Desktop\SVRT Experiments\SVRT Experiment 3\svrt_images\generated_images\results_problem_10,,,C:\Users\subject\Desktop\SVRT Experiments\SVRT Experiment 3\svrt_images\generated_images\results_problem_18\sample_0_0008.png,C:\Users\subject\Desktop\SVRT Experiments\SVRT Experiment 3\svrt_images\generated_images\results_problem_10\sample_0_0003.png,,,,,,,,,,,,,,,,,,,,0,3,3,3,0,1,1,1,,,,,,,,,,,,,,f,10,A,B,31,0,Incorrect!,3.4840594000415877,786.9428540000226,None,786.9428540000226,None,790.4595206999802,None,,,,,121,001,2023-10-10_15h28.20.248,colored_shuffled,2021.2.3,59.99329274768747,
C:\Users\subject\Desktop\SVRT Experiments\SVRT Experiment 3\svrt_images\generated_images\results_problem_10,,,C:\Users\subject\Desktop\SVRT Experiments\SVRT Experiment 3\svrt_images\generated_images\results_problem_18\sample_0_0008.png,C:\Users\subject\Desktop\SVRT Experiments\SVRT Experiment 3\svrt_images\generated_images\results_problem_10\sample_0_0016.png,,,,,,,,,,,,,,,,,,,,0,3,3,3,0,2,2,2,,,,,,,,,,,,,,j,10,B,B,31,1,Correct!,3.6467288000276312,791.4760767000262,None,791.4760767000262,None,795.142726799997,None,,,,,121,001,2023-10-10_15h28.20.248,colored_shuffled,2021.2.3,59.99329274768747,
C:\Users\subject\Desktop\SVRT Experiments\SVRT Experiment 3\svrt_images\generated_images\results_problem_10,,,C:\Users\subject\Desktop\SVRT Experiments\SVRT Experiment 3\svrt_images\generated_images\results_problem_18\sample_0_0008.png,C:\Users\subject\Desktop\SVRT Experiments\SVRT Experiment 3\svrt_images\generated_images\results_problem_10\sample_0_0009.png,,,,,,,,,,,,,,,,,,,,0,3,3,3,0,3,3,3,,,,,,,,,,,,,,j,10,B,B,31,1,Correct!,2.6108954999945126,796.1759594000177,None,796.1759594000177,None,798.8093263999908,None,,,,,121,001,2023-10-10_15h28.20.248,colored_shuffled,2021.2.3,59.99329274768747,
C:\Users\subject\Desktop\SVRT Experiments\SVRT Experiment 3\svrt_images\generated_images\results_problem_10,,,C:\Users\subject\Desktop\SVRT Experiments\SVRT Experiment 3\svrt_images\generated_images\results_problem_18\sample_0_0008.png,C:\Users\subject\Desktop\SVRT Experiments\SVRT Experiment 3\svrt_images\generated_images\results_problem_10\sample_0_0015.png,,,,,,,,,,,,,,,,,,,,0,3,3,3,0,4,4,4,,,,,,,,,,,,,,j,10,B,B,31,1,Correct!,1.2076114999945275,799.8593133999966,None,799.8593133999966,None,801.0926030999981,None,,,,,121,001,2023-10-10_15h28.20.248,colored_shuffled,2021.2.3,59.99329274768747,
C:\Users\subject\Desktop\SVRT Experiments\SVRT Experiment 3\svrt_images\generated_images\results_problem_10,,,C:\Users\subject\Desktop\SVRT Experiments\SVRT Experiment 3\svrt_images\generated_images\results_problem_18\sample_0_0008.png,C:\Users\subject\Desktop\SVRT Experiments\SVRT Experiment 3\svrt_images\generated_images\results_problem_10\sample_0_0012.png,,,,,,,,,,,,,,,,,,,,0,3,3,3,0,5,5,5,,,,,,,,,,,,,,j,10,B,B,31,1,Correct!,0.6361359000438824,802.14260750002,None,802.14260750002,None,802.8092659999966,None,,,,,121,001,2023-10-10_15h28.20.248,colored_shuffled,2021.2.3,59.99329274768747,
C:\Users\subject\Desktop\SVRT Experiments\SVRT Experiment 3\svrt_images\generated_images\results_problem_10,,,C:\Users\subject\Desktop\SVRT Experiments\SVRT Experiment 3\svrt_images\generated_images\results_problem_18\sample_0_0008.png,C:\Users\subject\Desktop\SVRT Experiments\SVRT Experiment 3\svrt_images\generated_images\results_problem_10\sample_0_0007.png,,,,,,,,,,,,,,,,,,,,0,3,3,3,0,6,6,6,,,,,,,,,,,,,,j,10,B,B,31,1,Correct!,0.5349392999778502,803.8759233999881,None,803.8759233999881,None,804.4425922000082,None,,,,,121,001,2023-10-10_15h28.20.248,colored_shuffled,2021.2.3,59.99329274768747,
C:\Users\subject\Desktop\SVRT Experiments\SVRT Experiment 3\svrt_images\generated_images\results_problem_10,,,C:\Users\subject\Desktop\SVRT Experiments\SVRT Experiment 3\svrt_images\generated_images\results_problem_18\sample_0_0008.png,C:\Users\subject\Desktop\SVRT Experiments\SVRT Experiment 3\svrt_images\generated_images\results_problem_10\sample_1_0015.png,,,,,,,,,,,,,,,,,,,,0,3,3,3,0,7,7,7,,,,,,,,,,,,,,j,10,B,A,31,0,Incorrect!,0.30894989997614175,805.5258975999895,None,805.5258975999895,None,805.8592137999949,None,,,,,121,001,2023-10-10_15h28.20.248,colored_shuffled,2021.2.3,59.99329274768747,
C:\Users\subject\Desktop\SVRT Experiments\SVRT Experiment 3\svrt_images\generated_images\results_problem_10,,,C:\Users\subject\Desktop\SVRT Experiments\SVRT Experiment 3\svrt_images\generated_images\results_problem_18\sample_0_0008.png,C:\Users\subject\Desktop\SVRT Experiments\SVRT Experiment 3\svrt_images\generated_images\results_problem_10\sample_0_0005.png,,,,,,,,,,,,,,,,,,,,0,3,3,3,0,8,8,8,,,,,,,,,,,,,,f,10,A,B,31,0,Incorrect!,0.8995338000240736,806.9592213999713,None,806.9592213999713,None,807.8758446000284,None,,,,,121,001,2023-10-10_15h28.20.248,colored_shuffled,2021.2.3,59.99329274768747,
C:\Users\subject\Desktop\SVRT Experiments\SVRT Experiment 3\svrt_images\generated_images\results_problem_10,,,C:\Users\subject\Desktop\SVRT Experiments\SVRT Experiment 3\svrt_images\generated_images\results_problem_18\sample_0_0008.png,C:\Users\subject\Desktop\SVRT Experiments\SVRT Experiment 3\svrt_images\generated_images\results_problem_10\sample_1_0016.png,,,,,,,,,,,,,,,,,,,,0,3,3,3,0,9,9,9,,,,,,,,,,,,,,j,10,B,A,31,0,Incorrect!,0.2670221999869682,808.9758370000054,None,808.9758370000054,None,809.2758524999954,None,,,,,121,001,2023-10-10_15h28.20.248,colored_shuffled,2021.2.3,59.99329274768747,
C:\Users\subject\Desktop\SVRT Experiments\SVRT Experiment 3\svrt_images\generated_images\results_problem_10,,,C:\Users\subject\Desktop\SVRT Experiments\SVRT Experiment 3\svrt_images\generated_images\results_problem_18\sample_0_0008.png,C:\Users\subject\Desktop\SVRT Experiments\SVRT Experiment 3\svrt_images\generated_images\results_problem_10\sample_1_0005.png,,,,,,,,,,,,,,,,,,,,0,3,3,3,0,10,10,10,,,,,,,,,,,,,,j,10,B,A,31,0,Incorrect!,0.3704112999839708,810.3924759000074,None,810.3924759000074,None,810.7924861999927,None,,,,,121,001,2023-10-10_15h28.20.248,colored_shuffled,2021.2.3,59.99329274768747,
C:\Users\subject\Desktop\SVRT Experiments\SVRT Experiment 3\svrt_images\generated_images\results_problem_10,,,C:\Users\subject\Desktop\SVRT Experiments\SVRT Experiment 3\svrt_images\generated_images\results_problem_18\sample_0_0008.png,C:\Users\subject\Desktop\SVRT Experiments\SVRT Experiment 3\svrt_images\generated_images\results_problem_10\sample_1_0004.png,,,,,,,,,,,,,,,,,,,,0,3,3,3,0,11,11,11,,,,,,,,,,,,,,j,10,B,A,31,0,Incorrect!,1.229105000034906,811.9258066000184,None,811.9258066000184,None,813.1757483999827,None,,,,,121,001,2023-10-10_15h28.20.248,colored_shuffled,2021.2.3,59.99329274768747,
C:\Users\subject\Desktop\SVRT Experiments\SVRT Experiment 3\svrt_images\generated_images\results_problem_10,,,C:\Users\subject\Desktop\SVRT Experiments\SVRT Experiment 3\svrt_images\generated_images\results_problem_18\sample_0_0008.png,C:\Users\subject\Desktop\SVRT Experiments\SVRT Experiment 3\svrt_images\generated_images\results_problem_10\sample_1_0008.png,,,,,,,,,,,,,,,,,,,,0,3,3,3,0,12,12,12,,,,,,,,,,,,,,j,10,B,A,31,0,Incorrect!,1.1409324000123888,814.3257450999808,None,814.3257450999808,None,815.5090160000254,None,,,,,121,001,2023-10-10_15h28.20.248,colored_shuffled,2021.2.3,59.99329274768747,
C:\Users\subject\Desktop\SVRT Experiments\SVRT Experiment 3\svrt_images\generated_images\results_problem_10,,,C:\Users\subject\Desktop\SVRT Experiments\SVRT Experiment 3\svrt_images\generated_images\results_problem_18\sample_0_0008.png,C:\Users\subject\Desktop\SVRT Experiments\SVRT Experiment 3\svrt_images\generated_images\results_problem_10\sample_0_0014.png,,,,,,,,,,,,,,,,,,,,0,3,3,3,0,13,13,13,,,,,,,,,,,,,,j,10,B,B,31,1,Correct!,0.727932800014969,816.6590416000108,None,816.6590416000108,None,817.4090058999718,None,,,,,121,001,2023-10-10_15h28.20.248,colored_shuffled,2021.2.3,59.99329274768747,
C:\Users\subject\Desktop\SVRT Experiments\SVRT Experiment 3\svrt_images\generated_images\results_problem_10,,,C:\Users\subject\Desktop\SVRT Experiments\SVRT Experiment 3\svrt_images\generated_images\results_problem_18\sample_0_0008.png,C:\Users\subject\Desktop\SVRT Experiments\SVRT Experiment 3\svrt_images\generated_images\results_problem_10\sample_1_0011.png,,,,,,,,,,,,,,,,,,,,0,3,3,3,0,14,14,14,,,,,,,,,,,,,,f,10,A,A,31,1,Correct!,4.547034499992151,818.5756885000155,None,818.5756885000155,None,823.1589509000187,None,,,,,121,001,2023-10-10_15h28.20.248,colored_shuffled,2021.2.3,59.99329274768747,
C:\Users\subject\Desktop\SVRT Experiments\SVRT Experiment 3\svrt_images\generated_images\results_problem_10,,,C:\Users\subject\Desktop\SVRT Experiments\SVRT Experiment 3\svrt_images\generated_images\results_problem_18\sample_0_0008.png,C:\Users\subject\Desktop\SVRT Experiments\SVRT Experiment 3\svrt_images\generated_images\results_problem_10\sample_0_0006.png,,,,,,,,,,,,,,,,,,,,0,3,3,3,0,15,15,15,,,,,,,,,,,,,,j,10,B,B,31,1,Correct!,1.0766764000291005,824.3422618000186,None,824.3422618000186,None,825.4588885999983,None,,,,,121,001,2023-10-10_15h28.20.248,colored_shuffled,2021.2.3,59.99329274768747,
C:\Users\subject\Desktop\SVRT Experiments\SVRT Experiment 3\svrt_images\generated_images\results_problem_10,,,C:\Users\subject\Desktop\SVRT Experiments\SVRT Experiment 3\svrt_images\generated_images\results_problem_18\sample_0_0008.png,C:\Users\subject\Desktop\SVRT Experiments\SVRT Experiment 3\svrt_images\generated_images\results_problem_10\sample_0_0010.png,,,,,,,,,,,,,,,,,,,,0,3,3,3,0,16,16,16,,,,,,,,,,,,,,f,10,A,B,31,0,Incorrect!,0.5438405000022613,826.6589090999914,None,826.6589090999914,None,827.2422146999743,None,,,,,121,001,2023-10-10_15h28.20.248,colored_shuffled,2021.2.3,59.99329274768747,
C:\Users\subject\Desktop\SVRT Experiments\SVRT Experiment 3\svrt_images\generated_images\results_problem_10,,,C:\Users\subject\Desktop\SVRT Experiments\SVRT Experiment 3\svrt_images\generated_images\results_problem_18\sample_0_0008.png,C:\Users\subject\Desktop\SVRT Experiments\SVRT Experiment 3\svrt_images\generated_images\results_problem_10\sample_0_0004.png,,,,,,,,,,,,,,,,,,,,0,3,3,3,0,17,17,17,,,,,,,,,,,,,,j,10,B,B,31,1,Correct!,0.7678488999954425,828.458852700016,None,828.458852700016,None,829.2921795999864,None,,,,,121,001,2023-10-10_15h28.20.248,colored_shuffled,2021.2.3,59.99329274768747,
C:\Users\subject\Desktop\SVRT Experiments\SVRT Experiment 3\svrt_images\generated_images\results_problem_10,,,C:\Users\subject\Desktop\SVRT Experiments\SVRT Experiment 3\svrt_images\generated_images\results_problem_18\sample_0_0008.png,C:\Users\subject\Desktop\SVRT Experiments\SVRT Experiment 3\svrt_images\generated_images\results_problem_10\sample_1_0001.png,,,,,,,,,,,,,,,,,,,,0,3,3,3,0,18,18,18,,,,,,,,,,,,,,j,10,B,A,31,0,Incorrect!,0.5252388999797404,830.5255173000041,None,830.5255173000041,None,831.0921689000097,None,,,,,121,001,2023-10-10_15h28.20.248,colored_shuffled,2021.2.3,59.99329274768747,
C:\Users\subject\Desktop\SVRT Experiments\SVRT Experiment 3\svrt_images\generated_images\results_problem_10,,,C:\Users\subject\Desktop\SVRT Experiments\SVRT Experiment 3\svrt_images\generated_images\results_problem_18\sample_0_0008.png,C:\Users\subject\Desktop\SVRT Experiments\SVRT Experiment 3\svrt_images\generated_images\results_problem_10\sample_1_0012.png,,,,,,,,,,,,,,,,,,,,0,3,3,3,0,19,19,19,,,,,,,,,,,,,,j,10,B,A,31,0,Incorrect!,0.7247289000079036,832.3421243000193,None,832.3421243000193,None,833.1087707999977,None,,,,,121,001,2023-10-10_15h28.20.248,colored_shuffled,2021.2.3,59.99329274768747,
C:\Users\subject\Desktop\SVRT Experiments\SVRT Experiment 3\svrt_images\generated_images\results_problem_10,,,C:\Users\subject\Desktop\SVRT Experiments\SVRT Experiment 3\svrt_images\generated_images\results_problem_18\sample_0_0008.png,C:\Users\subject\Desktop\SVRT Experiments\SVRT Experiment 3\svrt_images\generated_images\results_problem_10\sample_1_0003.png,,,,,,,,,,,,,,,,,,,,0,3,3,3,0,20,20,20,,,,,,,,,,,,,,j,10,B,A,31,0,Incorrect!,0.5313202000106685,834.3754262999864,None,834.3754262999864,None,834.9420092999935,None,,,,,121,001,2023-10-10_15h28.20.248,colored_shuffled,2021.2.3,59.99329274768747,
C:\Users\subject\Desktop\SVRT Experiments\SVRT Experiment 3\svrt_images\generated_images\results_problem_10,,,C:\Users\subject\Desktop\SVRT Experiments\SVRT Experiment 3\svrt_images\generated_images\results_problem_18\sample_0_0008.png,C:\Users\subject\Desktop\SVRT Experiments\SVRT Experiment 3\svrt_images\generated_images\results_problem_10\sample_0_0011.png,,,,,,,,,,,,,,,,,,,,0,3,3,3,0,21,21,21,,,,,,,,,,,,,,j,10,B,B,31,1,Correct!,0.6894739999552257,836.2254220999894,None,836.2254220999894,None,836.9420349000138,None,,,,,121,001,2023-10-10_15h28.20.248,colored_shuffled,2021.2.3,59.99329274768747,
C:\Users\subject\Desktop\SVRT Experiments\SVRT Experiment 3\svrt_images\generated_images\results_problem_10,,,C:\Users\subject\Desktop\SVRT Experiments\SVRT Experiment 3\svrt_images\generated_images\results_problem_18\sample_0_0008.png,C:\Users\subject\Desktop\SVRT Experiments\SVRT Experiment 3\svrt_images\generated_images\results_problem_10\sample_1_0002.png,,,,,,,,,,,,,,,,,,,,0,3,3,3,0,22,22,22,,,,,,,,,,,,,,f,10,A,A,31,1,Correct!,0.9128132999758236,838.2420407999889,None,838.2420407999889,None,839.1920331000001,None,,,,,121,001,2023-10-10_15h28.20.248,colored_shuffled,2021.2.3,59.99329274768747,
C:\Users\subject\Desktop\SVRT Experiments\SVRT Experiment 3\svrt_images\generated_images\results_problem_10,,,C:\Users\subject\Desktop\SVRT Experiments\SVRT Experiment 3\svrt_images\generated_images\results_problem_18\sample_0_0008.png,C:\Users\subject\Desktop\SVRT Experiments\SVRT Experiment 3\svrt_images\generated_images\results_problem_10\sample_1_0006.png,,,,,,,,,,,,,,,,,,,,0,3,3,3,0,23,23,23,,,,,,,,,,,,,,j,10,B,A,31,0,Incorrect!,0.7582725000102073,840.5086514999857,None,840.5086514999857,None,841.3253158999723,None,,,,,121,001,2023-10-10_15h28.20.248,colored_shuffled,2021.2.3,59.99329274768747,
C:\Users\subject\Desktop\SVRT Experiments\SVRT Experiment 3\svrt_images\generated_images\results_problem_10,,,C:\Users\subject\Desktop\SVRT Experiments\SVRT Experiment 3\svrt_images\generated_images\results_problem_18\sample_0_0008.png,C:\Users\subject\Desktop\SVRT Experiments\SVRT Experiment 3\svrt_images\generated_images\results_problem_10\sample_1_0010.png,,,,,,,,,,,,,,,,,,,,0,3,3,3,0,24,24,24,,,,,,,,,,,,,,j,10,B,A,31,0,Incorrect!,0.7128082999843173,842.641976599989,None,842.641976599989,None,843.3919579000212,None,,,,,121,001,2023-10-10_15h28.20.248,colored_shuffled,2021.2.3,59.99329274768747,
C:\Users\subject\Desktop\SVRT Experiments\SVRT Experiment 3\svrt_images\generated_images\results_problem_10,,,C:\Users\subject\Desktop\SVRT Experiments\SVRT Experiment 3\svrt_images\generated_images\results_problem_18\sample_0_0008.png,C:\Users\subject\Desktop\SVRT Experiments\SVRT Experiment 3\svrt_images\generated_images\results_problem_10\sample_0_0000.png,,,,,,,,,,,,,,,,,,,,0,3,3,3,0,25,25,25,,,,,,,,,,,,,,j,10,B,B,31,1,Correct!,0.7329404000192881,844.7419543000287,None,844.7419543000287,None,845.4919070000178,None,,,,,121,001,2023-10-10_15h28.20.248,colored_shuffled,2021.2.3,59.99329274768747,
C:\Users\subject\Desktop\SVRT Experiments\SVRT Experiment 3\svrt_images\generated_images\results_problem_10,,,C:\Users\subject\Desktop\SVRT Experiments\SVRT Experiment 3\svrt_images\generated_images\results_problem_18\sample_0_0008.png,C:\Users\subject\Desktop\SVRT Experiments\SVRT Experiment 3\svrt_images\generated_images\results_problem_10\sample_1_0007.png,,,,,,,,,,,,,,,,,,,,0,3,3,3,0,26,26,26,,,,,,,,,,,,,,j,10,B,A,31,0,Incorrect!,1.3367975000292063,846.8418953000219,None,846.8418953000219,None,848.2752066000248,None,,,,,121,001,2023-10-10_15h28.20.248,colored_shuffled,2021.2.3,59.99329274768747,
C:\Users\subject\Desktop\SVRT Experiments\SVRT Experiment 3\svrt_images\generated_images\results_problem_10,,,C:\Users\subject\Desktop\SVRT Experiments\SVRT Experiment 3\svrt_images\generated_images\results_problem_18\sample_0_0008.png,C:\Users\subject\Desktop\SVRT Experiments\SVRT Experiment 3\svrt_images\generated_images\results_problem_10\sample_1_0009.png,,,,,,,,,,,,,,,,,,,,0,3,3,3,0,27,27,27,,,,,,,,,,,,,,j,10,B,A,31,0,Incorrect!,1.1210270000156015,849.6418499000138,None,849.6418499000138,None,850.8251841000165,None,,,,,121,001,2023-10-10_15h28.20.248,colored_shuffled,2021.2.3,59.99329274768747,
C:\Users\subject\Desktop\SVRT Experiments\SVRT Experiment 3\svrt_images\generated_images\results_problem_10,,,C:\Users\subject\Desktop\SVRT Experiments\SVRT Experiment 3\svrt_images\generated_images\results_problem_18\sample_0_0008.png,C:\Users\subject\Desktop\SVRT Experiments\SVRT Experiment 3\svrt_images\generated_images\results_problem_10\sample_0_0013.png,,,,,,,,,,,,,,,,,,,,0,3,3,3,0,28,28,28,,,,,,,,,,,,,,f,10,A,B,31,0,Incorrect!,0.6895822000224143,852.2251479999977,None,852.2251479999977,None,852.9917993000126,None,,,,,121,001,2023-10-10_15h28.20.248,colored_shuffled,2021.2.3,59.99329274768747,
C:\Users\subject\Desktop\SVRT Experiments\SVRT Experiment 3\svrt_images\generated_images\results_problem_10,,,C:\Users\subject\Desktop\SVRT Experiments\SVRT Experiment 3\svrt_images\generated_images\results_problem_18\sample_0_0008.png,C:\Users\subject\Desktop\SVRT Experiments\SVRT Experiment 3\svrt_images\generated_images\results_problem_10\sample_0_0002.png,,,,,,,,,,,,,,,,,,,,0,3,3,3,0,29,29,29,,,,,,,,,,,,,,f,10,A,B,31,0,Incorrect!,0.4344769000308588,854.4084387000185,None,854.4084387000185,None,854.9250591999735,None,,,,,121,001,2023-10-10_15h28.20.248,colored_shuffled,2021.2.3,59.99329274768747,
C:\Users\subject\Desktop\SVRT Experiments\SVRT Experiment 3\svrt_images\generated_images\results_problem_10,,,C:\Users\subject\Desktop\SVRT Experiments\SVRT Experiment 3\svrt_images\generated_images\results_problem_18\sample_0_0008.png,C:\Users\subject\Desktop\SVRT Experiments\SVRT Experiment 3\svrt_images\generated_images\results_problem_10\sample_0_0001.png,,,,,,,,,,,,,,,,,,,,0,3,3,3,0,30,30,30,,,,,,,,,,,,,,j,10,B,B,31,1,Correct!,1.0849795999820344,856.3417645000154,None,856.3417645000154,None,857.4584091000143,None,,,,,121,001,2023-10-10_15h28.20.248,colored_shuffled,2021.2.3,59.99329274768747,
C:\Users\subject\Desktop\SVRT Experiments\SVRT Experiment 3\svrt_images\generated_images\results_problem_10,,,C:\Users\subject\Desktop\SVRT Experiments\SVRT Experiment 3\svrt_images\generated_images\results_problem_18\sample_0_0008.png,C:\Users\subject\Desktop\SVRT Experiments\SVRT Experiment 3\svrt_images\generated_images\results_problem_10\sample_1_0000.png,,,,,,,,,,,,,,,,,,,,0,3,3,3,0,31,31,31,,,,,,,,,,,,,,j,10,B,A,31,0,Incorrect!,0.9512364999973215,858.8917131000198,None,858.8917131000198,None,859.9083379000076,None,,,,,121,001,2023-10-10_15h28.20.248,colored_shuffled,2021.2.3,59.99329274768747,
C:\Users\subject\Desktop\SVRT Experiments\SVRT Experiment 3\svrt_images\generated_images\results_problem_10,,,C:\Users\subject\Desktop\SVRT Experiments\SVRT Experiment 3\svrt_images\generated_images\results_problem_18\sample_0_0008.png,C:\Users\subject\Desktop\SVRT Experiments\SVRT Experiment 3\svrt_images\generated_images\results_problem_10\sample_0_0008.png,,,,,,,,,,,,,,,,,,,,0,3,3,3,0,32,32,32,,,,,,,,,,,,,,f,10,A,B,31,0,Incorrect!,0.3559053000062704,861.3749500000267,None,861.3749500000267,None,861.858339999977,None,,,,,121,001,2023-10-10_15h28.20.248,colored_shuffled,2021.2.3,59.99329274768747,
C:\Users\subject\Desktop\SVRT Experiments\SVRT Experiment 3\svrt_images\generated_images\results_problem_10,,,C:\Users\subject\Desktop\SVRT Experiments\SVRT Experiment 3\svrt_images\generated_images\results_problem_18\sample_0_0008.png,C:\Users\subject\Desktop\SVRT Experiments\SVRT Experiment 3\svrt_images\generated_images\results_problem_10\sample_1_0014.png,,,,,,,,,,,,,,,,,,,,0,3,3,3,0,33,33,33,,,,,,,,,,,,,,j,10,B,A,31,0,Incorrect!,1.5897440999979153,863.3249812999857,None,863.3249812999857,None,864.9749559999909,None,,,,,121,001,2023-10-10_15h28.20.248,colored_shuffled,2021.2.3,59.99329274768747,
C:\Users\subject\Desktop\SVRT Experiments\SVRT Experiment 3\svrt_images\generated_images\results_problem_10,,,C:\Users\subject\Desktop\SVRT Experiments\SVRT Experiment 3\svrt_images\generated_images\results_problem_18\sample_0_0008.png,,,,,,,,,,,,,,,,,,,,,0,3,3,3,0,17,17,17,,,,,,,,,,,,,,,,,,,,,,,,,,,,865.9749145000242,865.9749145000242,space,1.0278440000256523,121,001,2023-10-10_15h28.20.248,colored_shuffled,2021.2.3,59.99329274768747,
C:\Users\subject\Desktop\SVRT Experiments\SVRT Experiment 3\svrt_images\generated_images\results_problem_4,,,C:\Users\subject\Desktop\SVRT Experiments\SVRT Experiment 3\svrt_images\generated_images\results_problem_18\sample_0_0008.png,,C:\Users\subject\Desktop\SVRT Experiments\SVRT Experiment 3\svrt_images\generated_images\results_problem_4\sample_0_0006.png,,,,,,,,,,,,,,,,,,,0,4,4,4,0,0,0,0,,,,,,,,,,,,,,j,4,B,B,31,1,Correct!,11.505820799968205,867.0248969999957,None,867.0248969999957,None,878.5579982000054,None,,,,,121,001,2023-10-10_15h28.20.248,colored_shuffled,2021.2.3,59.99329274768747,
C:\Users\subject\Desktop\SVRT Experiments\SVRT Experiment 3\svrt_images\generated_images\results_problem_4,,,C:\Users\subject\Desktop\SVRT Experiments\SVRT Experiment 3\svrt_images\generated_images\results_problem_18\sample_0_0008.png,,C:\Users\subject\Desktop\SVRT Experiments\SVRT Experiment 3\svrt_images\generated_images\results_problem_4\sample_0_0007.png,,,,,,,,,,,,,,,,,,,0,4,4,4,0,1,1,1,,,,,,,,,,,,,,j,4,B,B,31,1,Correct!,1.284000699990429,879.5747164000059,None,879.5747164000059,None,880.8913274999941,None,,,,,121,001,2023-10-10_15h28.20.248,colored_shuffled,2021.2.3,59.99329274768747,
C:\Users\subject\Desktop\SVRT Experiments\SVRT Experiment 3\svrt_images\generated_images\results_problem_4,,,C:\Users\subject\Desktop\SVRT Experiments\SVRT Experiment 3\svrt_images\generated_images\results_problem_18\sample_0_0008.png,,C:\Users\subject\Desktop\SVRT Experiments\SVRT Experiment 3\svrt_images\generated_images\results_problem_4\sample_0_0003.png,,,,,,,,,,,,,,,,,,,0,4,4,4,0,2,2,2,,,,,,,,,,,,,,j,4,B,B,31,1,Correct!,0.4387396000092849,881.9080345000257,None,881.9080345000257,None,882.3746590000228,None,,,,,121,001,2023-10-10_15h28.20.248,colored_shuffled,2021.2.3,59.99329274768747,
C:\Users\subject\Desktop\SVRT Experiments\SVRT Experiment 3\svrt_images\generated_images\results_problem_4,,,C:\Users\subject\Desktop\SVRT Experiments\SVRT Experiment 3\svrt_images\generated_images\results_problem_18\sample_0_0008.png,,C:\Users\subject\Desktop\SVRT Experiments\SVRT Experiment 3\svrt_images\generated_images\results_problem_4\sample_0_0010.png,,,,,,,,,,,,,,,,,,,0,4,4,4,0,3,3,3,,,,,,,,,,,,,,j,4,B,B,31,1,Correct!,0.42673410003772005,883.4079890000285,None,883.4079890000285,None,883.8579827999929,None,,,,,121,001,2023-10-10_15h28.20.248,colored_shuffled,2021.2.3,59.99329274768747,
C:\Users\subject\Desktop\SVRT Experiments\SVRT Experiment 3\svrt_images\generated_images\results_problem_4,,,C:\Users\subject\Desktop\SVRT Experiments\SVRT Experiment 3\svrt_images\generated_images\results_problem_18\sample_0_0008.png,,C:\Users\subject\Desktop\SVRT Experiments\SVRT Experiment 3\svrt_images\generated_images\results_problem_4\sample_1_0011.png,,,,,,,,,,,,,,,,,,,0,4,4,4,0,4,4,4,,,,,,,,,,,,,,j,4,B,A,31,0,Incorrect!,0.630749800009653,884.9079917999916,None,884.9079917999916,None,885.557947000023,None,,,,,121,001,2023-10-10_15h28.20.248,colored_shuffled,2021.2.3,59.99329274768747,
C:\Users\subject\Desktop\SVRT Experiments\SVRT Experiment 3\svrt_images\generated_images\results_problem_4,,,C:\Users\subject\Desktop\SVRT Experiments\SVRT Experiment 3\svrt_images\generated_images\results_problem_18\sample_0_0008.png,,C:\Users\subject\Desktop\SVRT Experiments\SVRT Experiment 3\svrt_images\generated_images\results_problem_4\sample_1_0007.png,,,,,,,,,,,,,,,,,,,0,4,4,4,0,5,5,5,,,,,,,,,,,,,,j,4,B,A,31,0,Incorrect!,0.3467999999993481,886.6078897999832,None,886.6078897999832,None,886.9745896999957,None,,,,,121,001,2023-10-10_15h28.20.248,colored_shuffled,2021.2.3,59.99329274768747,
C:\Users\subject\Desktop\SVRT Experiments\SVRT Experiment 3\svrt_images\generated_images\results_problem_4,,,C:\Users\subject\Desktop\SVRT Experiments\SVRT Experiment 3\svrt_images\generated_images\results_problem_18\sample_0_0008.png,,C:\Users\subject\Desktop\SVRT Experiments\SVRT Experiment 3\svrt_images\generated_images\results_problem_4\sample_1_0015.png,,,,,,,,,,,,,,,,,,,0,4,4,4,0,6,6,6,,,,,,,,,,,,,,f,4,A,A,31,1,Correct!,0.9615755000268109,888.0412201000145,None,888.0412201000145,None,889.0245321000111,None,,,,,121,001,2023-10-10_15h28.20.248,colored_shuffled,2021.2.3,59.99329274768747,
C:\Users\subject\Desktop\SVRT Experiments\SVRT Experiment 3\svrt_images\generated_images\results_problem_4,,,C:\Users\subject\Desktop\SVRT Experiments\SVRT Experiment 3\svrt_images\generated_images\results_problem_18\sample_0_0008.png,,C:\Users\subject\Desktop\SVRT Experiments\SVRT Experiment 3\svrt_images\generated_images\results_problem_4\sample_1_0012.png,,,,,,,,,,,,,,,,,,,0,4,4,4,0,7,7,7,,,,,,,,,,,,,,j,4,B,A,31,0,Incorrect!,0.42293529998278245,890.1078816999798,None,890.1078816999798,None,890.5578647999791,None,,,,,121,001,2023-10-10_15h28.20.248,colored_shuffled,2021.2.3,59.99329274768747,
C:\Users\subject\Desktop\SVRT Experiments\SVRT Experiment 3\svrt_images\generated_images\results_problem_4,,,C:\Users\subject\Desktop\SVRT Experiments\SVRT Experiment 3\svrt_images\generated_images\results_problem_18\sample_0_0008.png,,C:\Users\subject\Desktop\SVRT Experiments\SVRT Experiment 3\svrt_images\generated_images\results_problem_4\sample_1_0008.png,,,,,,,,,,,,,,,,,,,0,4,4,4,0,8,8,8,,,,,,,,,,,,,,j,4,B,A,31,0,Incorrect!,0.47285160003229976,891.6578566000098,None,891.6578566000098,None,892.1578461999889,None,,,,,121,001,2023-10-10_15h28.20.248,colored_shuffled,2021.2.3,59.99329274768747,
C:\Users\subject\Desktop\SVRT Experiments\SVRT Experiment 3\svrt_images\generated_images\results_problem_4,,,C:\Users\subject\Desktop\SVRT Experiments\SVRT Experiment 3\svrt_images\generated_images\results_problem_18\sample_0_0008.png,,C:\Users\subject\Desktop\SVRT Experiments\SVRT Experiment 3\svrt_images\generated_images\results_problem_4\sample_1_0013.png,,,,,,,,,,,,,,,,,,,0,4,4,4,0,9,9,9,,,,,,,,,,,,,,f,4,A,A,31,1,Correct!,0.4808292000088841,893.2578450000146,None,893.2578450000146,None,893.7577982000075,None,,,,,121,001,2023-10-10_15h28.20.248,colored_shuffled,2021.2.3,59.99329274768747,
C:\Users\subject\Desktop\SVRT Experiments\SVRT Experiment 3\svrt_images\generated_images\results_problem_4,,,C:\Users\subject\Desktop\SVRT Experiments\SVRT Experiment 3\svrt_images\generated_images\results_problem_18\sample_0_0008.png,,C:\Users\subject\Desktop\SVRT Experiments\SVRT Experiment 3\svrt_images\generated_images\results_problem_4\sample_0_0011.png,,,,,,,,,,,,,,,,,,,0,4,4,4,0,10,10,10,,,,,,,,,,,,,,j,4,B,B,31,1,Correct!,0.7283698000246659,894.8744698999799,None,894.8744698999799,None,895.6244774999795,None,,,,,121,001,2023-10-10_15h28.20.248,colored_shuffled,2021.2.3,59.99329274768747,
C:\Users\subject\Desktop\SVRT Experiments\SVRT Experiment 3\svrt_images\generated_images\results_problem_4,,,C:\Users\subject\Desktop\SVRT Experiments\SVRT Experiment 3\svrt_images\generated_images\results_problem_18\sample_0_0008.png,,C:\Users\subject\Desktop\SVRT Experiments\SVRT Experiment 3\svrt_images\generated_images\results_problem_4\sample_1_0001.png,,,,,,,,,,,,,,,,,,,0,4,4,4,0,11,11,11,,,,,,,,,,,,,,j,4,B,A,31,0,Incorrect!,1.0289810000103898,896.7577882999904,None,896.7577882999904,None,897.8077686000033,None,,,,,121,001,2023-10-10_15h28.20.248,colored_shuffled,2021.2.3,59.99329274768747,
C:\Users\subject\Desktop\SVRT Experiments\SVRT Experiment 3\svrt_images\generated_images\results_problem_4,,,C:\Users\subject\Desktop\SVRT Experiments\SVRT Experiment 3\svrt_images\generated_images\results_problem_18\sample_0_0008.png,,C:\Users\subject\Desktop\SVRT Experiments\SVRT Experiment 3\svrt_images\generated_images\results_problem_4\sample_0_0001.png,,,,,,,,,,,,,,,,,,,0,4,4,4,0,12,12,12,,,,,,,,,,,,,,j,4,B,B,31,1,Correct!,0.5970108999754302,898.9577368000173,None,898.9577368000173,None,899.5743786999956,None,,,,,121,001,2023-10-10_15h28.20.248,colored_shuffled,2021.2.3,59.99329274768747,
C:\Users\subject\Desktop\SVRT Experiments\SVRT Experiment 3\svrt_images\generated_images\results_problem_4,,,C:\Users\subject\Desktop\SVRT Experiments\SVRT Experiment 3\svrt_images\generated_images\results_problem_18\sample_0_0008.png,,C:\Users\subject\Desktop\SVRT Experiments\SVRT Experiment 3\svrt_images\generated_images\results_problem_4\sample_0_0005.png,,,,,,,,,,,,,,,,,,,0,4,4,4,0,13,13,13,,,,,,,,,,,,,,j,4,B,B,31,1,Correct!,0.4376708000199869,900.7410386999836,None,900.7410386999836,None,901.2243447999936,None,,,,,121,001,2023-10-10_15h28.20.248,colored_shuffled,2021.2.3,59.99329274768747,
C:\Users\subject\Desktop\SVRT Experiments\SVRT Experiment 3\svrt_images\generated_images\results_problem_4,,,C:\Users\subject\Desktop\SVRT Experiments\SVRT Experiment 3\svrt_images\generated_images\results_problem_18\sample_0_0008.png,,C:\Users\subject\Desktop\SVRT Experiments\SVRT Experiment 3\svrt_images\generated_images\results_problem_4\sample_0_0009.png,,,,,,,,,,,,,,,,,,,0,4,4,4,0,14,14,14,,,,,,,,,,,,,,j,4,B,B,31,1,Correct!,0.45104419998824596,902.407687400002,None,902.407687400002,None,902.8909340000246,None,,,,,121,001,2023-10-10_15h28.20.248,colored_shuffled,2021.2.3,59.99329274768747,
C:\Users\subject\Desktop\SVRT Experiments\SVRT Experiment 3\svrt_images\generated_images\results_problem_4,,,C:\Users\subject\Desktop\SVRT Experiments\SVRT Experiment 3\svrt_images\generated_images\results_problem_18\sample_0_0008.png,,C:\Users\subject\Desktop\SVRT Experiments\SVRT Experiment 3\svrt_images\generated_images\results_problem_4\sample_1_0010.png,,,,,,,,,,,,,,,,,,,0,4,4,4,0,15,15,15,,,,,,,,,,,,,,j,4,B,A,31,0,Incorrect!,0.3125472000101581,904.0743079999811,None,904.0743079999811,None,904.4242959999829,None,,,,,121,001,2023-10-10_15h28.20.248,colored_shuffled,2021.2.3,59.99329274768747,
C:\Users\subject\Desktop\SVRT Experiments\SVRT Experiment 3\svrt_images\generated_images\results_problem_4,,,C:\Users\subject\Desktop\SVRT Experiments\SVRT Experiment 3\svrt_images\generated_images\results_problem_18\sample_0_0008.png,,C:\Users\subject\Desktop\SVRT Experiments\SVRT Experiment 3\svrt_images\generated_images\results_problem_4\sample_0_0008.png,,,,,,,,,,,,,,,,,,,0,4,4,4,0,16,16,16,,,,,,,,,,,,,,j,4,B,B,31,1,Correct!,0.38650959997903556,905.6243252999848,None,905.6243252999848,None,906.0409788999823,None,,,,,121,001,2023-10-10_15h28.20.248,colored_shuffled,2021.2.3,59.99329274768747,
C:\Users\subject\Desktop\SVRT Experiments\SVRT Experiment 3\svrt_images\generated_images\results_problem_4,,,C:\Users\subject\Desktop\SVRT Experiments\SVRT Experiment 3\svrt_images\generated_images\results_problem_18\sample_0_0008.png,,C:\Users\subject\Desktop\SVRT Experiments\SVRT Experiment 3\svrt_images\generated_images\results_problem_4\sample_1_0006.png,,,,,,,,,,,,,,,,,,,0,4,4,4,0,17,17,17,,,,,,,,,,,,,,j,4,B,A,31,0,Incorrect!,0.8091190999839455,907.2576300000073,None,907.2576300000073,None,908.0909268999822,None,,,,,121,001,2023-10-10_15h28.20.248,colored_shuffled,2021.2.3,59.99329274768747,
C:\Users\subject\Desktop\SVRT Experiments\SVRT Experiment 3\svrt_images\generated_images\results_problem_4,,,C:\Users\subject\Desktop\SVRT Experiments\SVRT Experiment 3\svrt_images\generated_images\results_problem_18\sample_0_0008.png,,C:\Users\subject\Desktop\SVRT Experiments\SVRT Experiment 3\svrt_images\generated_images\results_problem_4\sample_0_0004.png,,,,,,,,,,,,,,,,,,,0,4,4,4,0,18,18,18,,,,,,,,,,,,,,j,4,B,B,31,1,Correct!,0.6465969000128098,909.3242433000123,None,909.3242433000123,None,909.9909058000194,None,,,,,121,001,2023-10-10_15h28.20.248,colored_shuffled,2021.2.3,59.99329274768747,
C:\Users\subject\Desktop\SVRT Experiments\SVRT Experiment 3\svrt_images\generated_images\results_problem_4,,,C:\Users\subject\Desktop\SVRT Experiments\SVRT Experiment 3\svrt_images\generated_images\results_problem_18\sample_0_0008.png,,C:\Users\subject\Desktop\SVRT Experiments\SVRT Experiment 3\svrt_images\generated_images\results_problem_4\sample_0_0012.png,,,,,,,,,,,,,,,,,,,0,4,4,4,0,19,19,19,,,,,,,,,,,,,,j,4,B,B,31,1,Correct!,0.7058642000192776,911.2408842999721,None,911.2408842999721,None,912.0075397000182,None,,,,,121,001,2023-10-10_15h28.20.248,colored_shuffled,2021.2.3,59.99329274768747,
C:\Users\subject\Desktop\SVRT Experiments\SVRT Experiment 3\svrt_images\generated_images\results_problem_4,,,C:\Users\subject\Desktop\SVRT Experiments\SVRT Experiment 3\svrt_images\generated_images\results_problem_18\sample_0_0008.png,,C:\Users\subject\Desktop\SVRT Experiments\SVRT Experiment 3\svrt_images\generated_images\results_problem_4\sample_1_0005.png,,,,,,,,,,,,,,,,,,,0,4,4,4,0,20,20,20,,,,,,,,,,,,,,j,4,B,A,31,0,Incorrect!,0.8167375000193715,913.2741914999788,None,913.2741914999788,None,914.1408093000064,None,,,,,121,001,2023-10-10_15h28.20.248,colored_shuffled,2021.2.3,59.99329274768747,
C:\Users\subject\Desktop\SVRT Experiments\SVRT Experiment 3\svrt_images\generated_images\results_problem_4,,,C:\Users\subject\Desktop\SVRT Experiments\SVRT Experiment 3\svrt_images\generated_images\results_problem_18\sample_0_0008.png,,C:\Users\subject\Desktop\SVRT Experiments\SVRT Experiment 3\svrt_images\generated_images\results_problem_4\sample_0_0000.png,,,,,,,,,,,,,,,,,,,0,4,4,4,0,21,21,21,,,,,,,,,,,,,,j,4,B,B,31,1,Correct!,0.602602900005877,915.4241518999916,None,915.4241518999916,None,916.0907788000186,None,,,,,121,001,2023-10-10_15h28.20.248,colored_shuffled,2021.2.3,59.99329274768747,
C:\Users\subject\Desktop\SVRT Experiments\SVRT Experiment 3\svrt_images\generated_images\results_problem_4,,,C:\Users\subject\Desktop\SVRT Experiments\SVRT Experiment 3\svrt_images\generated_images\results_problem_18\sample_0_0008.png,,C:\Users\subject\Desktop\SVRT Experiments\SVRT Experiment 3\svrt_images\generated_images\results_problem_4\sample_0_0013.png,,,,,,,,,,,,,,,,,,,0,4,4,4,0,22,22,22,,,,,,,,,,,,,,j,4,B,B,31,1,Correct!,0.675977699982468,917.3907839999883,None,917.3907839999883,None,918.1407420000178,None,,,,,121,001,2023-10-10_15h28.20.248,colored_shuffled,2021.2.3,59.99329274768747,
C:\Users\subject\Desktop\SVRT Experiments\SVRT Experiment 3\svrt_images\generated_images\results_problem_4,,,C:\Users\subject\Desktop\SVRT Experiments\SVRT Experiment 3\svrt_images\generated_images\results_problem_18\sample_0_0008.png,,C:\Users\subject\Desktop\SVRT Experiments\SVRT Experiment 3\svrt_images\generated_images\results_problem_4\sample_1_0014.png,,,,,,,,,,,,,,,,,,,0,4,4,4,0,23,23,23,,,,,,,,,,,,,,j,4,B,A,31,0,Incorrect!,0.7212595000164583,919.4574374000076,None,919.4574374000076,None,920.2074396000244,None,,,,,121,001,2023-10-10_15h28.20.248,colored_shuffled,2021.2.3,59.99329274768747,
C:\Users\subject\Desktop\SVRT Experiments\SVRT Experiment 3\svrt_images\generated_images\results_problem_4,,,C:\Users\subject\Desktop\SVRT Experiments\SVRT Experiment 3\svrt_images\generated_images\results_problem_18\sample_0_0008.png,,C:\Users\subject\Desktop\SVRT Experiments\SVRT Experiment 3\svrt_images\generated_images\results_problem_4\sample_1_0003.png,,,,,,,,,,,,,,,,,,,0,4,4,4,0,24,24,24,,,,,,,,,,,,,,f,4,A,A,31,1,Correct!,1.0700559000251815,921.5407299000071,None,921.5407299000071,None,922.6906682000263,None,,,,,121,001,2023-10-10_15h28.20.248,colored_shuffled,2021.2.3,59.99329274768747,
C:\Users\subject\Desktop\SVRT Experiments\SVRT Experiment 3\svrt_images\generated_images\results_problem_4,,,C:\Users\subject\Desktop\SVRT Experiments\SVRT Experiment 3\svrt_images\generated_images\results_problem_18\sample_0_0008.png,,C:\Users\subject\Desktop\SVRT Experiments\SVRT Experiment 3\svrt_images\generated_images\results_problem_4\sample_0_0014.png,,,,,,,,,,,,,,,,,,,0,4,4,4,0,25,25,25,,,,,,,,,,,,,,j,4,B,B,31,1,Correct!,0.6820911999675445,924.0406953999773,None,924.0406953999773,None,924.7906544000143,None,,,,,121,001,2023-10-10_15h28.20.248,colored_shuffled,2021.2.3,59.99329274768747,
C:\Users\subject\Desktop\SVRT Experiments\SVRT Experiment 3\svrt_images\generated_images\results_problem_4,,,C:\Users\subject\Desktop\SVRT Experiments\SVRT Experiment 3\svrt_images\generated_images\results_problem_18\sample_0_0008.png,,C:\Users\subject\Desktop\SVRT Experiments\SVRT Experiment 3\svrt_images\generated_images\results_problem_4\sample_1_0000.png,,,,,,,,,,,,,,,,,,,0,4,4,4,0,26,26,26,,,,,,,,,,,,,,f,4,A,A,31,1,Correct!,0.45347889995900914,926.1573111999896,None,926.1573111999896,None,926.6739732000278,None,,,,,121,001,2023-10-10_15h28.20.248,colored_shuffled,2021.2.3,59.99329274768747,
C:\Users\subject\Desktop\SVRT Experiments\SVRT Experiment 3\svrt_images\generated_images\results_problem_4,,,C:\Users\subject\Desktop\SVRT Experiments\SVRT Experiment 3\svrt_images\generated_images\results_problem_18\sample_0_0008.png,,C:\Users\subject\Desktop\SVRT Experiments\SVRT Experiment 3\svrt_images\generated_images\results_problem_4\sample_0_0015.png,,,,,,,,,,,,,,,,,,,0,4,4,4,0,27,27,27,,,,,,,,,,,,,,j,4,B,B,31,1,Correct!,0.39416460000211373,928.0406162000145,None,928.0406162000145,None,928.4739299999783,None,,,,,121,001,2023-10-10_15h28.20.248,colored_shuffled,2021.2.3,59.99329274768747,
C:\Users\subject\Desktop\SVRT Experiments\SVRT Experiment 3\svrt_images\generated_images\results_problem_4,,,C:\Users\subject\Desktop\SVRT Experiments\SVRT Experiment 3\svrt_images\generated_images\results_problem_18\sample_0_0008.png,,C:\Users\subject\Desktop\SVRT Experiments\SVRT Experiment 3\svrt_images\generated_images\results_problem_4\sample_0_0002.png,,,,,,,,,,,,,,,,,,,0,4,4,4,0,28,28,28,,,,,,,,,,,,,,j,4,B,B,31,1,Correct!,0.6968598999665119,929.873928999994,None,929.873928999994,None,930.6405905000283,None,,,,,121,001,2023-10-10_15h28.20.248,colored_shuffled,2021.2.3,59.99329274768747,
C:\Users\subject\Desktop\SVRT Experiments\SVRT Experiment 3\svrt_images\generated_images\results_problem_4,,,C:\Users\subject\Desktop\SVRT Experiments\SVRT Experiment 3\svrt_images\generated_images\results_problem_18\sample_0_0008.png,,C:\Users\subject\Desktop\SVRT Experiments\SVRT Experiment 3\svrt_images\generated_images\results_problem_4\sample_1_0016.png,,,,,,,,,,,,,,,,,,,0,4,4,4,0,29,29,29,,,,,,,,,,,,,,j,4,B,A,31,0,Incorrect!,0.8095611000317149,932.0572332000011,None,932.0572332000011,None,932.973890400026,None,,,,,121,001,2023-10-10_15h28.20.248,colored_shuffled,2021.2.3,59.99329274768747,
C:\Users\subject\Desktop\SVRT Experiments\SVRT Experiment 3\svrt_images\generated_images\results_problem_4,,,C:\Users\subject\Desktop\SVRT Experiments\SVRT Experiment 3\svrt_images\generated_images\results_problem_18\sample_0_0008.png,,C:\Users\subject\Desktop\SVRT Experiments\SVRT Experiment 3\svrt_images\generated_images\results_problem_4\sample_1_0004.png,,,,,,,,,,,,,,,,,,,0,4,4,4,0,30,30,30,,,,,,,,,,,,,,j,4,B,A,31,0,Incorrect!,0.6515624999883585,934.4071801999817,None,934.4071801999817,None,935.1238310000044,None,,,,,121,001,2023-10-10_15h28.20.248,colored_shuffled,2021.2.3,59.99329274768747,
C:\Users\subject\Desktop\SVRT Experiments\SVRT Experiment 3\svrt_images\generated_images\results_problem_4,,,C:\Users\subject\Desktop\SVRT Experiments\SVRT Experiment 3\svrt_images\generated_images\results_problem_18\sample_0_0008.png,,C:\Users\subject\Desktop\SVRT Experiments\SVRT Experiment 3\svrt_images\generated_images\results_problem_4\sample_1_0002.png,,,,,,,,,,,,,,,,,,,0,4,4,4,0,31,31,31,,,,,,,,,,,,,,j,4,B,A,31,0,Incorrect!,0.8296229999978095,936.5571423000074,None,936.5571423000074,None,937.4737881000037,None,,,,,121,001,2023-10-10_15h28.20.248,colored_shuffled,2021.2.3,59.99329274768747,
C:\Users\subject\Desktop\SVRT Experiments\SVRT Experiment 3\svrt_images\generated_images\results_problem_4,,,C:\Users\subject\Desktop\SVRT Experiments\SVRT Experiment 3\svrt_images\generated_images\results_problem_18\sample_0_0008.png,,C:\Users\subject\Desktop\SVRT Experiments\SVRT Experiment 3\svrt_images\generated_images\results_problem_4\sample_0_0016.png,,,,,,,,,,,,,,,,,,,0,4,4,4,0,32,32,32,,,,,,,,,,,,,,j,4,B,B,31,1,Correct!,0.6005073999986053,939.0983710999717,None,939.0983710999717,None,939.8070806000032,None,,,,,121,001,2023-10-10_15h28.20.248,colored_shuffled,2021.2.3,59.99329274768747,
C:\Users\subject\Desktop\SVRT Experiments\SVRT Experiment 3\svrt_images\generated_images\results_problem_4,,,C:\Users\subject\Desktop\SVRT Experiments\SVRT Experiment 3\svrt_images\generated_images\results_problem_18\sample_0_0008.png,,C:\Users\subject\Desktop\SVRT Experiments\SVRT Experiment 3\svrt_images\generated_images\results_problem_4\sample_1_0009.png,,,,,,,,,,,,,,,,,,,0,4,4,4,0,33,33,33,,,,,,,,,,,,,,j,4,B,A,31,0,Incorrect!,0.8242993999738246,941.2904008000041,None,941.2904008000041,None,942.2403738999856,None,,,,,121,001,2023-10-10_15h28.20.248,colored_shuffled,2021.2.3,59.99329274768747,
C:\Users\subject\Desktop\SVRT Experiments\SVRT Experiment 3\svrt_images\generated_images\results_problem_4,,,C:\Users\subject\Desktop\SVRT Experiments\SVRT Experiment 3\svrt_images\generated_images\results_problem_18\sample_0_0008.png,,,,,,,,,,,,,,,,,,,,,0,4,4,4,0,17,17,17,,,,,,,,,,,,,,,,,,,,,,,,,,,,943.2403826999944,943.2403826999944,space,0.9383027000003494,121,001,2023-10-10_15h28.20.248,colored_shuffled,2021.2.3,59.99329274768747,
C:\Users\subject\Desktop\SVRT Experiments\SVRT Experiment 3\svrt_images\generated_images\results_problem_14,,,C:\Users\subject\Desktop\SVRT Experiments\SVRT Experiment 3\svrt_images\generated_images\results_problem_18\sample_0_0008.png,,,C:\Users\subject\Desktop\SVRT Experiments\SVRT Experiment 3\svrt_images\generated_images\results_problem_14\sample_1_0001.png,,,,,,,,,,,,,,,,,,0,5,5,5,0,0,0,0,,,,,,,,,,,,,,j,14,B,A,31,0,Incorrect!,7.851631700003054,944.2070022000116,None,944.2070022000116,None,952.0902221000288,None,,,,,121,001,2023-10-10_15h28.20.248,colored_shuffled,2021.2.3,59.99329274768747,
C:\Users\subject\Desktop\SVRT Experiments\SVRT Experiment 3\svrt_images\generated_images\results_problem_14,,,C:\Users\subject\Desktop\SVRT Experiments\SVRT Experiment 3\svrt_images\generated_images\results_problem_18\sample_0_0008.png,,,C:\Users\subject\Desktop\SVRT Experiments\SVRT Experiment 3\svrt_images\generated_images\results_problem_14\sample_0_0016.png,,,,,,,,,,,,,,,,,,0,5,5,5,0,1,1,1,,,,,,,,,,,,,,j,14,B,B,31,1,Correct!,1.7598816000390798,953.106878200022,None,953.106878200022,None,954.8902015999774,None,,,,,121,001,2023-10-10_15h28.20.248,colored_shuffled,2021.2.3,59.99329274768747,
C:\Users\subject\Desktop\SVRT Experiments\SVRT Experiment 3\svrt_images\generated_images\results_problem_14,,,C:\Users\subject\Desktop\SVRT Experiments\SVRT Experiment 3\svrt_images\generated_images\results_problem_18\sample_0_0008.png,,,C:\Users\subject\Desktop\SVRT Experiments\SVRT Experiment 3\svrt_images\generated_images\results_problem_14\sample_1_0003.png,,,,,,,,,,,,,,,,,,0,5,5,5,0,2,2,2,,,,,,,,,,,,,,j,14,B,A,31,0,Incorrect!,0.9518280000193045,955.9068214999861,None,955.9068214999861,None,956.8901886999956,None,,,,,121,001,2023-10-10_15h28.20.248,colored_shuffled,2021.2.3,59.99329274768747,
C:\Users\subject\Desktop\SVRT Experiments\SVRT Experiment 3\svrt_images\generated_images\results_problem_14,,,C:\Users\subject\Desktop\SVRT Experiments\SVRT Experiment 3\svrt_images\generated_images\results_problem_18\sample_0_0008.png,,,C:\Users\subject\Desktop\SVRT Experiments\SVRT Experiment 3\svrt_images\generated_images\results_problem_14\sample_0_0013.png,,,,,,,,,,,,,,,,,,0,5,5,5,0,3,3,3,,,,,,,,,,,,,,j,14,B,B,31,1,Correct!,1.287216000026092,957.9234744000132,None,957.9234744000132,None,959.2401086000027,None,,,,,121,001,2023-10-10_15h28.20.248,colored_shuffled,2021.2.3,59.99329274768747,
C:\Users\subject\Desktop\SVRT Experiments\SVRT Experiment 3\svrt_images\generated_images\results_problem_14,,,C:\Users\subject\Desktop\SVRT Experiments\SVRT Experiment 3\svrt_images\generated_images\results_problem_18\sample_0_0008.png,,,C:\Users\subject\Desktop\SVRT Experiments\SVRT Experiment 3\svrt_images\generated_images\results_problem_14\sample_0_0012.png,,,,,,,,,,,,,,,,,,0,5,5,5,0,4,4,4,,,,,,,,,,,,,,f,14,A,B,31,0,Incorrect!,0.8086611999897286,960.2900907000294,None,960.2900907000294,None,961.1234309999854,None,,,,,121,001,2023-10-10_15h28.20.248,colored_shuffled,2021.2.3,59.99329274768747,
C:\Users\subject\Desktop\SVRT Experiments\SVRT Experiment 3\svrt_images\generated_images\results_problem_14,,,C:\Users\subject\Desktop\SVRT Experiments\SVRT Experiment 3\svrt_images\generated_images\results_problem_18\sample_0_0008.png,,,C:\Users\subject\Desktop\SVRT Experiments\SVRT Experiment 3\svrt_images\generated_images\results_problem_14\sample_1_0014.png,,,,,,,,,,,,,,,,,,0,5,5,5,0,5,5,5,,,,,,,,,,,,,,j,14,B,A,31,0,Incorrect!,0.6212443000404164,962.1734174999874,None,962.1734174999874,None,962.8233704000013,None,,,,,121,001,2023-10-10_15h28.20.248,colored_shuffled,2021.2.3,59.99329274768747,
C:\Users\subject\Desktop\SVRT Experiments\SVRT Experiment 3\svrt_images\generated_images\results_problem_14,,,C:\Users\subject\Desktop\SVRT Experiments\SVRT Experiment 3\svrt_images\generated_images\results_problem_18\sample_0_0008.png,,,C:\Users\subject\Desktop\SVRT Experiments\SVRT Experiment 3\svrt_images\generated_images\results_problem_14\sample_0_0009.png,,,,,,,,,,,,,,,,,,0,5,5,5,0,6,6,6,,,,,,,,,,,,,,f,14,A,B,31,0,Incorrect!,0.432675999996718,963.890015300014,None,963.890015300014,None,964.3399965999997,None,,,,,121,001,2023-10-10_15h28.20.248,colored_shuffled,2021.2.3,59.99329274768747,
C:\Users\subject\Desktop\SVRT Experiments\SVRT Experiment 3\svrt_images\generated_images\results_problem_14,,,C:\Users\subject\Desktop\SVRT Experiments\SVRT Experiment 3\svrt_images\generated_images\results_problem_18\sample_0_0008.png,,,C:\Users\subject\Desktop\SVRT Experiments\SVRT Experiment 3\svrt_images\generated_images\results_problem_14\sample_0_0007.png,,,,,,,,,,,,,,,,,,0,5,5,5,0,7,7,7,,,,,,,,,,,,,,j,14,B,B,31,1,Correct!,0.24325530003989115,965.4233498999965,None,965.4233498999965,None,965.6899507999769,None,,,,,121,001,2023-10-10_15h28.20.248,colored_shuffled,2021.2.3,59.99329274768747,
C:\Users\subject\Desktop\SVRT Experiments\SVRT Experiment 3\svrt_images\generated_images\results_problem_14,,,C:\Users\subject\Desktop\SVRT Experiments\SVRT Experiment 3\svrt_images\generated_images\results_problem_18\sample_0_0008.png,,,C:\Users\subject\Desktop\SVRT Experiments\SVRT Experiment 3\svrt_images\generated_images\results_problem_14\sample_0_0004.png,,,,,,,,,,,,,,,,,,0,5,5,5,0,8,8,8,,,,,,,,,,,,,,f,14,A,B,31,0,Incorrect!,0.2927901999792084,966.7900260000024,None,966.7900260000024,None,967.1066723000258,None,,,,,121,001,2023-10-10_15h28.20.248,colored_shuffled,2021.2.3,59.99329274768747,
C:\Users\subject\Desktop\SVRT Experiments\SVRT Experiment 3\svrt_images\generated_images\results_problem_14,,,C:\Users\subject\Desktop\SVRT Experiments\SVRT Experiment 3\svrt_images\generated_images\results_problem_18\sample_0_0008.png,,,C:\Users\subject\Desktop\SVRT Experiments\SVRT Experiment 3\svrt_images\generated_images\results_problem_14\sample_1_0009.png,,,,,,,,,,,,,,,,,,0,5,5,5,0,9,9,9,,,,,,,,,,,,,,j,14,B,A,31,0,Incorrect!,0.17212430003564805,968.206643100013,None,968.206643100013,None,968.4066386999912,None,,,,,121,001,2023-10-10_15h28.20.248,colored_shuffled,2021.2.3,59.99329274768747,
C:\Users\subject\Desktop\SVRT Experiments\SVRT Experiment 3\svrt_images\generated_images\results_problem_14,,,C:\Users\subject\Desktop\SVRT Experiments\SVRT Experiment 3\svrt_images\generated_images\results_problem_18\sample_0_0008.png,,,C:\Users\subject\Desktop\SVRT Experiments\SVRT Experiment 3\svrt_images\generated_images\results_problem_14\sample_0_0003.png,,,,,,,,,,,,,,,,,,0,5,5,5,0,10,10,10,,,,,,,,,,,,,,j,14,B,B,31,1,Correct!,2.7674431999912485,969.5232927000034,None,969.5232927000034,None,972.3232565000071,None,,,,,121,001,2023-10-10_15h28.20.248,colored_shuffled,2021.2.3,59.99329274768747,
C:\Users\subject\Desktop\SVRT Experiments\SVRT Experiment 3\svrt_images\generated_images\results_problem_14,,,C:\Users\subject\Desktop\SVRT Experiments\SVRT Experiment 3\svrt_images\generated_images\results_problem_18\sample_0_0008.png,,,C:\Users\subject\Desktop\SVRT Experiments\SVRT Experiment 3\svrt_images\generated_images\results_problem_14\sample_1_0005.png,,,,,,,,,,,,,,,,,,0,5,5,5,0,11,11,11,,,,,,,,,,,,,,f,14,A,A,31,1,Correct!,4.881995800009463,973.4565832000226,None,973.4565832000226,None,978.373153100023,None,,,,,121,001,2023-10-10_15h28.20.248,colored_shuffled,2021.2.3,59.99329274768747,
C:\Users\subject\Desktop\SVRT Experiments\SVRT Experiment 3\svrt_images\generated_images\results_problem_14,,,C:\Users\subject\Desktop\SVRT Experiments\SVRT Experiment 3\svrt_images\generated_images\results_problem_18\sample_0_0008.png,,,C:\Users\subject\Desktop\SVRT Experiments\SVRT Experiment 3\svrt_images\generated_images\results_problem_14\sample_0_0014.png,,,,,,,,,,,,,,,,,,0,5,5,5,0,12,12,12,,,,,,,,,,,,,,j,14,B,B,31,1,Correct!,0.823611699976027,979.5231379999896,None,979.5231379999896,None,980.373054799973,None,,,,,121,001,2023-10-10_15h28.20.248,colored_shuffled,2021.2.3,59.99329274768747,
C:\Users\subject\Desktop\SVRT Experiments\SVRT Experiment 3\svrt_images\generated_images\results_problem_14,,,C:\Users\subject\Desktop\SVRT Experiments\SVRT Experiment 3\svrt_images\generated_images\results_problem_18\sample_0_0008.png,,,C:\Users\subject\Desktop\SVRT Experiments\SVRT Experiment 3\svrt_images\generated_images\results_problem_14\sample_0_0011.png,,,,,,,,,,,,,,,,,,0,5,5,5,0,13,13,13,,,,,,,,,,,,,,f,14,A,B,31,0,Incorrect!,0.583118700014893,981.5397486999864,None,981.5397486999864,None,982.1564354000147,None,,,,,121,001,2023-10-10_15h28.20.248,colored_shuffled,2021.2.3,59.99329274768747,
C:\Users\subject\Desktop\SVRT Experiments\SVRT Experiment 3\svrt_images\generated_images\results_problem_14,,,C:\Users\subject\Desktop\SVRT Experiments\SVRT Experiment 3\svrt_images\generated_images\results_problem_18\sample_0_0008.png,,,C:\Users\subject\Desktop\SVRT Experiments\SVRT Experiment 3\svrt_images\generated_images\results_problem_14\sample_1_0013.png,,,,,,,,,,,,,,,,,,0,5,5,5,0,14,14,14,,,,,,,,,,,,,,j,14,B,A,31,0,Incorrect!,0.2636178999673575,983.3230407999945,None,983.3230407999945,None,983.60637340002,None,,,,,121,001,2023-10-10_15h28.20.248,colored_shuffled,2021.2.3,59.99329274768747,
C:\Users\subject\Desktop\SVRT Experiments\SVRT Experiment 3\svrt_images\generated_images\results_problem_14,,,C:\Users\subject\Desktop\SVRT Experiments\SVRT Experiment 3\svrt_images\generated_images\results_problem_18\sample_0_0008.png,,,C:\Users\subject\Desktop\SVRT Experiments\SVRT Experiment 3\svrt_images\generated_images\results_problem_14\sample_0_0006.png,,,,,,,,,,,,,,,,,,0,5,5,5,0,15,15,15,,,,,,,,,,,,,,j,14,B,B,31,1,Correct!,0.205005900003016,984.789740999986,None,984.789740999986,None,985.0396908000112,None,,,,,121,001,2023-10-10_15h28.20.248,colored_shuffled,2021.2.3,59.99329274768747,
C:\Users\subject\Desktop\SVRT Experiments\SVRT Experiment 3\svrt_images\generated_images\results_problem_14,,,C:\Users\subject\Desktop\SVRT Experiments\SVRT Experiment 3\svrt_images\generated_images\results_problem_18\sample_0_0008.png,,,C:\Users\subject\Desktop\SVRT Experiments\SVRT Experiment 3\svrt_images\generated_images\results_problem_14\sample_1_0011.png,,,,,,,,,,,,,,,,,,0,5,5,5,0,16,16,16,,,,,,,,,,,,,,j,14,B,A,31,0,Incorrect!,0.6510180999757722,986.2397239999846,None,986.2397239999846,None,986.9230345999822,None,,,,,121,001,2023-10-10_15h28.20.248,colored_shuffled,2021.2.3,59.99329274768747,
C:\Users\subject\Desktop\SVRT Experiments\SVRT Experiment 3\svrt_images\generated_images\results_problem_14,,,C:\Users\subject\Desktop\SVRT Experiments\SVRT Experiment 3\svrt_images\generated_images\results_problem_18\sample_0_0008.png,,,C:\Users\subject\Desktop\SVRT Experiments\SVRT Experiment 3\svrt_images\generated_images\results_problem_14\sample_0_0005.png,,,,,,,,,,,,,,,,,,0,5,5,5,0,17,17,17,,,,,,,,,,,,,,f,14,A,B,31,0,Incorrect!,0.9990543000167236,988.1396884000278,None,988.1396884000278,None,989.1729805999785,None,,,,,121,001,2023-10-10_15h28.20.248,colored_shuffled,2021.2.3,59.99329274768747,
C:\Users\subject\Desktop\SVRT Experiments\SVRT Experiment 3\svrt_images\generated_images\results_problem_14,,,C:\Users\subject\Desktop\SVRT Experiments\SVRT Experiment 3\svrt_images\generated_images\results_problem_18\sample_0_0008.png,,,C:\Users\subject\Desktop\SVRT Experiments\SVRT Experiment 3\svrt_images\generated_images\results_problem_14\sample_0_0010.png,,,,,,,,,,,,,,,,,,0,5,5,5,0,18,18,18,,,,,,,,,,,,,,j,14,B,B,31,1,Correct!,0.4284650000045076,990.4062986000208,None,990.4062986000208,None,990.872952900012,None,,,,,121,001,2023-10-10_15h28.20.248,colored_shuffled,2021.2.3,59.99329274768747,
C:\Users\subject\Desktop\SVRT Experiments\SVRT Experiment 3\svrt_images\generated_images\results_problem_14,,,C:\Users\subject\Desktop\SVRT Experiments\SVRT Experiment 3\svrt_images\generated_images\results_problem_18\sample_0_0008.png,,,C:\Users\subject\Desktop\SVRT Experiments\SVRT Experiment 3\svrt_images\generated_images\results_problem_14\sample_1_0007.png,,,,,,,,,,,,,,,,,,0,5,5,5,0,19,19,19,,,,,,,,,,,,,,j,14,B,A,31,0,Incorrect!,0.503880099975504,992.1230024999822,None,992.1230024999822,None,992.689572000003,None,,,,,121,001,2023-10-10_15h28.20.248,colored_shuffled,2021.2.3,59.99329274768747,
C:\Users\subject\Desktop\SVRT Experiments\SVRT Experiment 3\svrt_images\generated_images\results_problem_14,,,C:\Users\subject\Desktop\SVRT Experiments\SVRT Experiment 3\svrt_images\generated_images\results_problem_18\sample_0_0008.png,,,C:\Users\subject\Desktop\SVRT Experiments\SVRT Experiment 3\svrt_images\generated_images\results_problem_14\sample_1_0008.png,,,,,,,,,,,,,,,,,,0,5,5,5,0,20,20,20,,,,,,,,,,,,,,f,14,A,A,31,1,Correct!,1.3504698000033386,993.9562417999841,None,993.9562417999841,None,995.372890300001,None,,,,,121,001,2023-10-10_15h28.20.248,colored_shuffled,2021.2.3,59.99329274768747,
C:\Users\subject\Desktop\SVRT Experiments\SVRT Experiment 3\svrt_images\generated_images\results_problem_14,,,C:\Users\subject\Desktop\SVRT Experiments\SVRT Experiment 3\svrt_images\generated_images\results_problem_18\sample_0_0008.png,,,C:\Users\subject\Desktop\SVRT Experiments\SVRT Experiment 3\svrt_images\generated_images\results_problem_14\sample_0_0015.png,,,,,,,,,,,,,,,,,,0,5,5,5,0,21,21,21,,,,,,,,,,,,,,j,14,B,B,31,1,Correct!,1.0264186999993399,996.6562143000192,None,996.6562143000192,None,997.7228376999847,None,,,,,121,001,2023-10-10_15h28.20.248,colored_shuffled,2021.2.3,59.99329274768747,
C:\Users\subject\Desktop\SVRT Experiments\SVRT Experiment 3\svrt_images\generated_images\results_problem_14,,,C:\Users\subject\Desktop\SVRT Experiments\SVRT Experiment 3\svrt_images\generated_images\results_problem_18\sample_0_0008.png,,,C:\Users\subject\Desktop\SVRT Experiments\SVRT Experiment 3\svrt_images\generated_images\results_problem_14\sample_1_0002.png,,,,,,,,,,,,,,,,,,0,5,5,5,0,22,22,22,,,,,,,,,,,,,,f,14,A,A,31,1,Correct!,0.5325440000160597,999.006157100026,None,999.006157100026,None,999.5561433000257,None,,,,,121,001,2023-10-10_15h28.20.248,colored_shuffled,2021.2.3,59.99329274768747,
C:\Users\subject\Desktop\SVRT Experiments\SVRT Experiment 3\svrt_images\generated_images\results_problem_14,,,C:\Users\subject\Desktop\SVRT Experiments\SVRT Experiment 3\svrt_images\generated_images\results_problem_18\sample_0_0008.png,,,C:\Users\subject\Desktop\SVRT Experiments\SVRT Experiment 3\svrt_images\generated_images\results_problem_14\sample_1_0010.png,,,,,,,,,,,,,,,,,,0,5,5,5,0,23,23,23,,,,,,,,,,,,,,f,14,A,A,31,1,Correct!,4.946716199978255,1000.8561312999809,None,1000.8561312999809,None,1005.8727306000073,None,,,,,121,001,2023-10-10_15h28.20.248,colored_shuffled,2021.2.3,59.99329274768747,
