folder,results_problem_5,results_problem_10,results_problem_12,results_problem_1,results_problem_6,results_problem_14,results_problem_17,results_problem_4,results_problem_20,results_problem_8,results_problem_7,results_problem_21,results_problem_9,results_problem_16,results_problem_23,results_problem_11,results_problem_22,results_problem_19,results_problem_2,results_problem_18,results_problem_13,results_problem_3,results_problem_15,categories.thisRepN,categories.thisTrialN,categories.thisN,categories.thisIndex,trials.thisRepN,trials.thisTrialN,trials.thisN,trials.thisIndex,consent_text.started,consent_kb.started,consent_kb.keys,consent_kb.rt,Gender.keys,Gender.rt,Age,instructions_text.started,instructions_text.stopped,instructions_kb.keys,instructions_kb.rt,instructions_kb.started,instructions_kb.stopped,trial_kb.keys,current_problem_num,category_resp,answer,seed,accuracy,feedback,trial_kb.rt,trial_kb.started,trial_kb.stopped,trial_image.started,trial_image.stopped,feedback_text.started,feedback_text.stopped,new_problem_kb.started,new_problem_text.started,new_problem_kb.keys,new_problem_kb.rt,Participant #,session,date,expName,psychopyVersion,frameRate,
,,,,,,,,,,,,,,,,,,,,,,,,,,,,,,,,12.932955099997343,12.932955099997343,y,29.152327699994203,,,,,,,,,,,,,,,,,,,,,,,,,,,,12,001,2023-04-27_16h57.04.162,uncolored_sorted,2021.2.3,60.01536393138096,
,,,,,,,,,,,,,,,,,,,,,,,,,,,,,,,,,,,,w,5.3818966999824625,,,,,,,,,,,,,,,,,,,,,,,,,,12,001,2023-04-27_16h57.04.162,uncolored_sorted,2021.2.3,60.01536393138096,
,,,,,,,,,,,,,,,,,,,,,,,,,,,,,,,,,,,,,,19,52.94400499999756,None,space,26.901050799991935,52.94400499999756,None,,,,,,,,,,,,,,,,,,,12,001,2023-04-27_16h57.04.162,uncolored_sorted,2021.2.3,60.01536393138096,
C:\Users\subject\Desktop\SVRT Experiments\SVRT Experiment 3\svrt_images\generated_images\results_problem_5,C:\Users\subject\Desktop\SVRT Experiments\SVRT Experiment 3\svrt_images\generated_images\results_problem_5\sample_1_0000.png,,,,,,,,,,,,,,,,,,,,,,,0,0,0,0,0,0,0,0,,,,,,,,,,,,,,j,5,B,A,3,0,Incorrect!,10.831164699979126,79.92585759999929,None,79.92585759999929,None,90.79185440001311,None,,,,,12,001,2023-04-27_16h57.04.162,uncolored_sorted,2021.2.3,60.01536393138096,
C:\Users\subject\Desktop\SVRT Experiments\SVRT Experiment 3\svrt_images\generated_images\results_problem_5,C:\Users\subject\Desktop\SVRT Experiments\SVRT Experiment 3\svrt_images\generated_images\results_problem_5\sample_0_0016.png,,,,,,,,,,,,,,,,,,,,,,,0,0,0,0,0,1,1,1,,,,,,,,,,,,,,j,5,B,B,3,1,Correct!,4.6606663999846205,91.80838229999063,None,91.80838229999063,None,96.49111370000173,None,,,,,12,001,2023-04-27_16h57.04.162,uncolored_sorted,2021.2.3,60.01536393138096,
C:\Users\subject\Desktop\SVRT Experiments\SVRT Experiment 3\svrt_images\generated_images\results_problem_5,C:\Users\subject\Desktop\SVRT Experiments\SVRT Experiment 3\svrt_images\generated_images\results_problem_5\sample_0_0011.png,,,,,,,,,,,,,,,,,,,,,,,0,0,0,0,0,2,2,2,,,,,,,,,,,,,,j,5,B,B,3,1,Correct!,4.079963800002588,97.54104499999085,None,97.54104499999085,None,101.64069490000838,None,,,,,12,001,2023-04-27_16h57.04.162,uncolored_sorted,2021.2.3,60.01536393138096,
C:\Users\subject\Desktop\SVRT Experiments\SVRT Experiment 3\svrt_images\generated_images\results_problem_5,C:\Users\subject\Desktop\SVRT Experiments\SVRT Experiment 3\svrt_images\generated_images\results_problem_5\sample_0_0012.png,,,,,,,,,,,,,,,,,,,,,,,0,0,0,0,0,3,3,3,,,,,,,,,,,,,,j,5,B,B,3,1,Correct!,3.538423899997724,102.69064829999115,None,102.69064829999115,None,106.25712679998833,None,,,,,12,001,2023-04-27_16h57.04.162,uncolored_sorted,2021.2.3,60.01536393138096,
C:\Users\subject\Desktop\SVRT Experiments\SVRT Experiment 3\svrt_images\generated_images\results_problem_5,C:\Users\subject\Desktop\SVRT Experiments\SVRT Experiment 3\svrt_images\generated_images\results_problem_5\sample_1_0007.png,,,,,,,,,,,,,,,,,,,,,,,0,0,0,0,0,4,4,4,,,,,,,,,,,,,,f,5,A,A,3,1,Correct!,1.257296399999177,107.32380449998891,None,107.32380449998891,None,108.6073281999852,None,,,,,12,001,2023-04-27_16h57.04.162,uncolored_sorted,2021.2.3,60.01536393138096,
C:\Users\subject\Desktop\SVRT Experiments\SVRT Experiment 3\svrt_images\generated_images\results_problem_5,C:\Users\subject\Desktop\SVRT Experiments\SVRT Experiment 3\svrt_images\generated_images\results_problem_5\sample_0_0013.png,,,,,,,,,,,,,,,,,,,,,,,0,0,0,0,0,5,5,5,,,,,,,,,,,,,,f,5,A,B,3,0,Incorrect!,1.339532500016503,109.6735994000046,None,109.6735994000046,None,111.04011460000766,None,,,,,12,001,2023-04-27_16h57.04.162,uncolored_sorted,2021.2.3,60.01536393138096,
C:\Users\subject\Desktop\SVRT Experiments\SVRT Experiment 3\svrt_images\generated_images\results_problem_5,C:\Users\subject\Desktop\SVRT Experiments\SVRT Experiment 3\svrt_images\generated_images\results_problem_5\sample_0_0004.png,,,,,,,,,,,,,,,,,,,,,,,0,0,0,0,0,6,6,6,,,,,,,,,,,,,,f,5,A,B,3,0,Incorrect!,6.646996500028763,112.19006019999506,None,112.19006019999506,None,118.85621989998617,None,,,,,12,001,2023-04-27_16h57.04.162,uncolored_sorted,2021.2.3,60.01536393138096,
C:\Users\subject\Desktop\SVRT Experiments\SVRT Experiment 3\svrt_images\generated_images\results_problem_5,C:\Users\subject\Desktop\SVRT Experiments\SVRT Experiment 3\svrt_images\generated_images\results_problem_5\sample_1_0014.png,,,,,,,,,,,,,,,,,,,,,,,0,0,0,0,0,7,7,7,,,,,,,,,,,,,,f,5,A,A,3,1,Correct!,6.00239129998954,119.92283950001001,None,119.92283950001001,None,125.95592800001032,None,,,,,12,001,2023-04-27_16h57.04.162,uncolored_sorted,2021.2.3,60.01536393138096,
C:\Users\subject\Desktop\SVRT Experiments\SVRT Experiment 3\svrt_images\generated_images\results_problem_5,C:\Users\subject\Desktop\SVRT Experiments\SVRT Experiment 3\svrt_images\generated_images\results_problem_5\sample_1_0011.png,,,,,,,,,,,,,,,,,,,,,,,0,0,0,0,0,8,8,8,,,,,,,,,,,,,,f,5,A,A,3,1,Correct!,2.4059394000214525,127.0391629000078,None,127.0391629000078,None,129.47239249999984,None,,,,,12,001,2023-04-27_16h57.04.162,uncolored_sorted,2021.2.3,60.01536393138096,
C:\Users\subject\Desktop\SVRT Experiments\SVRT Experiment 3\svrt_images\generated_images\results_problem_5,C:\Users\subject\Desktop\SVRT Experiments\SVRT Experiment 3\svrt_images\generated_images\results_problem_5\sample_0_0009.png,,,,,,,,,,,,,,,,,,,,,,,0,0,0,0,0,9,9,9,,,,,,,,,,,,,,f,5,A,B,3,0,Incorrect!,3.225660700001754,130.55540760001168,None,130.55540760001168,None,133.80528120000963,None,,,,,12,001,2023-04-27_16h57.04.162,uncolored_sorted,2021.2.3,60.01536393138096,
C:\Users\subject\Desktop\SVRT Experiments\SVRT Experiment 3\svrt_images\generated_images\results_problem_5,C:\Users\subject\Desktop\SVRT Experiments\SVRT Experiment 3\svrt_images\generated_images\results_problem_5\sample_0_0008.png,,,,,,,,,,,,,,,,,,,,,,,0,0,0,0,0,10,10,10,,,,,,,,,,,,,,j,5,B,B,3,1,Correct!,2.7798010999977123,134.90524180000648,None,134.90524180000648,None,137.7050248000014,None,,,,,12,001,2023-04-27_16h57.04.162,uncolored_sorted,2021.2.3,60.01536393138096,
C:\Users\subject\Desktop\SVRT Experiments\SVRT Experiment 3\svrt_images\generated_images\results_problem_5,C:\Users\subject\Desktop\SVRT Experiments\SVRT Experiment 3\svrt_images\generated_images\results_problem_5\sample_0_0002.png,,,,,,,,,,,,,,,,,,,,,,,0,0,0,0,0,11,11,11,,,,,,,,,,,,,,j,5,B,B,3,1,Correct!,4.271490000013728,138.82155600000988,None,138.82155600000988,None,143.12134399998467,None,,,,,12,001,2023-04-27_16h57.04.162,uncolored_sorted,2021.2.3,60.01536393138096,
C:\Users\subject\Desktop\SVRT Experiments\SVRT Experiment 3\svrt_images\generated_images\results_problem_5,C:\Users\subject\Desktop\SVRT Experiments\SVRT Experiment 3\svrt_images\generated_images\results_problem_5\sample_1_0010.png,,,,,,,,,,,,,,,,,,,,,,,0,0,0,0,0,12,12,12,,,,,,,,,,,,,,f,5,A,A,3,1,Correct!,1.879254800005583,144.23791480000364,None,144.23791480000364,None,146.13783729998977,None,,,,,12,001,2023-04-27_16h57.04.162,uncolored_sorted,2021.2.3,60.01536393138096,
C:\Users\subject\Desktop\SVRT Experiments\SVRT Experiment 3\svrt_images\generated_images\results_problem_5,C:\Users\subject\Desktop\SVRT Experiments\SVRT Experiment 3\svrt_images\generated_images\results_problem_5\sample_1_0015.png,,,,,,,,,,,,,,,,,,,,,,,0,0,0,0,0,13,13,13,,,,,,,,,,,,,,f,5,A,A,3,1,Correct!,3.773873800004367,147.27113939999253,None,147.27113939999253,None,151.0877310000069,None,,,,,12,001,2023-04-27_16h57.04.162,uncolored_sorted,2021.2.3,60.01536393138096,
C:\Users\subject\Desktop\SVRT Experiments\SVRT Experiment 3\svrt_images\generated_images\results_problem_5,C:\Users\subject\Desktop\SVRT Experiments\SVRT Experiment 3\svrt_images\generated_images\results_problem_5\sample_0_0015.png,,,,,,,,,,,,,,,,,,,,,,,0,0,0,0,0,14,14,14,,,,,,,,,,,,,,j,5,B,B,3,1,Correct!,1.1587781000125688,152.25437420001253,None,152.25437420001253,None,153.43760000000475,None,,,,,12,001,2023-04-27_16h57.04.162,uncolored_sorted,2021.2.3,60.01536393138096,
C:\Users\subject\Desktop\SVRT Experiments\SVRT Experiment 3\svrt_images\generated_images\results_problem_5,C:\Users\subject\Desktop\SVRT Experiments\SVRT Experiment 3\svrt_images\generated_images\results_problem_5\sample_0_0001.png,,,,,,,,,,,,,,,,,,,,,,,0,0,0,0,0,15,15,15,,,,,,,,,,,,,,f,5,A,B,3,0,Incorrect!,2.9681367999874055,154.620883399999,None,154.620883399999,None,157.63726859999588,None,,,,,12,001,2023-04-27_16h57.04.162,uncolored_sorted,2021.2.3,60.01536393138096,
C:\Users\subject\Desktop\SVRT Experiments\SVRT Experiment 3\svrt_images\generated_images\results_problem_5,C:\Users\subject\Desktop\SVRT Experiments\SVRT Experiment 3\svrt_images\generated_images\results_problem_5\sample_1_0009.png,,,,,,,,,,,,,,,,,,,,,,,0,0,0,0,0,16,16,16,,,,,,,,,,,,,,f,5,A,A,3,1,Correct!,1.0571614999789745,158.8039324999845,None,158.8039324999845,None,159.88720639998792,None,,,,,12,001,2023-04-27_16h57.04.162,uncolored_sorted,2021.2.3,60.01536393138096,
C:\Users\subject\Desktop\SVRT Experiments\SVRT Experiment 3\svrt_images\generated_images\results_problem_5,C:\Users\subject\Desktop\SVRT Experiments\SVRT Experiment 3\svrt_images\generated_images\results_problem_5\sample_1_0016.png,,,,,,,,,,,,,,,,,,,,,,,0,0,0,0,0,17,17,17,,,,,,,,,,,,,,f,5,A,A,3,1,Correct!,2.374562499986496,161.0704684999946,None,161.0704684999946,None,163.487000299996,None,,,,,12,001,2023-04-27_16h57.04.162,uncolored_sorted,2021.2.3,60.01536393138096,
C:\Users\subject\Desktop\SVRT Experiments\SVRT Experiment 3\svrt_images\generated_images\results_problem_5,C:\Users\subject\Desktop\SVRT Experiments\SVRT Experiment 3\svrt_images\generated_images\results_problem_5\sample_1_0006.png,,,,,,,,,,,,,,,,,,,,,,,0,0,0,0,0,18,18,18,,,,,,,,,,,,,,j,5,B,A,3,0,Incorrect!,4.117499000014504,164.70353540001088,None,164.70353540001088,None,168.85332059999928,None,,,,,12,001,2023-04-27_16h57.04.162,uncolored_sorted,2021.2.3,60.01536393138096,
C:\Users\subject\Desktop\SVRT Experiments\SVRT Experiment 3\svrt_images\generated_images\results_problem_5,C:\Users\subject\Desktop\SVRT Experiments\SVRT Experiment 3\svrt_images\generated_images\results_problem_5\sample_0_0006.png,,,,,,,,,,,,,,,,,,,,,,,0,0,0,0,0,19,19,19,,,,,,,,,,,,,,f,5,A,B,3,0,Incorrect!,2.8957891000027303,170.05325319999247,None,170.05325319999247,None,172.96980449999683,None,,,,,12,001,2023-04-27_16h57.04.162,uncolored_sorted,2021.2.3,60.01536393138096,
C:\Users\subject\Desktop\SVRT Experiments\SVRT Experiment 3\svrt_images\generated_images\results_problem_5,C:\Users\subject\Desktop\SVRT Experiments\SVRT Experiment 3\svrt_images\generated_images\results_problem_5\sample_1_0013.png,,,,,,,,,,,,,,,,,,,,,,,0,0,0,0,0,20,20,20,,,,,,,,,,,,,,j,5,B,A,3,0,Incorrect!,9.066706199984765,174.1864182999998,None,174.1864182999998,None,183.28581219998887,None,,,,,12,001,2023-04-27_16h57.04.162,uncolored_sorted,2021.2.3,60.01536393138096,
C:\Users\subject\Desktop\SVRT Experiments\SVRT Experiment 3\svrt_images\generated_images\results_problem_5,C:\Users\subject\Desktop\SVRT Experiments\SVRT Experiment 3\svrt_images\generated_images\results_problem_5\sample_1_0005.png,,,,,,,,,,,,,,,,,,,,,,,0,0,0,0,0,21,21,21,,,,,,,,,,,,,,j,5,B,A,3,0,Incorrect!,2.798551999992924,184.50247229999513,None,184.50247229999513,None,187.3355670000019,None,,,,,12,001,2023-04-27_16h57.04.162,uncolored_sorted,2021.2.3,60.01536393138096,
C:\Users\subject\Desktop\SVRT Experiments\SVRT Experiment 3\svrt_images\generated_images\results_problem_5,C:\Users\subject\Desktop\SVRT Experiments\SVRT Experiment 3\svrt_images\generated_images\results_problem_5\sample_1_0002.png,,,,,,,,,,,,,,,,,,,,,,,0,0,0,0,0,22,22,22,,,,,,,,,,,,,,j,5,B,A,3,0,Incorrect!,3.740389500017045,188.56879469999694,None,188.56879469999694,None,192.33537929999875,None,,,,,12,001,2023-04-27_16h57.04.162,uncolored_sorted,2021.2.3,60.01536393138096,
C:\Users\subject\Desktop\SVRT Experiments\SVRT Experiment 3\svrt_images\generated_images\results_problem_5,C:\Users\subject\Desktop\SVRT Experiments\SVRT Experiment 3\svrt_images\generated_images\results_problem_5\sample_0_0007.png,,,,,,,,,,,,,,,,,,,,,,,0,0,0,0,0,23,23,23,,,,,,,,,,,,,,j,5,B,B,3,1,Correct!,0.579150200006552,193.60190589999547,None,193.60190589999547,None,194.2184716000047,None,,,,,12,001,2023-04-27_16h57.04.162,uncolored_sorted,2021.2.3,60.01536393138096,
C:\Users\subject\Desktop\SVRT Experiments\SVRT Experiment 3\svrt_images\generated_images\results_problem_5,C:\Users\subject\Desktop\SVRT Experiments\SVRT Experiment 3\svrt_images\generated_images\results_problem_5\sample_1_0008.png,,,,,,,,,,,,,,,,,,,,,,,0,0,0,0,0,24,24,24,,,,,,,,,,,,,,j,5,B,A,3,0,Incorrect!,1.5599534999928437,195.48518019999028,None,195.48518019999028,None,197.1015899000049,None,,,,,12,001,2023-04-27_16h57.04.162,uncolored_sorted,2021.2.3,60.01536393138096,
C:\Users\subject\Desktop\SVRT Experiments\SVRT Experiment 3\svrt_images\generated_images\results_problem_5,C:\Users\subject\Desktop\SVRT Experiments\SVRT Experiment 3\svrt_images\generated_images\results_problem_5\sample_0_0000.png,,,,,,,,,,,,,,,,,,,,,,,0,0,0,0,0,25,25,25,,,,,,,,,,,,,,f,5,A,B,3,0,Incorrect!,3.09219419999863,198.38491920000524,None,198.38491920000524,None,201.50136259998544,None,,,,,12,001,2023-04-27_16h57.04.162,uncolored_sorted,2021.2.3,60.01536393138096,
C:\Users\subject\Desktop\SVRT Experiments\SVRT Experiment 3\svrt_images\generated_images\results_problem_5,C:\Users\subject\Desktop\SVRT Experiments\SVRT Experiment 3\svrt_images\generated_images\results_problem_5\sample_1_0001.png,,,,,,,,,,,,,,,,,,,,,,,0,0,0,0,0,26,26,26,,,,,,,,,,,,,,f,5,A,A,3,1,Correct!,0.7550285999896005,202.81802099998458,None,202.81802099998458,None,203.60129069999675,None,,,,,12,001,2023-04-27_16h57.04.162,uncolored_sorted,2021.2.3,60.01536393138096,
C:\Users\subject\Desktop\SVRT Experiments\SVRT Experiment 3\svrt_images\generated_images\results_problem_5,C:\Users\subject\Desktop\SVRT Experiments\SVRT Experiment 3\svrt_images\generated_images\results_problem_5\sample_0_0003.png,,,,,,,,,,,,,,,,,,,,,,,0,0,0,0,0,27,27,27,,,,,,,,,,,,,,j,5,B,B,3,1,Correct!,0.9599632000026759,204.90121229999932,None,204.90121229999932,None,205.88452120000147,None,,,,,12,001,2023-04-27_16h57.04.162,uncolored_sorted,2021.2.3,60.01536393138096,
C:\Users\subject\Desktop\SVRT Experiments\SVRT Experiment 3\svrt_images\generated_images\results_problem_5,C:\Users\subject\Desktop\SVRT Experiments\SVRT Experiment 3\svrt_images\generated_images\results_problem_5\sample_1_0003.png,,,,,,,,,,,,,,,,,,,,,,,0,0,0,0,0,28,28,28,,,,,,,,,,,,,,j,5,B,A,3,0,Incorrect!,1.1093450000043958,207.16775079999934,None,207.16775079999934,None,208.31759140000213,None,,,,,12,001,2023-04-27_16h57.04.162,uncolored_sorted,2021.2.3,60.01536393138096,
C:\Users\subject\Desktop\SVRT Experiments\SVRT Experiment 3\svrt_images\generated_images\results_problem_5,C:\Users\subject\Desktop\SVRT Experiments\SVRT Experiment 3\svrt_images\generated_images\results_problem_5\sample_0_0010.png,,,,,,,,,,,,,,,,,,,,,,,0,0,0,0,0,29,29,29,,,,,,,,,,,,,,j,5,B,B,3,1,Correct!,0.851477199990768,209.61757420000504,None,209.61757420000504,None,210.5008713999996,None,,,,,12,001,2023-04-27_16h57.04.162,uncolored_sorted,2021.2.3,60.01536393138096,
C:\Users\subject\Desktop\SVRT Experiments\SVRT Experiment 3\svrt_images\generated_images\results_problem_5,C:\Users\subject\Desktop\SVRT Experiments\SVRT Experiment 3\svrt_images\generated_images\results_problem_5\sample_1_0012.png,,,,,,,,,,,,,,,,,,,,,,,0,0,0,0,0,30,30,30,,,,,,,,,,,,,,f,5,A,A,3,1,Correct!,0.8582729999907315,211.8507730999845,None,211.8507730999845,None,212.73409290000563,None,,,,,12,001,2023-04-27_16h57.04.162,uncolored_sorted,2021.2.3,60.01536393138096,
C:\Users\subject\Desktop\SVRT Experiments\SVRT Experiment 3\svrt_images\generated_images\results_problem_5,C:\Users\subject\Desktop\SVRT Experiments\SVRT Experiment 3\svrt_images\generated_images\results_problem_5\sample_0_0014.png,,,,,,,,,,,,,,,,,,,,,,,0,0,0,0,0,31,31,31,,,,,,,,,,,,,,f,5,A,B,3,0,Incorrect!,1.9698600000119768,214.06733339998755,None,214.06733339998755,None,216.0839804999996,None,,,,,12,001,2023-04-27_16h57.04.162,uncolored_sorted,2021.2.3,60.01536393138096,
C:\Users\subject\Desktop\SVRT Experiments\SVRT Experiment 3\svrt_images\generated_images\results_problem_5,C:\Users\subject\Desktop\SVRT Experiments\SVRT Experiment 3\svrt_images\generated_images\results_problem_5\sample_1_0004.png,,,,,,,,,,,,,,,,,,,,,,,0,0,0,0,0,32,32,32,,,,,,,,,,,,,,j,5,B,A,3,0,Incorrect!,1.1480105000082403,217.41710240000975,None,217.41710240000975,None,218.6004191999964,None,,,,,12,001,2023-04-27_16h57.04.162,uncolored_sorted,2021.2.3,60.01536393138096,
C:\Users\subject\Desktop\SVRT Experiments\SVRT Experiment 3\svrt_images\generated_images\results_problem_5,C:\Users\subject\Desktop\SVRT Experiments\SVRT Experiment 3\svrt_images\generated_images\results_problem_5\sample_0_0005.png,,,,,,,,,,,,,,,,,,,,,,,0,0,0,0,0,33,33,33,,,,,,,,,,,,,,j,5,B,B,3,1,Correct!,0.7421837000001688,219.96694389998447,None,219.96694389998447,None,220.73359839999466,None,,,,,12,001,2023-04-27_16h57.04.162,uncolored_sorted,2021.2.3,60.01536393138096,
C:\Users\subject\Desktop\SVRT Experiments\SVRT Experiment 3\svrt_images\generated_images\results_problem_5,,,,,,,,,,,,,,,,,,,,,,,,0,0,0,0,,,,,,,,,,,,,,,,,,,,,,,,,,,,,,,,221.73358609998832,221.73358609998832,space,2.447501899994677,12,001,2023-04-27_16h57.04.162,uncolored_sorted,2021.2.3,60.01536393138096,
C:\Users\subject\Desktop\SVRT Experiments\SVRT Experiment 3\svrt_images\generated_images\results_problem_10,,C:\Users\subject\Desktop\SVRT Experiments\SVRT Experiment 3\svrt_images\generated_images\results_problem_10\sample_0_0006.png,,,,,,,,,,,,,,,,,,,,,,0,1,1,1,0,0,0,0,,,,,,,,,,,,,,j,10,B,B,3,1,Correct!,10.968793200008804,224.30027219999465,None,224.30027219999465,None,235.2999310999876,None,,,,,12,001,2023-04-27_16h57.04.162,uncolored_sorted,2021.2.3,60.01536393138096,
C:\Users\subject\Desktop\SVRT Experiments\SVRT Experiment 3\svrt_images\generated_images\results_problem_10,,C:\Users\subject\Desktop\SVRT Experiments\SVRT Experiment 3\svrt_images\generated_images\results_problem_10\sample_0_0011.png,,,,,,,,,,,,,,,,,,,,,,0,1,1,1,0,1,1,1,,,,,,,,,,,,,,f,10,A,B,3,0,Incorrect!,0.9039306000049692,236.33308780001244,None,236.33308780001244,None,237.2663426999934,None,,,,,12,001,2023-04-27_16h57.04.162,uncolored_sorted,2021.2.3,60.01536393138096,
C:\Users\subject\Desktop\SVRT Experiments\SVRT Experiment 3\svrt_images\generated_images\results_problem_10,,C:\Users\subject\Desktop\SVRT Experiments\SVRT Experiment 3\svrt_images\generated_images\results_problem_10\sample_0_0013.png,,,,,,,,,,,,,,,,,,,,,,0,1,1,1,0,2,2,2,,,,,,,,,,,,,,j,10,B,B,3,1,Correct!,4.456888499989873,238.31636629998684,None,238.31636629998684,None,242.79905880001024,None,,,,,12,001,2023-04-27_16h57.04.162,uncolored_sorted,2021.2.3,60.01536393138096,
C:\Users\subject\Desktop\SVRT Experiments\SVRT Experiment 3\svrt_images\generated_images\results_problem_10,,C:\Users\subject\Desktop\SVRT Experiments\SVRT Experiment 3\svrt_images\generated_images\results_problem_10\sample_0_0004.png,,,,,,,,,,,,,,,,,,,,,,0,1,1,1,0,3,3,3,,,,,,,,,,,,,,j,10,B,B,3,1,Correct!,2.395445900008781,243.8657000999956,None,243.8657000999956,None,246.2821302000084,None,,,,,12,001,2023-04-27_16h57.04.162,uncolored_sorted,2021.2.3,60.01536393138096,
C:\Users\subject\Desktop\SVRT Experiments\SVRT Experiment 3\svrt_images\generated_images\results_problem_10,,C:\Users\subject\Desktop\SVRT Experiments\SVRT Experiment 3\svrt_images\generated_images\results_problem_10\sample_1_0002.png,,,,,,,,,,,,,,,,,,,,,,0,1,1,1,0,4,4,4,,,,,,,,,,,,,,j,10,B,A,3,0,Incorrect!,2.864250299986452,247.34881450000103,None,247.34881450000103,None,250.23193020001054,None,,,,,12,001,2023-04-27_16h57.04.162,uncolored_sorted,2021.2.3,60.01536393138096,
C:\Users\subject\Desktop\SVRT Experiments\SVRT Experiment 3\svrt_images\generated_images\results_problem_10,,C:\Users\subject\Desktop\SVRT Experiments\SVRT Experiment 3\svrt_images\generated_images\results_problem_10\sample_0_0007.png,,,,,,,,,,,,,,,,,,,,,,0,1,1,1,0,5,5,5,,,,,,,,,,,,,,f,10,A,B,3,0,Incorrect!,1.7271710000059102,251.3818394000118,None,251.3818394000118,None,253.1317521999881,None,,,,,12,001,2023-04-27_16h57.04.162,uncolored_sorted,2021.2.3,60.01536393138096,
C:\Users\subject\Desktop\SVRT Experiments\SVRT Experiment 3\svrt_images\generated_images\results_problem_10,,C:\Users\subject\Desktop\SVRT Experiments\SVRT Experiment 3\svrt_images\generated_images\results_problem_10\sample_1_0000.png,,,,,,,,,,,,,,,,,,,,,,0,1,1,1,0,6,6,6,,,,,,,,,,,,,,f,10,A,A,3,1,Correct!,2.2374243999947794,254.23165689999587,None,254.23165689999587,None,256.49808170000324,None,,,,,12,001,2023-04-27_16h57.04.162,uncolored_sorted,2021.2.3,60.01536393138096,
C:\Users\subject\Desktop\SVRT Experiments\SVRT Experiment 3\svrt_images\generated_images\results_problem_10,,C:\Users\subject\Desktop\SVRT Experiments\SVRT Experiment 3\svrt_images\generated_images\results_problem_10\sample_0_0014.png,,,,,,,,,,,,,,,,,,,,,,0,1,1,1,0,7,7,7,,,,,,,,,,,,,,f,10,A,B,3,0,Incorrect!,8.710314500000095,257.6147426000098,None,257.6147426000098,None,266.34767220000504,None,,,,,12,001,2023-04-27_16h57.04.162,uncolored_sorted,2021.2.3,60.01536393138096,
C:\Users\subject\Desktop\SVRT Experiments\SVRT Experiment 3\svrt_images\generated_images\results_problem_10,,C:\Users\subject\Desktop\SVRT Experiments\SVRT Experiment 3\svrt_images\generated_images\results_problem_10\sample_0_0009.png,,,,,,,,,,,,,,,,,,,,,,0,1,1,1,0,8,8,8,,,,,,,,,,,,,,j,10,B,B,3,1,Correct!,3.2610095999843907,267.46419840000453,None,267.46419840000453,None,270.74740299998666,None,,,,,12,001,2023-04-27_16h57.04.162,uncolored_sorted,2021.2.3,60.01536393138096,
C:\Users\subject\Desktop\SVRT Experiments\SVRT Experiment 3\svrt_images\generated_images\results_problem_10,,C:\Users\subject\Desktop\SVRT Experiments\SVRT Experiment 3\svrt_images\generated_images\results_problem_10\sample_0_0003.png,,,,,,,,,,,,,,,,,,,,,,0,1,1,1,0,9,9,9,,,,,,,,,,,,,,j,10,B,B,3,1,Correct!,3.9483637000084855,271.8806889000116,None,271.8806889000116,None,275.846824200009,None,,,,,12,001,2023-04-27_16h57.04.162,uncolored_sorted,2021.2.3,60.01536393138096,
C:\Users\subject\Desktop\SVRT Experiments\SVRT Experiment 3\svrt_images\generated_images\results_problem_10,,C:\Users\subject\Desktop\SVRT Experiments\SVRT Experiment 3\svrt_images\generated_images\results_problem_10\sample_1_0012.png,,,,,,,,,,,,,,,,,,,,,,0,1,1,1,0,10,10,10,,,,,,,,,,,,,,f,10,A,A,3,1,Correct!,1.39365889999317,276.96348869998474,None,276.96348869998474,None,278.3800252999936,None,,,,,12,001,2023-04-27_16h57.04.162,uncolored_sorted,2021.2.3,60.01536393138096,
C:\Users\subject\Desktop\SVRT Experiments\SVRT Experiment 3\svrt_images\generated_images\results_problem_10,,C:\Users\subject\Desktop\SVRT Experiments\SVRT Experiment 3\svrt_images\generated_images\results_problem_10\sample_1_0013.png,,,,,,,,,,,,,,,,,,,,,,0,1,1,1,0,11,11,11,,,,,,,,,,,,,,f,10,A,A,3,1,Correct!,0.6997812999761663,279.5133538999944,None,279.5133538999944,None,280.2301920999889,None,,,,,12,001,2023-04-27_16h57.04.162,uncolored_sorted,2021.2.3,60.01536393138096,
C:\Users\subject\Desktop\SVRT Experiments\SVRT Experiment 3\svrt_images\generated_images\results_problem_10,,C:\Users\subject\Desktop\SVRT Experiments\SVRT Experiment 3\svrt_images\generated_images\results_problem_10\sample_1_0005.png,,,,,,,,,,,,,,,,,,,,,,0,1,1,1,0,12,12,12,,,,,,,,,,,,,,f,10,A,A,3,1,Correct!,0.6724029000033624,281.3968162999954,None,281.3968162999954,None,282.0967307999963,None,,,,,12,001,2023-04-27_16h57.04.162,uncolored_sorted,2021.2.3,60.01536393138096,
C:\Users\subject\Desktop\SVRT Experiments\SVRT Experiment 3\svrt_images\generated_images\results_problem_10,,C:\Users\subject\Desktop\SVRT Experiments\SVRT Experiment 3\svrt_images\generated_images\results_problem_10\sample_1_0016.png,,,,,,,,,,,,,,,,,,,,,,0,1,1,1,0,13,13,13,,,,,,,,,,,,,,f,10,A,A,3,1,Correct!,0.6957529000064824,283.2133077000035,None,283.2133077000035,None,283.92994919998455,None,,,,,12,001,2023-04-27_16h57.04.162,uncolored_sorted,2021.2.3,60.01536393138096,
C:\Users\subject\Desktop\SVRT Experiments\SVRT Experiment 3\svrt_images\generated_images\results_problem_10,,C:\Users\subject\Desktop\SVRT Experiments\SVRT Experiment 3\svrt_images\generated_images\results_problem_10\sample_0_0008.png,,,,,,,,,,,,,,,,,,,,,,0,1,1,1,0,14,14,14,,,,,,,,,,,,,,j,10,B,B,3,1,Correct!,1.193097300012596,285.17993760001264,None,285.17993760001264,None,286.3964379999961,None,,,,,12,001,2023-04-27_16h57.04.162,uncolored_sorted,2021.2.3,60.01536393138096,
C:\Users\subject\Desktop\SVRT Experiments\SVRT Experiment 3\svrt_images\generated_images\results_problem_10,,C:\Users\subject\Desktop\SVRT Experiments\SVRT Experiment 3\svrt_images\generated_images\results_problem_10\sample_0_0012.png,,,,,,,,,,,,,,,,,,,,,,0,1,1,1,0,15,15,15,,,,,,,,,,,,,,,,,,,,,,,,,,,,287.39637020000373,287.39637020000373,space,1.5527153000002727,12,001,2023-04-27_16h57.04.162,uncolored_sorted,2021.2.3,60.01536393138096,
C:\Users\subject\Desktop\SVRT Experiments\SVRT Experiment 3\svrt_images\generated_images\results_problem_12,,C:\Users\subject\Desktop\SVRT Experiments\SVRT Experiment 3\svrt_images\generated_images\results_problem_10\sample_0_0012.png,C:\Users\subject\Desktop\SVRT Experiments\SVRT Experiment 3\svrt_images\generated_images\results_problem_12\sample_0_0001.png,,,,,,,,,,,,,,,,,,,,,0,2,2,2,0,0,0,0,,,,,,,,,,,,,,f,12,A,B,3,0,Incorrect!,6.3487461999757215,289.49633269998594,None,289.49633269998594,None,295.8626920999959,None,,,,,12,001,2023-04-27_16h57.04.162,uncolored_sorted,2021.2.3,60.01536393138096,
C:\Users\subject\Desktop\SVRT Experiments\SVRT Experiment 3\svrt_images\generated_images\results_problem_12,,C:\Users\subject\Desktop\SVRT Experiments\SVRT Experiment 3\svrt_images\generated_images\results_problem_10\sample_0_0012.png,C:\Users\subject\Desktop\SVRT Experiments\SVRT Experiment 3\svrt_images\generated_images\results_problem_12\sample_1_0006.png,,,,,,,,,,,,,,,,,,,,,0,2,2,2,0,1,1,1,,,,,,,,,,,,,,j,12,B,A,3,0,Incorrect!,1.4114644000073895,296.9296120000072,None,296.9296120000072,None,298.36312170000747,None,,,,,12,001,2023-04-27_16h57.04.162,uncolored_sorted,2021.2.3,60.01536393138096,
C:\Users\subject\Desktop\SVRT Experiments\SVRT Experiment 3\svrt_images\generated_images\results_problem_12,,C:\Users\subject\Desktop\SVRT Experiments\SVRT Experiment 3\svrt_images\generated_images\results_problem_10\sample_0_0012.png,C:\Users\subject\Desktop\SVRT Experiments\SVRT Experiment 3\svrt_images\generated_images\results_problem_12\sample_0_0004.png,,,,,,,,,,,,,,,,,,,,,0,2,2,2,0,2,2,2,,,,,,,,,,,,,,j,12,B,B,3,1,Correct!,4.7527579000161495,299.41239439998753,None,299.41239439998753,None,304.1955186999985,None,,,,,12,001,2023-04-27_16h57.04.162,uncolored_sorted,2021.2.3,60.01536393138096,
C:\Users\subject\Desktop\SVRT Experiments\SVRT Experiment 3\svrt_images\generated_images\results_problem_12,,C:\Users\subject\Desktop\SVRT Experiments\SVRT Experiment 3\svrt_images\generated_images\results_problem_10\sample_0_0012.png,C:\Users\subject\Desktop\SVRT Experiments\SVRT Experiment 3\svrt_images\generated_images\results_problem_12\sample_1_0001.png,,,,,,,,,,,,,,,,,,,,,0,2,2,2,0,3,3,3,,,,,,,,,,,,,,f,12,A,A,3,1,Correct!,1.2383777000068221,305.27873349998845,None,305.27873349998845,None,306.54580839999835,None,,,,,12,001,2023-04-27_16h57.04.162,uncolored_sorted,2021.2.3,60.01536393138096,
C:\Users\subject\Desktop\SVRT Experiments\SVRT Experiment 3\svrt_images\generated_images\results_problem_12,,C:\Users\subject\Desktop\SVRT Experiments\SVRT Experiment 3\svrt_images\generated_images\results_problem_10\sample_0_0012.png,C:\Users\subject\Desktop\SVRT Experiments\SVRT Experiment 3\svrt_images\generated_images\results_problem_12\sample_1_0015.png,,,,,,,,,,,,,,,,,,,,,0,2,2,2,0,4,4,4,,,,,,,,,,,,,,f,12,A,A,3,1,Correct!,0.7441646000079345,307.6289715000021,None,307.6289715000021,None,308.3955726000131,None,,,,,12,001,2023-04-27_16h57.04.162,uncolored_sorted,2021.2.3,60.01536393138096,
C:\Users\subject\Desktop\SVRT Experiments\SVRT Experiment 3\svrt_images\generated_images\results_problem_12,,C:\Users\subject\Desktop\SVRT Experiments\SVRT Experiment 3\svrt_images\generated_images\results_problem_10\sample_0_0012.png,C:\Users\subject\Desktop\SVRT Experiments\SVRT Experiment 3\svrt_images\generated_images\results_problem_12\sample_1_0000.png,,,,,,,,,,,,,,,,,,,,,0,2,2,2,0,5,5,5,,,,,,,,,,,,,,f,12,A,A,3,1,Correct!,1.245976200007135,309.49521699998877,None,309.49521699998877,None,310.76169250000385,None,,,,,12,001,2023-04-27_16h57.04.162,uncolored_sorted,2021.2.3,60.01536393138096,
C:\Users\subject\Desktop\SVRT Experiments\SVRT Experiment 3\svrt_images\generated_images\results_problem_12,,C:\Users\subject\Desktop\SVRT Experiments\SVRT Experiment 3\svrt_images\generated_images\results_problem_10\sample_0_0012.png,C:\Users\subject\Desktop\SVRT Experiments\SVRT Experiment 3\svrt_images\generated_images\results_problem_12\sample_0_0000.png,,,,,,,,,,,,,,,,,,,,,0,2,2,2,0,6,6,6,,,,,,,,,,,,,,j,12,B,B,3,1,Correct!,1.023370100010652,311.861653400003,None,311.861653400003,None,312.9115158999921,None,,,,,12,001,2023-04-27_16h57.04.162,uncolored_sorted,2021.2.3,60.01536393138096,
C:\Users\subject\Desktop\SVRT Experiments\SVRT Experiment 3\svrt_images\generated_images\results_problem_12,,C:\Users\subject\Desktop\SVRT Experiments\SVRT Experiment 3\svrt_images\generated_images\results_problem_10\sample_0_0012.png,C:\Users\subject\Desktop\SVRT Experiments\SVRT Experiment 3\svrt_images\generated_images\results_problem_12\sample_1_0007.png,,,,,,,,,,,,,,,,,,,,,0,2,2,2,0,7,7,7,,,,,,,,,,,,,,f,12,A,A,3,1,Correct!,0.8416652999876533,314.0114217000082,None,314.0114217000082,None,314.878029399988,None,,,,,12,001,2023-04-27_16h57.04.162,uncolored_sorted,2021.2.3,60.01536393138096,
C:\Users\subject\Desktop\SVRT Experiments\SVRT Experiment 3\svrt_images\generated_images\results_problem_12,,C:\Users\subject\Desktop\SVRT Experiments\SVRT Experiment 3\svrt_images\generated_images\results_problem_10\sample_0_0012.png,C:\Users\subject\Desktop\SVRT Experiments\SVRT Experiment 3\svrt_images\generated_images\results_problem_12\sample_0_0006.png,,,,,,,,,,,,,,,,,,,,,0,2,2,2,0,8,8,8,,,,,,,,,,,,,,j,12,B,B,3,1,Correct!,1.8185102000134066,315.99463569998625,None,315.99463569998625,None,317.84466010000324,None,,,,,12,001,2023-04-27_16h57.04.162,uncolored_sorted,2021.2.3,60.01536393138096,
C:\Users\subject\Desktop\SVRT Experiments\SVRT Experiment 3\svrt_images\generated_images\results_problem_12,,C:\Users\subject\Desktop\SVRT Experiments\SVRT Experiment 3\svrt_images\generated_images\results_problem_10\sample_0_0012.png,C:\Users\subject\Desktop\SVRT Experiments\SVRT Experiment 3\svrt_images\generated_images\results_problem_12\sample_1_0013.png,,,,,,,,,,,,,,,,,,,,,0,2,2,2,0,9,9,9,,,,,,,,,,,,,,,,,,,,,,,,,,,,318.84454670001287,318.84454670001287,space,1.1285377999884076,12,001,2023-04-27_16h57.04.162,uncolored_sorted,2021.2.3,60.01536393138096,
C:\Users\subject\Desktop\SVRT Experiments\SVRT Experiment 3\svrt_images\generated_images\results_problem_1,,C:\Users\subject\Desktop\SVRT Experiments\SVRT Experiment 3\svrt_images\generated_images\results_problem_10\sample_0_0012.png,C:\Users\subject\Desktop\SVRT Experiments\SVRT Experiment 3\svrt_images\generated_images\results_problem_12\sample_1_0013.png,C:\Users\subject\Desktop\SVRT Experiments\SVRT Experiment 3\svrt_images\generated_images\results_problem_1\sample_1_0010.png,,,,,,,,,,,,,,,,,,,,0,3,3,3,0,0,0,0,,,,,,,,,,,,,,f,1,A,A,3,1,Correct!,2.5906944000162184,320.27840849998756,None,320.27840849998756,None,322.8943919999874,None,,,,,12,001,2023-04-27_16h57.04.162,uncolored_sorted,2021.2.3,60.01536393138096,
C:\Users\subject\Desktop\SVRT Experiments\SVRT Experiment 3\svrt_images\generated_images\results_problem_1,,C:\Users\subject\Desktop\SVRT Experiments\SVRT Experiment 3\svrt_images\generated_images\results_problem_10\sample_0_0012.png,C:\Users\subject\Desktop\SVRT Experiments\SVRT Experiment 3\svrt_images\generated_images\results_problem_12\sample_1_0013.png,C:\Users\subject\Desktop\SVRT Experiments\SVRT Experiment 3\svrt_images\generated_images\results_problem_1\sample_0_0006.png,,,,,,,,,,,,,,,,,,,,0,3,3,3,0,1,1,1,,,,,,,,,,,,,,j,1,B,B,3,1,Correct!,2.378420000022743,323.9947081999853,None,323.9947081999853,None,326.3941884000087,None,,,,,12,001,2023-04-27_16h57.04.162,uncolored_sorted,2021.2.3,60.01536393138096,
C:\Users\subject\Desktop\SVRT Experiments\SVRT Experiment 3\svrt_images\generated_images\results_problem_1,,C:\Users\subject\Desktop\SVRT Experiments\SVRT Experiment 3\svrt_images\generated_images\results_problem_10\sample_0_0012.png,C:\Users\subject\Desktop\SVRT Experiments\SVRT Experiment 3\svrt_images\generated_images\results_problem_12\sample_1_0013.png,C:\Users\subject\Desktop\SVRT Experiments\SVRT Experiment 3\svrt_images\generated_images\results_problem_1\sample_1_0013.png,,,,,,,,,,,,,,,,,,,,0,3,3,3,0,2,2,2,,,,,,,,,,,,,,f,1,A,A,3,1,Correct!,1.4570373999886215,327.4441635000112,None,327.4441635000112,None,328.9273930999916,None,,,,,12,001,2023-04-27_16h57.04.162,uncolored_sorted,2021.2.3,60.01536393138096,
C:\Users\subject\Desktop\SVRT Experiments\SVRT Experiment 3\svrt_images\generated_images\results_problem_1,,C:\Users\subject\Desktop\SVRT Experiments\SVRT Experiment 3\svrt_images\generated_images\results_problem_10\sample_0_0012.png,C:\Users\subject\Desktop\SVRT Experiments\SVRT Experiment 3\svrt_images\generated_images\results_problem_12\sample_1_0013.png,C:\Users\subject\Desktop\SVRT Experiments\SVRT Experiment 3\svrt_images\generated_images\results_problem_1\sample_1_0015.png,,,,,,,,,,,,,,,,,,,,0,3,3,3,0,3,3,3,,,,,,,,,,,,,,f,1,A,A,3,1,Correct!,0.8738116000022274,330.02739020000445,None,330.02739020000445,None,330.9276821000094,None,,,,,12,001,2023-04-27_16h57.04.162,uncolored_sorted,2021.2.3,60.01536393138096,
C:\Users\subject\Desktop\SVRT Experiments\SVRT Experiment 3\svrt_images\generated_images\results_problem_1,,C:\Users\subject\Desktop\SVRT Experiments\SVRT Experiment 3\svrt_images\generated_images\results_problem_10\sample_0_0012.png,C:\Users\subject\Desktop\SVRT Experiments\SVRT Experiment 3\svrt_images\generated_images\results_problem_12\sample_1_0013.png,C:\Users\subject\Desktop\SVRT Experiments\SVRT Experiment 3\svrt_images\generated_images\results_problem_1\sample_1_0016.png,,,,,,,,,,,,,,,,,,,,0,3,3,3,0,4,4,4,,,,,,,,,,,,,,f,1,A,A,3,1,Correct!,0.6978621000016574,332.02721120000933,None,332.02721120000933,None,332.7441230000113,None,,,,,12,001,2023-04-27_16h57.04.162,uncolored_sorted,2021.2.3,60.01536393138096,
C:\Users\subject\Desktop\SVRT Experiments\SVRT Experiment 3\svrt_images\generated_images\results_problem_1,,C:\Users\subject\Desktop\SVRT Experiments\SVRT Experiment 3\svrt_images\generated_images\results_problem_10\sample_0_0012.png,C:\Users\subject\Desktop\SVRT Experiments\SVRT Experiment 3\svrt_images\generated_images\results_problem_12\sample_1_0013.png,C:\Users\subject\Desktop\SVRT Experiments\SVRT Experiment 3\svrt_images\generated_images\results_problem_1\sample_0_0001.png,,,,,,,,,,,,,,,,,,,,0,3,3,3,0,5,5,5,,,,,,,,,,,,,,j,1,B,B,3,1,Correct!,1.7460370999760926,333.8270569999877,None,333.8270569999877,None,335.5935651999898,None,,,,,12,001,2023-04-27_16h57.04.162,uncolored_sorted,2021.2.3,60.01536393138096,
C:\Users\subject\Desktop\SVRT Experiments\SVRT Experiment 3\svrt_images\generated_images\results_problem_1,,C:\Users\subject\Desktop\SVRT Experiments\SVRT Experiment 3\svrt_images\generated_images\results_problem_10\sample_0_0012.png,C:\Users\subject\Desktop\SVRT Experiments\SVRT Experiment 3\svrt_images\generated_images\results_problem_12\sample_1_0013.png,C:\Users\subject\Desktop\SVRT Experiments\SVRT Experiment 3\svrt_images\generated_images\results_problem_1\sample_0_0016.png,,,,,,,,,,,,,,,,,,,,0,3,3,3,0,6,6,6,,,,,,,,,,,,,,j,1,B,B,3,1,Correct!,1.3283265000209212,336.6768114999868,None,336.6768114999868,None,338.02676919999067,None,,,,,12,001,2023-04-27_16h57.04.162,uncolored_sorted,2021.2.3,60.01536393138096,
C:\Users\subject\Desktop\SVRT Experiments\SVRT Experiment 3\svrt_images\generated_images\results_problem_1,,C:\Users\subject\Desktop\SVRT Experiments\SVRT Experiment 3\svrt_images\generated_images\results_problem_10\sample_0_0012.png,C:\Users\subject\Desktop\SVRT Experiments\SVRT Experiment 3\svrt_images\generated_images\results_problem_12\sample_1_0013.png,C:\Users\subject\Desktop\SVRT Experiments\SVRT Experiment 3\svrt_images\generated_images\results_problem_1\sample_0_0002.png,,,,,,,,,,,,,,,,,,,,0,3,3,3,0,7,7,7,,,,,,,,,,,,,,,,,,,,,,,,,,,,339.02669060000335,339.02669060000335,space,0.9625004999979865,12,001,2023-04-27_16h57.04.162,uncolored_sorted,2021.2.3,60.01536393138096,
C:\Users\subject\Desktop\SVRT Experiments\SVRT Experiment 3\svrt_images\generated_images\results_problem_6,,C:\Users\subject\Desktop\SVRT Experiments\SVRT Experiment 3\svrt_images\generated_images\results_problem_10\sample_0_0012.png,C:\Users\subject\Desktop\SVRT Experiments\SVRT Experiment 3\svrt_images\generated_images\results_problem_12\sample_1_0013.png,C:\Users\subject\Desktop\SVRT Experiments\SVRT Experiment 3\svrt_images\generated_images\results_problem_1\sample_0_0002.png,C:\Users\subject\Desktop\SVRT Experiments\SVRT Experiment 3\svrt_images\generated_images\results_problem_6\sample_1_0000.png,,,,,,,,,,,,,,,,,,,0,4,4,4,0,0,0,0,,,,,,,,,,,,,,j,6,B,A,3,0,Incorrect!,4.091923100000713,340.3771740999946,None,340.3771740999946,None,344.49358390001,None,,,,,12,001,2023-04-27_16h57.04.162,uncolored_sorted,2021.2.3,60.01536393138096,
C:\Users\subject\Desktop\SVRT Experiments\SVRT Experiment 3\svrt_images\generated_images\results_problem_6,,C:\Users\subject\Desktop\SVRT Experiments\SVRT Experiment 3\svrt_images\generated_images\results_problem_10\sample_0_0012.png,C:\Users\subject\Desktop\SVRT Experiments\SVRT Experiment 3\svrt_images\generated_images\results_problem_12\sample_1_0013.png,C:\Users\subject\Desktop\SVRT Experiments\SVRT Experiment 3\svrt_images\generated_images\results_problem_1\sample_0_0002.png,C:\Users\subject\Desktop\SVRT Experiments\SVRT Experiment 3\svrt_images\generated_images\results_problem_6\sample_1_0014.png,,,,,,,,,,,,,,,,,,,0,4,4,4,0,1,1,1,,,,,,,,,,,,,,j,6,B,A,3,0,Incorrect!,2.413603499997407,345.54347440000856,None,345.54347440000856,None,347.97634759999346,None,,,,,12,001,2023-04-27_16h57.04.162,uncolored_sorted,2021.2.3,60.01536393138096,
C:\Users\subject\Desktop\SVRT Experiments\SVRT Experiment 3\svrt_images\generated_images\results_problem_6,,C:\Users\subject\Desktop\SVRT Experiments\SVRT Experiment 3\svrt_images\generated_images\results_problem_10\sample_0_0012.png,C:\Users\subject\Desktop\SVRT Experiments\SVRT Experiment 3\svrt_images\generated_images\results_problem_12\sample_1_0013.png,C:\Users\subject\Desktop\SVRT Experiments\SVRT Experiment 3\svrt_images\generated_images\results_problem_1\sample_0_0002.png,C:\Users\subject\Desktop\SVRT Experiments\SVRT Experiment 3\svrt_images\generated_images\results_problem_6\sample_1_0013.png,,,,,,,,,,,,,,,,,,,0,4,4,4,0,2,2,2,,,,,,,,,,,,,,f,6,A,A,3,1,Correct!,1.3930667999957222,349.060061199998,None,349.060061199998,None,350.476614299987,None,,,,,12,001,2023-04-27_16h57.04.162,uncolored_sorted,2021.2.3,60.01536393138096,
C:\Users\subject\Desktop\SVRT Experiments\SVRT Experiment 3\svrt_images\generated_images\results_problem_6,,C:\Users\subject\Desktop\SVRT Experiments\SVRT Experiment 3\svrt_images\generated_images\results_problem_10\sample_0_0012.png,C:\Users\subject\Desktop\SVRT Experiments\SVRT Experiment 3\svrt_images\generated_images\results_problem_12\sample_1_0013.png,C:\Users\subject\Desktop\SVRT Experiments\SVRT Experiment 3\svrt_images\generated_images\results_problem_1\sample_0_0002.png,C:\Users\subject\Desktop\SVRT Experiments\SVRT Experiment 3\svrt_images\generated_images\results_problem_6\sample_1_0005.png,,,,,,,,,,,,,,,,,,,0,4,4,4,0,3,3,3,,,,,,,,,,,,,,j,6,B,A,3,0,Incorrect!,2.1892388999985997,351.55984739999985,None,351.55984739999985,None,353.7758967000118,None,,,,,12,001,2023-04-27_16h57.04.162,uncolored_sorted,2021.2.3,60.01536393138096,
C:\Users\subject\Desktop\SVRT Experiments\SVRT Experiment 3\svrt_images\generated_images\results_problem_6,,C:\Users\subject\Desktop\SVRT Experiments\SVRT Experiment 3\svrt_images\generated_images\results_problem_10\sample_0_0012.png,C:\Users\subject\Desktop\SVRT Experiments\SVRT Experiment 3\svrt_images\generated_images\results_problem_12\sample_1_0013.png,C:\Users\subject\Desktop\SVRT Experiments\SVRT Experiment 3\svrt_images\generated_images\results_problem_1\sample_0_0002.png,C:\Users\subject\Desktop\SVRT Experiments\SVRT Experiment 3\svrt_images\generated_images\results_problem_6\sample_0_0015.png,,,,,,,,,,,,,,,,,,,0,4,4,4,0,4,4,4,,,,,,,,,,,,,,j,6,B,B,3,1,Correct!,5.994598199991742,354.84250820000307,None,354.84250820000307,None,360.85884579998674,None,,,,,12,001,2023-04-27_16h57.04.162,uncolored_sorted,2021.2.3,60.01536393138096,
C:\Users\subject\Desktop\SVRT Experiments\SVRT Experiment 3\svrt_images\generated_images\results_problem_6,,C:\Users\subject\Desktop\SVRT Experiments\SVRT Experiment 3\svrt_images\generated_images\results_problem_10\sample_0_0012.png,C:\Users\subject\Desktop\SVRT Experiments\SVRT Experiment 3\svrt_images\generated_images\results_problem_12\sample_1_0013.png,C:\Users\subject\Desktop\SVRT Experiments\SVRT Experiment 3\svrt_images\generated_images\results_problem_1\sample_0_0002.png,C:\Users\subject\Desktop\SVRT Experiments\SVRT Experiment 3\svrt_images\generated_images\results_problem_6\sample_1_0015.png,,,,,,,,,,,,,,,,,,,0,4,4,4,0,5,5,5,,,,,,,,,,,,,,j,6,B,A,3,0,Incorrect!,1.854429800005164,361.9587540999928,None,361.9587540999928,None,363.8419857000117,None,,,,,12,001,2023-04-27_16h57.04.162,uncolored_sorted,2021.2.3,60.01536393138096,
C:\Users\subject\Desktop\SVRT Experiments\SVRT Experiment 3\svrt_images\generated_images\results_problem_6,,C:\Users\subject\Desktop\SVRT Experiments\SVRT Experiment 3\svrt_images\generated_images\results_problem_10\sample_0_0012.png,C:\Users\subject\Desktop\SVRT Experiments\SVRT Experiment 3\svrt_images\generated_images\results_problem_12\sample_1_0013.png,C:\Users\subject\Desktop\SVRT Experiments\SVRT Experiment 3\svrt_images\generated_images\results_problem_1\sample_0_0002.png,C:\Users\subject\Desktop\SVRT Experiments\SVRT Experiment 3\svrt_images\generated_images\results_problem_6\sample_0_0007.png,,,,,,,,,,,,,,,,,,,0,4,4,4,0,6,6,6,,,,,,,,,,,,,,f,6,A,B,3,0,Incorrect!,1.4005264000152238,364.908540000004,None,364.908540000004,None,366.3416954000131,None,,,,,12,001,2023-04-27_16h57.04.162,uncolored_sorted,2021.2.3,60.01536393138096,
C:\Users\subject\Desktop\SVRT Experiments\SVRT Experiment 3\svrt_images\generated_images\results_problem_6,,C:\Users\subject\Desktop\SVRT Experiments\SVRT Experiment 3\svrt_images\generated_images\results_problem_10\sample_0_0012.png,C:\Users\subject\Desktop\SVRT Experiments\SVRT Experiment 3\svrt_images\generated_images\results_problem_12\sample_1_0013.png,C:\Users\subject\Desktop\SVRT Experiments\SVRT Experiment 3\svrt_images\generated_images\results_problem_1\sample_0_0002.png,C:\Users\subject\Desktop\SVRT Experiments\SVRT Experiment 3\svrt_images\generated_images\results_problem_6\sample_0_0001.png,,,,,,,,,,,,,,,,,,,0,4,4,4,0,7,7,7,,,,,,,,,,,,,,j,6,B,B,3,1,Correct!,5.421459499979392,367.5916750000033,None,367.5916750000033,None,373.0414443000045,None,,,,,12,001,2023-04-27_16h57.04.162,uncolored_sorted,2021.2.3,60.01536393138096,
C:\Users\subject\Desktop\SVRT Experiments\SVRT Experiment 3\svrt_images\generated_images\results_problem_6,,C:\Users\subject\Desktop\SVRT Experiments\SVRT Experiment 3\svrt_images\generated_images\results_problem_10\sample_0_0012.png,C:\Users\subject\Desktop\SVRT Experiments\SVRT Experiment 3\svrt_images\generated_images\results_problem_12\sample_1_0013.png,C:\Users\subject\Desktop\SVRT Experiments\SVRT Experiment 3\svrt_images\generated_images\results_problem_1\sample_0_0002.png,C:\Users\subject\Desktop\SVRT Experiments\SVRT Experiment 3\svrt_images\generated_images\results_problem_6\sample_1_0002.png,,,,,,,,,,,,,,,,,,,0,4,4,4,0,8,8,8,,,,,,,,,,,,,,f,6,A,A,3,1,Correct!,2.9357667000149377,374.14141579999705,None,374.14141579999705,None,377.1078453999944,None,,,,,12,001,2023-04-27_16h57.04.162,uncolored_sorted,2021.2.3,60.01536393138096,
C:\Users\subject\Desktop\SVRT Experiments\SVRT Experiment 3\svrt_images\generated_images\results_problem_6,,C:\Users\subject\Desktop\SVRT Experiments\SVRT Experiment 3\svrt_images\generated_images\results_problem_10\sample_0_0012.png,C:\Users\subject\Desktop\SVRT Experiments\SVRT Experiment 3\svrt_images\generated_images\results_problem_12\sample_1_0013.png,C:\Users\subject\Desktop\SVRT Experiments\SVRT Experiment 3\svrt_images\generated_images\results_problem_1\sample_0_0002.png,C:\Users\subject\Desktop\SVRT Experiments\SVRT Experiment 3\svrt_images\generated_images\results_problem_6\sample_0_0006.png,,,,,,,,,,,,,,,,,,,0,4,4,4,0,9,9,9,,,,,,,,,,,,,,j,6,B,B,3,1,Correct!,9.188643400004366,378.2244752999977,None,378.2244752999977,None,387.44044830001076,None,,,,,12,001,2023-04-27_16h57.04.162,uncolored_sorted,2021.2.3,60.01536393138096,
C:\Users\subject\Desktop\SVRT Experiments\SVRT Experiment 3\svrt_images\generated_images\results_problem_6,,C:\Users\subject\Desktop\SVRT Experiments\SVRT Experiment 3\svrt_images\generated_images\results_problem_10\sample_0_0012.png,C:\Users\subject\Desktop\SVRT Experiments\SVRT Experiment 3\svrt_images\generated_images\results_problem_12\sample_1_0013.png,C:\Users\subject\Desktop\SVRT Experiments\SVRT Experiment 3\svrt_images\generated_images\results_problem_1\sample_0_0002.png,C:\Users\subject\Desktop\SVRT Experiments\SVRT Experiment 3\svrt_images\generated_images\results_problem_6\sample_1_0012.png,,,,,,,,,,,,,,,,,,,0,4,4,4,0,10,10,10,,,,,,,,,,,,,,f,6,A,A,3,1,Correct!,1.0640925999905448,388.557049199997,None,388.557049199997,None,389.6404673999932,None,,,,,12,001,2023-04-27_16h57.04.162,uncolored_sorted,2021.2.3,60.01536393138096,
C:\Users\subject\Desktop\SVRT Experiments\SVRT Experiment 3\svrt_images\generated_images\results_problem_6,,C:\Users\subject\Desktop\SVRT Experiments\SVRT Experiment 3\svrt_images\generated_images\results_problem_10\sample_0_0012.png,C:\Users\subject\Desktop\SVRT Experiments\SVRT Experiment 3\svrt_images\generated_images\results_problem_12\sample_1_0013.png,C:\Users\subject\Desktop\SVRT Experiments\SVRT Experiment 3\svrt_images\generated_images\results_problem_1\sample_0_0002.png,C:\Users\subject\Desktop\SVRT Experiments\SVRT Experiment 3\svrt_images\generated_images\results_problem_6\sample_1_0004.png,,,,,,,,,,,,,,,,,,,0,4,4,4,0,11,11,11,,,,,,,,,,,,,,f,6,A,A,3,1,Correct!,0.8009592999878805,390.7401930000051,None,390.7401930000051,None,391.5736540000071,None,,,,,12,001,2023-04-27_16h57.04.162,uncolored_sorted,2021.2.3,60.01536393138096,
C:\Users\subject\Desktop\SVRT Experiments\SVRT Experiment 3\svrt_images\generated_images\results_problem_6,,C:\Users\subject\Desktop\SVRT Experiments\SVRT Experiment 3\svrt_images\generated_images\results_problem_10\sample_0_0012.png,C:\Users\subject\Desktop\SVRT Experiments\SVRT Experiment 3\svrt_images\generated_images\results_problem_12\sample_1_0013.png,C:\Users\subject\Desktop\SVRT Experiments\SVRT Experiment 3\svrt_images\generated_images\results_problem_1\sample_0_0002.png,C:\Users\subject\Desktop\SVRT Experiments\SVRT Experiment 3\svrt_images\generated_images\results_problem_6\sample_1_0001.png,,,,,,,,,,,,,,,,,,,0,4,4,4,0,12,12,12,,,,,,,,,,,,,,f,6,A,A,3,1,Correct!,0.6588856000162195,392.6902851999912,None,392.6902851999912,None,393.37352439999813,None,,,,,12,001,2023-04-27_16h57.04.162,uncolored_sorted,2021.2.3,60.01536393138096,
C:\Users\subject\Desktop\SVRT Experiments\SVRT Experiment 3\svrt_images\generated_images\results_problem_6,,C:\Users\subject\Desktop\SVRT Experiments\SVRT Experiment 3\svrt_images\generated_images\results_problem_10\sample_0_0012.png,C:\Users\subject\Desktop\SVRT Experiments\SVRT Experiment 3\svrt_images\generated_images\results_problem_12\sample_1_0013.png,C:\Users\subject\Desktop\SVRT Experiments\SVRT Experiment 3\svrt_images\generated_images\results_problem_1\sample_0_0002.png,C:\Users\subject\Desktop\SVRT Experiments\SVRT Experiment 3\svrt_images\generated_images\results_problem_6\sample_0_0005.png,,,,,,,,,,,,,,,,,,,0,4,4,4,0,13,13,13,,,,,,,,,,,,,,j,6,B,B,3,1,Correct!,2.457644599984633,394.5235226000077,None,394.5235226000077,None,397.00674020001316,None,,,,,12,001,2023-04-27_16h57.04.162,uncolored_sorted,2021.2.3,60.01536393138096,
C:\Users\subject\Desktop\SVRT Experiments\SVRT Experiment 3\svrt_images\generated_images\results_problem_6,,C:\Users\subject\Desktop\SVRT Experiments\SVRT Experiment 3\svrt_images\generated_images\results_problem_10\sample_0_0012.png,C:\Users\subject\Desktop\SVRT Experiments\SVRT Experiment 3\svrt_images\generated_images\results_problem_12\sample_1_0013.png,C:\Users\subject\Desktop\SVRT Experiments\SVRT Experiment 3\svrt_images\generated_images\results_problem_1\sample_0_0002.png,C:\Users\subject\Desktop\SVRT Experiments\SVRT Experiment 3\svrt_images\generated_images\results_problem_6\sample_0_0002.png,,,,,,,,,,,,,,,,,,,0,4,4,4,0,14,14,14,,,,,,,,,,,,,,,,,,,,,,,,,,,,398.00671720001264,398.00671720001264,space,0.6063829000049736,12,001,2023-04-27_16h57.04.162,uncolored_sorted,2021.2.3,60.01536393138096,
C:\Users\subject\Desktop\SVRT Experiments\SVRT Experiment 3\svrt_images\generated_images\results_problem_14,,C:\Users\subject\Desktop\SVRT Experiments\SVRT Experiment 3\svrt_images\generated_images\results_problem_10\sample_0_0012.png,C:\Users\subject\Desktop\SVRT Experiments\SVRT Experiment 3\svrt_images\generated_images\results_problem_12\sample_1_0013.png,C:\Users\subject\Desktop\SVRT Experiments\SVRT Experiment 3\svrt_images\generated_images\results_problem_1\sample_0_0002.png,C:\Users\subject\Desktop\SVRT Experiments\SVRT Experiment 3\svrt_images\generated_images\results_problem_6\sample_0_0002.png,C:\Users\subject\Desktop\SVRT Experiments\SVRT Experiment 3\svrt_images\generated_images\results_problem_14\sample_1_0003.png,,,,,,,,,,,,,,,,,,0,5,5,5,0,0,0,0,,,,,,,,,,,,,,j,14,B,A,3,0,Incorrect!,2.33655410000938,398.75665170000866,None,398.75665170000866,None,401.12319419998676,None,,,,,12,001,2023-04-27_16h57.04.162,uncolored_sorted,2021.2.3,60.01536393138096,
C:\Users\subject\Desktop\SVRT Experiments\SVRT Experiment 3\svrt_images\generated_images\results_problem_14,,C:\Users\subject\Desktop\SVRT Experiments\SVRT Experiment 3\svrt_images\generated_images\results_problem_10\sample_0_0012.png,C:\Users\subject\Desktop\SVRT Experiments\SVRT Experiment 3\svrt_images\generated_images\results_problem_12\sample_1_0013.png,C:\Users\subject\Desktop\SVRT Experiments\SVRT Experiment 3\svrt_images\generated_images\results_problem_1\sample_0_0002.png,C:\Users\subject\Desktop\SVRT Experiments\SVRT Experiment 3\svrt_images\generated_images\results_problem_6\sample_0_0002.png,C:\Users\subject\Desktop\SVRT Experiments\SVRT Experiment 3\svrt_images\generated_images\results_problem_14\sample_0_0002.png,,,,,,,,,,,,,,,,,,0,5,5,5,0,1,1,1,,,,,,,,,,,,,,j,14,B,B,3,1,Correct!,1.254457499977434,402.2066695000103,None,402.2066695000103,None,403.48984120000387,None,,,,,12,001,2023-04-27_16h57.04.162,uncolored_sorted,2021.2.3,60.01536393138096,
C:\Users\subject\Desktop\SVRT Experiments\SVRT Experiment 3\svrt_images\generated_images\results_problem_14,,C:\Users\subject\Desktop\SVRT Experiments\SVRT Experiment 3\svrt_images\generated_images\results_problem_10\sample_0_0012.png,C:\Users\subject\Desktop\SVRT Experiments\SVRT Experiment 3\svrt_images\generated_images\results_problem_12\sample_1_0013.png,C:\Users\subject\Desktop\SVRT Experiments\SVRT Experiment 3\svrt_images\generated_images\results_problem_1\sample_0_0002.png,C:\Users\subject\Desktop\SVRT Experiments\SVRT Experiment 3\svrt_images\generated_images\results_problem_6\sample_0_0002.png,C:\Users\subject\Desktop\SVRT Experiments\SVRT Experiment 3\svrt_images\generated_images\results_problem_14\sample_0_0015.png,,,,,,,,,,,,,,,,,,0,5,5,5,0,2,2,2,,,,,,,,,,,,,,j,14,B,B,3,1,Correct!,1.0979301999905147,404.52322569998796,None,404.52322569998796,None,405.6398332999961,None,,,,,12,001,2023-04-27_16h57.04.162,uncolored_sorted,2021.2.3,60.01536393138096,
C:\Users\subject\Desktop\SVRT Experiments\SVRT Experiment 3\svrt_images\generated_images\results_problem_14,,C:\Users\subject\Desktop\SVRT Experiments\SVRT Experiment 3\svrt_images\generated_images\results_problem_10\sample_0_0012.png,C:\Users\subject\Desktop\SVRT Experiments\SVRT Experiment 3\svrt_images\generated_images\results_problem_12\sample_1_0013.png,C:\Users\subject\Desktop\SVRT Experiments\SVRT Experiment 3\svrt_images\generated_images\results_problem_1\sample_0_0002.png,C:\Users\subject\Desktop\SVRT Experiments\SVRT Experiment 3\svrt_images\generated_images\results_problem_6\sample_0_0002.png,C:\Users\subject\Desktop\SVRT Experiments\SVRT Experiment 3\svrt_images\generated_images\results_problem_14\sample_0_0016.png,,,,,,,,,,,,,,,,,,0,5,5,5,0,3,3,3,,,,,,,,,,,,,,j,14,B,B,3,1,Correct!,1.635351200005971,406.6898405000102,None,406.6898405000102,None,408.35610299999826,None,,,,,12,001,2023-04-27_16h57.04.162,uncolored_sorted,2021.2.3,60.01536393138096,
C:\Users\subject\Desktop\SVRT Experiments\SVRT Experiment 3\svrt_images\generated_images\results_problem_14,,C:\Users\subject\Desktop\SVRT Experiments\SVRT Experiment 3\svrt_images\generated_images\results_problem_10\sample_0_0012.png,C:\Users\subject\Desktop\SVRT Experiments\SVRT Experiment 3\svrt_images\generated_images\results_problem_12\sample_1_0013.png,C:\Users\subject\Desktop\SVRT Experiments\SVRT Experiment 3\svrt_images\generated_images\results_problem_1\sample_0_0002.png,C:\Users\subject\Desktop\SVRT Experiments\SVRT Experiment 3\svrt_images\generated_images\results_problem_6\sample_0_0002.png,C:\Users\subject\Desktop\SVRT Experiments\SVRT Experiment 3\svrt_images\generated_images\results_problem_14\sample_0_0000.png,,,,,,,,,,,,,,,,,,0,5,5,5,0,4,4,4,,,,,,,,,,,,,,j,14,B,B,3,1,Correct!,0.9345035000005737,409.4226109999872,None,409.4226109999872,None,410.389613700012,None,,,,,12,001,2023-04-27_16h57.04.162,uncolored_sorted,2021.2.3,60.01536393138096,
C:\Users\subject\Desktop\SVRT Experiments\SVRT Experiment 3\svrt_images\generated_images\results_problem_14,,C:\Users\subject\Desktop\SVRT Experiments\SVRT Experiment 3\svrt_images\generated_images\results_problem_10\sample_0_0012.png,C:\Users\subject\Desktop\SVRT Experiments\SVRT Experiment 3\svrt_images\generated_images\results_problem_12\sample_1_0013.png,C:\Users\subject\Desktop\SVRT Experiments\SVRT Experiment 3\svrt_images\generated_images\results_problem_1\sample_0_0002.png,C:\Users\subject\Desktop\SVRT Experiments\SVRT Experiment 3\svrt_images\generated_images\results_problem_6\sample_0_0002.png,C:\Users\subject\Desktop\SVRT Experiments\SVRT Experiment 3\svrt_images\generated_images\results_problem_14\sample_1_0012.png,,,,,,,,,,,,,,,,,,0,5,5,5,0,5,5,5,,,,,,,,,,,,,,f,14,A,A,3,1,Correct!,0.900897299987264,411.45620549999876,None,411.45620549999876,None,412.38940029998776,None,,,,,12,001,2023-04-27_16h57.04.162,uncolored_sorted,2021.2.3,60.01536393138096,
C:\Users\subject\Desktop\SVRT Experiments\SVRT Experiment 3\svrt_images\generated_images\results_problem_14,,C:\Users\subject\Desktop\SVRT Experiments\SVRT Experiment 3\svrt_images\generated_images\results_problem_10\sample_0_0012.png,C:\Users\subject\Desktop\SVRT Experiments\SVRT Experiment 3\svrt_images\generated_images\results_problem_12\sample_1_0013.png,C:\Users\subject\Desktop\SVRT Experiments\SVRT Experiment 3\svrt_images\generated_images\results_problem_1\sample_0_0002.png,C:\Users\subject\Desktop\SVRT Experiments\SVRT Experiment 3\svrt_images\generated_images\results_problem_6\sample_0_0002.png,C:\Users\subject\Desktop\SVRT Experiments\SVRT Experiment 3\svrt_images\generated_images\results_problem_14\sample_1_0015.png,,,,,,,,,,,,,,,,,,0,5,5,5,0,6,6,6,,,,,,,,,,,,,,f,14,A,A,3,1,Correct!,0.6123976999951992,413.472743899998,None,413.472743899998,None,414.1059047000017,None,,,,,12,001,2023-04-27_16h57.04.162,uncolored_sorted,2021.2.3,60.01536393138096,
C:\Users\subject\Desktop\SVRT Experiments\SVRT Experiment 3\svrt_images\generated_images\results_problem_14,,C:\Users\subject\Desktop\SVRT Experiments\SVRT Experiment 3\svrt_images\generated_images\results_problem_10\sample_0_0012.png,C:\Users\subject\Desktop\SVRT Experiments\SVRT Experiment 3\svrt_images\generated_images\results_problem_12\sample_1_0013.png,C:\Users\subject\Desktop\SVRT Experiments\SVRT Experiment 3\svrt_images\generated_images\results_problem_1\sample_0_0002.png,C:\Users\subject\Desktop\SVRT Experiments\SVRT Experiment 3\svrt_images\generated_images\results_problem_6\sample_0_0002.png,C:\Users\subject\Desktop\SVRT Experiments\SVRT Experiment 3\svrt_images\generated_images\results_problem_14\sample_0_0006.png,,,,,,,,,,,,,,,,,,0,5,5,5,0,7,7,7,,,,,,,,,,,,,,j,14,B,B,3,1,Correct!,2.8954014999908395,415.205864699994,None,415.205864699994,None,418.1221332999994,None,,,,,12,001,2023-04-27_16h57.04.162,uncolored_sorted,2021.2.3,60.01536393138096,
C:\Users\subject\Desktop\SVRT Experiments\SVRT Experiment 3\svrt_images\generated_images\results_problem_14,,C:\Users\subject\Desktop\SVRT Experiments\SVRT Experiment 3\svrt_images\generated_images\results_problem_10\sample_0_0012.png,C:\Users\subject\Desktop\SVRT Experiments\SVRT Experiment 3\svrt_images\generated_images\results_problem_12\sample_1_0013.png,C:\Users\subject\Desktop\SVRT Experiments\SVRT Experiment 3\svrt_images\generated_images\results_problem_1\sample_0_0002.png,C:\Users\subject\Desktop\SVRT Experiments\SVRT Experiment 3\svrt_images\generated_images\results_problem_6\sample_0_0002.png,C:\Users\subject\Desktop\SVRT Experiments\SVRT Experiment 3\svrt_images\generated_images\results_problem_14\sample_1_0004.png,,,,,,,,,,,,,,,,,,0,5,5,5,0,8,8,8,,,,,,,,,,,,,,,,,,,,,,,,,,,,419.1220682999992,419.1220682999992,space,0.818997299997136,12,001,2023-04-27_16h57.04.162,uncolored_sorted,2021.2.3,60.01536393138096,
C:\Users\subject\Desktop\SVRT Experiments\SVRT Experiment 3\svrt_images\generated_images\results_problem_17,,C:\Users\subject\Desktop\SVRT Experiments\SVRT Experiment 3\svrt_images\generated_images\results_problem_10\sample_0_0012.png,C:\Users\subject\Desktop\SVRT Experiments\SVRT Experiment 3\svrt_images\generated_images\results_problem_12\sample_1_0013.png,C:\Users\subject\Desktop\SVRT Experiments\SVRT Experiment 3\svrt_images\generated_images\results_problem_1\sample_0_0002.png,C:\Users\subject\Desktop\SVRT Experiments\SVRT Experiment 3\svrt_images\generated_images\results_problem_6\sample_0_0002.png,C:\Users\subject\Desktop\SVRT Experiments\SVRT Experiment 3\svrt_images\generated_images\results_problem_14\sample_1_0004.png,C:\Users\subject\Desktop\SVRT Experiments\SVRT Experiment 3\svrt_images\generated_images\results_problem_17\sample_0_0011.png,,,,,,,,,,,,,,,,,0,6,6,6,0,0,0,0,,,,,,,,,,,,,,f,17,A,B,3,0,Incorrect!,9.197049200010952,420.07210220000707,None,420.07210220000707,None,429.2881794999994,None,,,,,12,001,2023-04-27_16h57.04.162,uncolored_sorted,2021.2.3,60.01536393138096,
C:\Users\subject\Desktop\SVRT Experiments\SVRT Experiment 3\svrt_images\generated_images\results_problem_17,,C:\Users\subject\Desktop\SVRT Experiments\SVRT Experiment 3\svrt_images\generated_images\results_problem_10\sample_0_0012.png,C:\Users\subject\Desktop\SVRT Experiments\SVRT Experiment 3\svrt_images\generated_images\results_problem_12\sample_1_0013.png,C:\Users\subject\Desktop\SVRT Experiments\SVRT Experiment 3\svrt_images\generated_images\results_problem_1\sample_0_0002.png,C:\Users\subject\Desktop\SVRT Experiments\SVRT Experiment 3\svrt_images\generated_images\results_problem_6\sample_0_0002.png,C:\Users\subject\Desktop\SVRT Experiments\SVRT Experiment 3\svrt_images\generated_images\results_problem_14\sample_1_0004.png,C:\Users\subject\Desktop\SVRT Experiments\SVRT Experiment 3\svrt_images\generated_images\results_problem_17\sample_0_0002.png,,,,,,,,,,,,,,,,,0,6,6,6,0,1,1,1,,,,,,,,,,,,,,f,17,A,B,3,0,Incorrect!,2.2275869000004604,430.32151780001004,None,430.32151780001004,None,432.5713057999965,None,,,,,12,001,2023-04-27_16h57.04.162,uncolored_sorted,2021.2.3,60.01536393138096,
C:\Users\subject\Desktop\SVRT Experiments\SVRT Experiment 3\svrt_images\generated_images\results_problem_17,,C:\Users\subject\Desktop\SVRT Experiments\SVRT Experiment 3\svrt_images\generated_images\results_problem_10\sample_0_0012.png,C:\Users\subject\Desktop\SVRT Experiments\SVRT Experiment 3\svrt_images\generated_images\results_problem_12\sample_1_0013.png,C:\Users\subject\Desktop\SVRT Experiments\SVRT Experiment 3\svrt_images\generated_images\results_problem_1\sample_0_0002.png,C:\Users\subject\Desktop\SVRT Experiments\SVRT Experiment 3\svrt_images\generated_images\results_problem_6\sample_0_0002.png,C:\Users\subject\Desktop\SVRT Experiments\SVRT Experiment 3\svrt_images\generated_images\results_problem_14\sample_1_0004.png,C:\Users\subject\Desktop\SVRT Experiments\SVRT Experiment 3\svrt_images\generated_images\results_problem_17\sample_0_0009.png,,,,,,,,,,,,,,,,,0,6,6,6,0,2,2,2,,,,,,,,,,,,,,j,17,B,B,3,1,Correct!,3.2799608999921475,433.6213071999955,None,433.6213071999955,None,436.92106580000836,None,,,,,12,001,2023-04-27_16h57.04.162,uncolored_sorted,2021.2.3,60.01536393138096,
C:\Users\subject\Desktop\SVRT Experiments\SVRT Experiment 3\svrt_images\generated_images\results_problem_17,,C:\Users\subject\Desktop\SVRT Experiments\SVRT Experiment 3\svrt_images\generated_images\results_problem_10\sample_0_0012.png,C:\Users\subject\Desktop\SVRT Experiments\SVRT Experiment 3\svrt_images\generated_images\results_problem_12\sample_1_0013.png,C:\Users\subject\Desktop\SVRT Experiments\SVRT Experiment 3\svrt_images\generated_images\results_problem_1\sample_0_0002.png,C:\Users\subject\Desktop\SVRT Experiments\SVRT Experiment 3\svrt_images\generated_images\results_problem_6\sample_0_0002.png,C:\Users\subject\Desktop\SVRT Experiments\SVRT Experiment 3\svrt_images\generated_images\results_problem_14\sample_1_0004.png,C:\Users\subject\Desktop\SVRT Experiments\SVRT Experiment 3\svrt_images\generated_images\results_problem_17\sample_0_0006.png,,,,,,,,,,,,,,,,,0,6,6,6,0,3,3,3,,,,,,,,,,,,,,j,17,B,B,3,1,Correct!,1.458147099998314,437.97106750000967,None,437.97106750000967,None,439.45432540000184,None,,,,,12,001,2023-04-27_16h57.04.162,uncolored_sorted,2021.2.3,60.01536393138096,
C:\Users\subject\Desktop\SVRT Experiments\SVRT Experiment 3\svrt_images\generated_images\results_problem_17,,C:\Users\subject\Desktop\SVRT Experiments\SVRT Experiment 3\svrt_images\generated_images\results_problem_10\sample_0_0012.png,C:\Users\subject\Desktop\SVRT Experiments\SVRT Experiment 3\svrt_images\generated_images\results_problem_12\sample_1_0013.png,C:\Users\subject\Desktop\SVRT Experiments\SVRT Experiment 3\svrt_images\generated_images\results_problem_1\sample_0_0002.png,C:\Users\subject\Desktop\SVRT Experiments\SVRT Experiment 3\svrt_images\generated_images\results_problem_6\sample_0_0002.png,C:\Users\subject\Desktop\SVRT Experiments\SVRT Experiment 3\svrt_images\generated_images\results_problem_14\sample_1_0004.png,C:\Users\subject\Desktop\SVRT Experiments\SVRT Experiment 3\svrt_images\generated_images\results_problem_17\sample_1_0009.png,,,,,,,,,,,,,,,,,0,6,6,6,0,4,4,4,,,,,,,,,,,,,,j,17,B,A,3,0,Incorrect!,1.4352583999861963,440.5218307999894,None,440.5218307999894,None,441.9874451000069,None,,,,,12,001,2023-04-27_16h57.04.162,uncolored_sorted,2021.2.3,60.01536393138096,
C:\Users\subject\Desktop\SVRT Experiments\SVRT Experiment 3\svrt_images\generated_images\results_problem_17,,C:\Users\subject\Desktop\SVRT Experiments\SVRT Experiment 3\svrt_images\generated_images\results_problem_10\sample_0_0012.png,C:\Users\subject\Desktop\SVRT Experiments\SVRT Experiment 3\svrt_images\generated_images\results_problem_12\sample_1_0013.png,C:\Users\subject\Desktop\SVRT Experiments\SVRT Experiment 3\svrt_images\generated_images\results_problem_1\sample_0_0002.png,C:\Users\subject\Desktop\SVRT Experiments\SVRT Experiment 3\svrt_images\generated_images\results_problem_6\sample_0_0002.png,C:\Users\subject\Desktop\SVRT Experiments\SVRT Experiment 3\svrt_images\generated_images\results_problem_14\sample_1_0004.png,C:\Users\subject\Desktop\SVRT Experiments\SVRT Experiment 3\svrt_images\generated_images\results_problem_17\sample_0_0013.png,,,,,,,,,,,,,,,,,0,6,6,6,0,5,5,5,,,,,,,,,,,,,,j,17,B,B,3,1,Correct!,5.559133600007044,443.05404290001024,None,443.05404290001024,None,448.63709199998993,None,,,,,12,001,2023-04-27_16h57.04.162,uncolored_sorted,2021.2.3,60.01536393138096,
C:\Users\subject\Desktop\SVRT Experiments\SVRT Experiment 3\svrt_images\generated_images\results_problem_17,,C:\Users\subject\Desktop\SVRT Experiments\SVRT Experiment 3\svrt_images\generated_images\results_problem_10\sample_0_0012.png,C:\Users\subject\Desktop\SVRT Experiments\SVRT Experiment 3\svrt_images\generated_images\results_problem_12\sample_1_0013.png,C:\Users\subject\Desktop\SVRT Experiments\SVRT Experiment 3\svrt_images\generated_images\results_problem_1\sample_0_0002.png,C:\Users\subject\Desktop\SVRT Experiments\SVRT Experiment 3\svrt_images\generated_images\results_problem_6\sample_0_0002.png,C:\Users\subject\Desktop\SVRT Experiments\SVRT Experiment 3\svrt_images\generated_images\results_problem_14\sample_1_0004.png,C:\Users\subject\Desktop\SVRT Experiments\SVRT Experiment 3\svrt_images\generated_images\results_problem_17\sample_1_0005.png,,,,,,,,,,,,,,,,,0,6,6,6,0,6,6,6,,,,,,,,,,,,,,f,17,A,A,3,1,Correct!,1.644061099999817,449.73701620000065,None,449.73701620000065,None,451.4035755000077,None,,,,,12,001,2023-04-27_16h57.04.162,uncolored_sorted,2021.2.3,60.01536393138096,
C:\Users\subject\Desktop\SVRT Experiments\SVRT Experiment 3\svrt_images\generated_images\results_problem_17,,C:\Users\subject\Desktop\SVRT Experiments\SVRT Experiment 3\svrt_images\generated_images\results_problem_10\sample_0_0012.png,C:\Users\subject\Desktop\SVRT Experiments\SVRT Experiment 3\svrt_images\generated_images\results_problem_12\sample_1_0013.png,C:\Users\subject\Desktop\SVRT Experiments\SVRT Experiment 3\svrt_images\generated_images\results_problem_1\sample_0_0002.png,C:\Users\subject\Desktop\SVRT Experiments\SVRT Experiment 3\svrt_images\generated_images\results_problem_6\sample_0_0002.png,C:\Users\subject\Desktop\SVRT Experiments\SVRT Experiment 3\svrt_images\generated_images\results_problem_14\sample_1_0004.png,C:\Users\subject\Desktop\SVRT Experiments\SVRT Experiment 3\svrt_images\generated_images\results_problem_17\sample_1_0004.png,,,,,,,,,,,,,,,,,0,6,6,6,0,7,7,7,,,,,,,,,,,,,,j,17,B,A,3,0,Incorrect!,1.9015995000081602,452.50347590001184,None,452.50347590001184,None,454.4367274999968,None,,,,,12,001,2023-04-27_16h57.04.162,uncolored_sorted,2021.2.3,60.01536393138096,
C:\Users\subject\Desktop\SVRT Experiments\SVRT Experiment 3\svrt_images\generated_images\results_problem_17,,C:\Users\subject\Desktop\SVRT Experiments\SVRT Experiment 3\svrt_images\generated_images\results_problem_10\sample_0_0012.png,C:\Users\subject\Desktop\SVRT Experiments\SVRT Experiment 3\svrt_images\generated_images\results_problem_12\sample_1_0013.png,C:\Users\subject\Desktop\SVRT Experiments\SVRT Experiment 3\svrt_images\generated_images\results_problem_1\sample_0_0002.png,C:\Users\subject\Desktop\SVRT Experiments\SVRT Experiment 3\svrt_images\generated_images\results_problem_6\sample_0_0002.png,C:\Users\subject\Desktop\SVRT Experiments\SVRT Experiment 3\svrt_images\generated_images\results_problem_14\sample_1_0004.png,C:\Users\subject\Desktop\SVRT Experiments\SVRT Experiment 3\svrt_images\generated_images\results_problem_17\sample_1_0015.png,,,,,,,,,,,,,,,,,0,6,6,6,0,8,8,8,,,,,,,,,,,,,,j,17,B,A,3,0,Incorrect!,3.203814300009981,455.5533351000049,None,455.5533351000049,None,458.78654989998904,None,,,,,12,001,2023-04-27_16h57.04.162,uncolored_sorted,2021.2.3,60.01536393138096,
C:\Users\subject\Desktop\SVRT Experiments\SVRT Experiment 3\svrt_images\generated_images\results_problem_17,,C:\Users\subject\Desktop\SVRT Experiments\SVRT Experiment 3\svrt_images\generated_images\results_problem_10\sample_0_0012.png,C:\Users\subject\Desktop\SVRT Experiments\SVRT Experiment 3\svrt_images\generated_images\results_problem_12\sample_1_0013.png,C:\Users\subject\Desktop\SVRT Experiments\SVRT Experiment 3\svrt_images\generated_images\results_problem_1\sample_0_0002.png,C:\Users\subject\Desktop\SVRT Experiments\SVRT Experiment 3\svrt_images\generated_images\results_problem_6\sample_0_0002.png,C:\Users\subject\Desktop\SVRT Experiments\SVRT Experiment 3\svrt_images\generated_images\results_problem_14\sample_1_0004.png,C:\Users\subject\Desktop\SVRT Experiments\SVRT Experiment 3\svrt_images\generated_images\results_problem_17\sample_1_0003.png,,,,,,,,,,,,,,,,,0,6,6,6,0,9,9,9,,,,,,,,,,,,,,f,17,A,A,3,1,Correct!,1.1907383000070695,459.8864152999886,None,459.8864152999886,None,461.1028093000059,None,,,,,12,001,2023-04-27_16h57.04.162,uncolored_sorted,2021.2.3,60.01536393138096,
C:\Users\subject\Desktop\SVRT Experiments\SVRT Experiment 3\svrt_images\generated_images\results_problem_17,,C:\Users\subject\Desktop\SVRT Experiments\SVRT Experiment 3\svrt_images\generated_images\results_problem_10\sample_0_0012.png,C:\Users\subject\Desktop\SVRT Experiments\SVRT Experiment 3\svrt_images\generated_images\results_problem_12\sample_1_0013.png,C:\Users\subject\Desktop\SVRT Experiments\SVRT Experiment 3\svrt_images\generated_images\results_problem_1\sample_0_0002.png,C:\Users\subject\Desktop\SVRT Experiments\SVRT Experiment 3\svrt_images\generated_images\results_problem_6\sample_0_0002.png,C:\Users\subject\Desktop\SVRT Experiments\SVRT Experiment 3\svrt_images\generated_images\results_problem_14\sample_1_0004.png,C:\Users\subject\Desktop\SVRT Experiments\SVRT Experiment 3\svrt_images\generated_images\results_problem_17\sample_1_0001.png,,,,,,,,,,,,,,,,,0,6,6,6,0,10,10,10,,,,,,,,,,,,,,f,17,A,A,3,1,Correct!,1.3383406000211835,462.20275590001256,None,462.20275590001256,None,463.5695179000031,None,,,,,12,001,2023-04-27_16h57.04.162,uncolored_sorted,2021.2.3,60.01536393138096,
C:\Users\subject\Desktop\SVRT Experiments\SVRT Experiment 3\svrt_images\generated_images\results_problem_17,,C:\Users\subject\Desktop\SVRT Experiments\SVRT Experiment 3\svrt_images\generated_images\results_problem_10\sample_0_0012.png,C:\Users\subject\Desktop\SVRT Experiments\SVRT Experiment 3\svrt_images\generated_images\results_problem_12\sample_1_0013.png,C:\Users\subject\Desktop\SVRT Experiments\SVRT Experiment 3\svrt_images\generated_images\results_problem_1\sample_0_0002.png,C:\Users\subject\Desktop\SVRT Experiments\SVRT Experiment 3\svrt_images\generated_images\results_problem_6\sample_0_0002.png,C:\Users\subject\Desktop\SVRT Experiments\SVRT Experiment 3\svrt_images\generated_images\results_problem_14\sample_1_0004.png,C:\Users\subject\Desktop\SVRT Experiments\SVRT Experiment 3\svrt_images\generated_images\results_problem_17\sample_1_0011.png,,,,,,,,,,,,,,,,,0,6,6,6,0,11,11,11,,,,,,,,,,,,,,f,17,A,A,3,1,Correct!,1.0616314000217244,464.7194545000093,None,464.7194545000093,None,465.8030080999888,None,,,,,12,001,2023-04-27_16h57.04.162,uncolored_sorted,2021.2.3,60.01536393138096,
C:\Users\subject\Desktop\SVRT Experiments\SVRT Experiment 3\svrt_images\generated_images\results_problem_17,,C:\Users\subject\Desktop\SVRT Experiments\SVRT Experiment 3\svrt_images\generated_images\results_problem_10\sample_0_0012.png,C:\Users\subject\Desktop\SVRT Experiments\SVRT Experiment 3\svrt_images\generated_images\results_problem_12\sample_1_0013.png,C:\Users\subject\Desktop\SVRT Experiments\SVRT Experiment 3\svrt_images\generated_images\results_problem_1\sample_0_0002.png,C:\Users\subject\Desktop\SVRT Experiments\SVRT Experiment 3\svrt_images\generated_images\results_problem_6\sample_0_0002.png,C:\Users\subject\Desktop\SVRT Experiments\SVRT Experiment 3\svrt_images\generated_images\results_problem_14\sample_1_0004.png,C:\Users\subject\Desktop\SVRT Experiments\SVRT Experiment 3\svrt_images\generated_images\results_problem_17\sample_1_0000.png,,,,,,,,,,,,,,,,,0,6,6,6,0,12,12,12,,,,,,,,,,,,,,j,17,B,A,3,0,Incorrect!,2.701901499996893,466.9193193000101,None,466.9193193000101,None,469.65235550000216,None,,,,,12,001,2023-04-27_16h57.04.162,uncolored_sorted,2021.2.3,60.01536393138096,
C:\Users\subject\Desktop\SVRT Experiments\SVRT Experiment 3\svrt_images\generated_images\results_problem_17,,C:\Users\subject\Desktop\SVRT Experiments\SVRT Experiment 3\svrt_images\generated_images\results_problem_10\sample_0_0012.png,C:\Users\subject\Desktop\SVRT Experiments\SVRT Experiment 3\svrt_images\generated_images\results_problem_12\sample_1_0013.png,C:\Users\subject\Desktop\SVRT Experiments\SVRT Experiment 3\svrt_images\generated_images\results_problem_1\sample_0_0002.png,C:\Users\subject\Desktop\SVRT Experiments\SVRT Experiment 3\svrt_images\generated_images\results_problem_6\sample_0_0002.png,C:\Users\subject\Desktop\SVRT Experiments\SVRT Experiment 3\svrt_images\generated_images\results_problem_14\sample_1_0004.png,C:\Users\subject\Desktop\SVRT Experiments\SVRT Experiment 3\svrt_images\generated_images\results_problem_17\sample_1_0012.png,,,,,,,,,,,,,,,,,0,6,6,6,0,13,13,13,,,,,,,,,,,,,,f,17,A,A,3,1,Correct!,1.2190055999963079,470.8021949999966,None,470.8021949999966,None,472.0522675999964,None,,,,,12,001,2023-04-27_16h57.04.162,uncolored_sorted,2021.2.3,60.01536393138096,
C:\Users\subject\Desktop\SVRT Experiments\SVRT Experiment 3\svrt_images\generated_images\results_problem_17,,C:\Users\subject\Desktop\SVRT Experiments\SVRT Experiment 3\svrt_images\generated_images\results_problem_10\sample_0_0012.png,C:\Users\subject\Desktop\SVRT Experiments\SVRT Experiment 3\svrt_images\generated_images\results_problem_12\sample_1_0013.png,C:\Users\subject\Desktop\SVRT Experiments\SVRT Experiment 3\svrt_images\generated_images\results_problem_1\sample_0_0002.png,C:\Users\subject\Desktop\SVRT Experiments\SVRT Experiment 3\svrt_images\generated_images\results_problem_6\sample_0_0002.png,C:\Users\subject\Desktop\SVRT Experiments\SVRT Experiment 3\svrt_images\generated_images\results_problem_14\sample_1_0004.png,C:\Users\subject\Desktop\SVRT Experiments\SVRT Experiment 3\svrt_images\generated_images\results_problem_17\sample_0_0004.png,,,,,,,,,,,,,,,,,0,6,6,6,0,14,14,14,,,,,,,,,,,,,,f,17,A,B,3,0,Incorrect!,1.1861792999843601,473.2189600999991,None,473.2189600999991,None,474.4355716999853,None,,,,,12,001,2023-04-27_16h57.04.162,uncolored_sorted,2021.2.3,60.01536393138096,
C:\Users\subject\Desktop\SVRT Experiments\SVRT Experiment 3\svrt_images\generated_images\results_problem_17,,C:\Users\subject\Desktop\SVRT Experiments\SVRT Experiment 3\svrt_images\generated_images\results_problem_10\sample_0_0012.png,C:\Users\subject\Desktop\SVRT Experiments\SVRT Experiment 3\svrt_images\generated_images\results_problem_12\sample_1_0013.png,C:\Users\subject\Desktop\SVRT Experiments\SVRT Experiment 3\svrt_images\generated_images\results_problem_1\sample_0_0002.png,C:\Users\subject\Desktop\SVRT Experiments\SVRT Experiment 3\svrt_images\generated_images\results_problem_6\sample_0_0002.png,C:\Users\subject\Desktop\SVRT Experiments\SVRT Experiment 3\svrt_images\generated_images\results_problem_14\sample_1_0004.png,C:\Users\subject\Desktop\SVRT Experiments\SVRT Experiment 3\svrt_images\generated_images\results_problem_17\sample_0_0015.png,,,,,,,,,,,,,,,,,0,6,6,6,0,15,15,15,,,,,,,,,,,,,,f,17,A,B,3,0,Incorrect!,1.9389601000002585,475.6022118999972,None,475.6022118999972,None,477.5853882000083,None,,,,,12,001,2023-04-27_16h57.04.162,uncolored_sorted,2021.2.3,60.01536393138096,
C:\Users\subject\Desktop\SVRT Experiments\SVRT Experiment 3\svrt_images\generated_images\results_problem_17,,C:\Users\subject\Desktop\SVRT Experiments\SVRT Experiment 3\svrt_images\generated_images\results_problem_10\sample_0_0012.png,C:\Users\subject\Desktop\SVRT Experiments\SVRT Experiment 3\svrt_images\generated_images\results_problem_12\sample_1_0013.png,C:\Users\subject\Desktop\SVRT Experiments\SVRT Experiment 3\svrt_images\generated_images\results_problem_1\sample_0_0002.png,C:\Users\subject\Desktop\SVRT Experiments\SVRT Experiment 3\svrt_images\generated_images\results_problem_6\sample_0_0002.png,C:\Users\subject\Desktop\SVRT Experiments\SVRT Experiment 3\svrt_images\generated_images\results_problem_14\sample_1_0004.png,C:\Users\subject\Desktop\SVRT Experiments\SVRT Experiment 3\svrt_images\generated_images\results_problem_17\sample_1_0013.png,,,,,,,,,,,,,,,,,0,6,6,6,0,16,16,16,,,,,,,,,,,,,,j,17,B,A,3,0,Incorrect!,1.5731281000189483,478.7519925000088,None,478.7519925000088,None,480.3685724000097,None,,,,,12,001,2023-04-27_16h57.04.162,uncolored_sorted,2021.2.3,60.01536393138096,
C:\Users\subject\Desktop\SVRT Experiments\SVRT Experiment 3\svrt_images\generated_images\results_problem_17,,C:\Users\subject\Desktop\SVRT Experiments\SVRT Experiment 3\svrt_images\generated_images\results_problem_10\sample_0_0012.png,C:\Users\subject\Desktop\SVRT Experiments\SVRT Experiment 3\svrt_images\generated_images\results_problem_12\sample_1_0013.png,C:\Users\subject\Desktop\SVRT Experiments\SVRT Experiment 3\svrt_images\generated_images\results_problem_1\sample_0_0002.png,C:\Users\subject\Desktop\SVRT Experiments\SVRT Experiment 3\svrt_images\generated_images\results_problem_6\sample_0_0002.png,C:\Users\subject\Desktop\SVRT Experiments\SVRT Experiment 3\svrt_images\generated_images\results_problem_14\sample_1_0004.png,C:\Users\subject\Desktop\SVRT Experiments\SVRT Experiment 3\svrt_images\generated_images\results_problem_17\sample_0_0000.png,,,,,,,,,,,,,,,,,0,6,6,6,0,17,17,17,,,,,,,,,,,,,,j,17,B,B,3,1,Correct!,4.165958800003864,481.53515119999065,None,481.53515119999065,None,485.7183184000023,None,,,,,12,001,2023-04-27_16h57.04.162,uncolored_sorted,2021.2.3,60.01536393138096,
C:\Users\subject\Desktop\SVRT Experiments\SVRT Experiment 3\svrt_images\generated_images\results_problem_17,,C:\Users\subject\Desktop\SVRT Experiments\SVRT Experiment 3\svrt_images\generated_images\results_problem_10\sample_0_0012.png,C:\Users\subject\Desktop\SVRT Experiments\SVRT Experiment 3\svrt_images\generated_images\results_problem_12\sample_1_0013.png,C:\Users\subject\Desktop\SVRT Experiments\SVRT Experiment 3\svrt_images\generated_images\results_problem_1\sample_0_0002.png,C:\Users\subject\Desktop\SVRT Experiments\SVRT Experiment 3\svrt_images\generated_images\results_problem_6\sample_0_0002.png,C:\Users\subject\Desktop\SVRT Experiments\SVRT Experiment 3\svrt_images\generated_images\results_problem_14\sample_1_0004.png,C:\Users\subject\Desktop\SVRT Experiments\SVRT Experiment 3\svrt_images\generated_images\results_problem_17\sample_1_0006.png,,,,,,,,,,,,,,,,,0,6,6,6,0,18,18,18,,,,,,,,,,,,,,j,17,B,A,3,0,Incorrect!,6.68652759998804,486.9345939999912,None,486.9345939999912,None,493.651137799985,None,,,,,12,001,2023-04-27_16h57.04.162,uncolored_sorted,2021.2.3,60.01536393138096,
C:\Users\subject\Desktop\SVRT Experiments\SVRT Experiment 3\svrt_images\generated_images\results_problem_17,,C:\Users\subject\Desktop\SVRT Experiments\SVRT Experiment 3\svrt_images\generated_images\results_problem_10\sample_0_0012.png,C:\Users\subject\Desktop\SVRT Experiments\SVRT Experiment 3\svrt_images\generated_images\results_problem_12\sample_1_0013.png,C:\Users\subject\Desktop\SVRT Experiments\SVRT Experiment 3\svrt_images\generated_images\results_problem_1\sample_0_0002.png,C:\Users\subject\Desktop\SVRT Experiments\SVRT Experiment 3\svrt_images\generated_images\results_problem_6\sample_0_0002.png,C:\Users\subject\Desktop\SVRT Experiments\SVRT Experiment 3\svrt_images\generated_images\results_problem_14\sample_1_0004.png,C:\Users\subject\Desktop\SVRT Experiments\SVRT Experiment 3\svrt_images\generated_images\results_problem_17\sample_1_0007.png,,,,,,,,,,,,,,,,,0,6,6,6,0,19,19,19,,,,,,,,,,,,,,j,17,B,A,3,0,Incorrect!,4.594124199997168,494.8510595000116,None,494.8510595000116,None,499.4675091000099,None,,,,,12,001,2023-04-27_16h57.04.162,uncolored_sorted,2021.2.3,60.01536393138096,
C:\Users\subject\Desktop\SVRT Experiments\SVRT Experiment 3\svrt_images\generated_images\results_problem_17,,C:\Users\subject\Desktop\SVRT Experiments\SVRT Experiment 3\svrt_images\generated_images\results_problem_10\sample_0_0012.png,C:\Users\subject\Desktop\SVRT Experiments\SVRT Experiment 3\svrt_images\generated_images\results_problem_12\sample_1_0013.png,C:\Users\subject\Desktop\SVRT Experiments\SVRT Experiment 3\svrt_images\generated_images\results_problem_1\sample_0_0002.png,C:\Users\subject\Desktop\SVRT Experiments\SVRT Experiment 3\svrt_images\generated_images\results_problem_6\sample_0_0002.png,C:\Users\subject\Desktop\SVRT Experiments\SVRT Experiment 3\svrt_images\generated_images\results_problem_14\sample_1_0004.png,C:\Users\subject\Desktop\SVRT Experiments\SVRT Experiment 3\svrt_images\generated_images\results_problem_17\sample_1_0002.png,,,,,,,,,,,,,,,,,0,6,6,6,0,20,20,20,,,,,,,,,,,,,,f,17,A,A,3,1,Correct!,2.473057399998652,500.6840418000065,None,500.6840418000065,None,503.200551499991,None,,,,,12,001,2023-04-27_16h57.04.162,uncolored_sorted,2021.2.3,60.01536393138096,
C:\Users\subject\Desktop\SVRT Experiments\SVRT Experiment 3\svrt_images\generated_images\results_problem_17,,C:\Users\subject\Desktop\SVRT Experiments\SVRT Experiment 3\svrt_images\generated_images\results_problem_10\sample_0_0012.png,C:\Users\subject\Desktop\SVRT Experiments\SVRT Experiment 3\svrt_images\generated_images\results_problem_12\sample_1_0013.png,C:\Users\subject\Desktop\SVRT Experiments\SVRT Experiment 3\svrt_images\generated_images\results_problem_1\sample_0_0002.png,C:\Users\subject\Desktop\SVRT Experiments\SVRT Experiment 3\svrt_images\generated_images\results_problem_6\sample_0_0002.png,C:\Users\subject\Desktop\SVRT Experiments\SVRT Experiment 3\svrt_images\generated_images\results_problem_14\sample_1_0004.png,C:\Users\subject\Desktop\SVRT Experiments\SVRT Experiment 3\svrt_images\generated_images\results_problem_17\sample_0_0003.png,,,,,,,,,,,,,,,,,0,6,6,6,0,21,21,21,,,,,,,,,,,,,,f,17,A,B,3,0,Incorrect!,2.593910700001288,504.4672428999911,None,504.4672428999911,None,507.0837621999963,None,,,,,12,001,2023-04-27_16h57.04.162,uncolored_sorted,2021.2.3,60.01536393138096,
C:\Users\subject\Desktop\SVRT Experiments\SVRT Experiment 3\svrt_images\generated_images\results_problem_17,,C:\Users\subject\Desktop\SVRT Experiments\SVRT Experiment 3\svrt_images\generated_images\results_problem_10\sample_0_0012.png,C:\Users\subject\Desktop\SVRT Experiments\SVRT Experiment 3\svrt_images\generated_images\results_problem_12\sample_1_0013.png,C:\Users\subject\Desktop\SVRT Experiments\SVRT Experiment 3\svrt_images\generated_images\results_problem_1\sample_0_0002.png,C:\Users\subject\Desktop\SVRT Experiments\SVRT Experiment 3\svrt_images\generated_images\results_problem_6\sample_0_0002.png,C:\Users\subject\Desktop\SVRT Experiments\SVRT Experiment 3\svrt_images\generated_images\results_problem_14\sample_1_0004.png,C:\Users\subject\Desktop\SVRT Experiments\SVRT Experiment 3\svrt_images\generated_images\results_problem_17\sample_1_0010.png,,,,,,,,,,,,,,,,,0,6,6,6,0,22,22,22,,,,,,,,,,,,,,f,17,A,A,3,1,Correct!,0.7835990999883506,508.46969450000324,None,508.46969450000324,None,509.2836355000036,None,,,,,12,001,2023-04-27_16h57.04.162,uncolored_sorted,2021.2.3,60.01536393138096,
C:\Users\subject\Desktop\SVRT Experiments\SVRT Experiment 3\svrt_images\generated_images\results_problem_17,,C:\Users\subject\Desktop\SVRT Experiments\SVRT Experiment 3\svrt_images\generated_images\results_problem_10\sample_0_0012.png,C:\Users\subject\Desktop\SVRT Experiments\SVRT Experiment 3\svrt_images\generated_images\results_problem_12\sample_1_0013.png,C:\Users\subject\Desktop\SVRT Experiments\SVRT Experiment 3\svrt_images\generated_images\results_problem_1\sample_0_0002.png,C:\Users\subject\Desktop\SVRT Experiments\SVRT Experiment 3\svrt_images\generated_images\results_problem_6\sample_0_0002.png,C:\Users\subject\Desktop\SVRT Experiments\SVRT Experiment 3\svrt_images\generated_images\results_problem_14\sample_1_0004.png,C:\Users\subject\Desktop\SVRT Experiments\SVRT Experiment 3\svrt_images\generated_images\results_problem_17\sample_0_0007.png,,,,,,,,,,,,,,,,,0,6,6,6,0,23,23,23,,,,,,,,,,,,,,f,17,A,B,3,0,Incorrect!,7.184407200023998,510.5167887000134,None,510.5167887000134,None,517.7331629999971,None,,,,,12,001,2023-04-27_16h57.04.162,uncolored_sorted,2021.2.3,60.01536393138096,
C:\Users\subject\Desktop\SVRT Experiments\SVRT Experiment 3\svrt_images\generated_images\results_problem_17,,C:\Users\subject\Desktop\SVRT Experiments\SVRT Experiment 3\svrt_images\generated_images\results_problem_10\sample_0_0012.png,C:\Users\subject\Desktop\SVRT Experiments\SVRT Experiment 3\svrt_images\generated_images\results_problem_12\sample_1_0013.png,C:\Users\subject\Desktop\SVRT Experiments\SVRT Experiment 3\svrt_images\generated_images\results_problem_1\sample_0_0002.png,C:\Users\subject\Desktop\SVRT Experiments\SVRT Experiment 3\svrt_images\generated_images\results_problem_6\sample_0_0002.png,C:\Users\subject\Desktop\SVRT Experiments\SVRT Experiment 3\svrt_images\generated_images\results_problem_14\sample_1_0004.png,C:\Users\subject\Desktop\SVRT Experiments\SVRT Experiment 3\svrt_images\generated_images\results_problem_17\sample_1_0008.png,,,,,,,,,,,,,,,,,0,6,6,6,0,24,24,24,,,,,,,,,,,,,,f,17,A,A,3,1,Correct!,0.9743383000022732,518.9828299999936,None,518.9828299999936,None,519.99962029999,None,,,,,12,001,2023-04-27_16h57.04.162,uncolored_sorted,2021.2.3,60.01536393138096,
C:\Users\subject\Desktop\SVRT Experiments\SVRT Experiment 3\svrt_images\generated_images\results_problem_17,,C:\Users\subject\Desktop\SVRT Experiments\SVRT Experiment 3\svrt_images\generated_images\results_problem_10\sample_0_0012.png,C:\Users\subject\Desktop\SVRT Experiments\SVRT Experiment 3\svrt_images\generated_images\results_problem_12\sample_1_0013.png,C:\Users\subject\Desktop\SVRT Experiments\SVRT Experiment 3\svrt_images\generated_images\results_problem_1\sample_0_0002.png,C:\Users\subject\Desktop\SVRT Experiments\SVRT Experiment 3\svrt_images\generated_images\results_problem_6\sample_0_0002.png,C:\Users\subject\Desktop\SVRT Experiments\SVRT Experiment 3\svrt_images\generated_images\results_problem_14\sample_1_0004.png,C:\Users\subject\Desktop\SVRT Experiments\SVRT Experiment 3\svrt_images\generated_images\results_problem_17\sample_0_0014.png,,,,,,,,,,,,,,,,,0,6,6,6,0,25,25,25,,,,,,,,,,,,,,j,17,B,B,3,1,Correct!,1.4909700000134762,521.2661773999862,None,521.2661773999862,None,522.7827868000022,None,,,,,12,001,2023-04-27_16h57.04.162,uncolored_sorted,2021.2.3,60.01536393138096,
C:\Users\subject\Desktop\SVRT Experiments\SVRT Experiment 3\svrt_images\generated_images\results_problem_17,,C:\Users\subject\Desktop\SVRT Experiments\SVRT Experiment 3\svrt_images\generated_images\results_problem_10\sample_0_0012.png,C:\Users\subject\Desktop\SVRT Experiments\SVRT Experiment 3\svrt_images\generated_images\results_problem_12\sample_1_0013.png,C:\Users\subject\Desktop\SVRT Experiments\SVRT Experiment 3\svrt_images\generated_images\results_problem_1\sample_0_0002.png,C:\Users\subject\Desktop\SVRT Experiments\SVRT Experiment 3\svrt_images\generated_images\results_problem_6\sample_0_0002.png,C:\Users\subject\Desktop\SVRT Experiments\SVRT Experiment 3\svrt_images\generated_images\results_problem_14\sample_1_0004.png,C:\Users\subject\Desktop\SVRT Experiments\SVRT Experiment 3\svrt_images\generated_images\results_problem_17\sample_0_0016.png,,,,,,,,,,,,,,,,,0,6,6,6,0,26,26,26,,,,,,,,,,,,,,j,17,B,B,3,1,Correct!,1.0104757999943104,524.0827069999941,None,524.0827069999941,None,525.1493546999991,None,,,,,12,001,2023-04-27_16h57.04.162,uncolored_sorted,2021.2.3,60.01536393138096,
C:\Users\subject\Desktop\SVRT Experiments\SVRT Experiment 3\svrt_images\generated_images\results_problem_17,,C:\Users\subject\Desktop\SVRT Experiments\SVRT Experiment 3\svrt_images\generated_images\results_problem_10\sample_0_0012.png,C:\Users\subject\Desktop\SVRT Experiments\SVRT Experiment 3\svrt_images\generated_images\results_problem_12\sample_1_0013.png,C:\Users\subject\Desktop\SVRT Experiments\SVRT Experiment 3\svrt_images\generated_images\results_problem_1\sample_0_0002.png,C:\Users\subject\Desktop\SVRT Experiments\SVRT Experiment 3\svrt_images\generated_images\results_problem_6\sample_0_0002.png,C:\Users\subject\Desktop\SVRT Experiments\SVRT Experiment 3\svrt_images\generated_images\results_problem_14\sample_1_0004.png,C:\Users\subject\Desktop\SVRT Experiments\SVRT Experiment 3\svrt_images\generated_images\results_problem_17\sample_1_0016.png,,,,,,,,,,,,,,,,,0,6,6,6,0,27,27,27,,,,,,,,,,,,,,f,17,A,A,3,1,Correct!,4.244649600004777,526.4325780000072,None,526.4325780000072,None,530.6989804999903,None,,,,,12,001,2023-04-27_16h57.04.162,uncolored_sorted,2021.2.3,60.01536393138096,
C:\Users\subject\Desktop\SVRT Experiments\SVRT Experiment 3\svrt_images\generated_images\results_problem_17,,C:\Users\subject\Desktop\SVRT Experiments\SVRT Experiment 3\svrt_images\generated_images\results_problem_10\sample_0_0012.png,C:\Users\subject\Desktop\SVRT Experiments\SVRT Experiment 3\svrt_images\generated_images\results_problem_12\sample_1_0013.png,C:\Users\subject\Desktop\SVRT Experiments\SVRT Experiment 3\svrt_images\generated_images\results_problem_1\sample_0_0002.png,C:\Users\subject\Desktop\SVRT Experiments\SVRT Experiment 3\svrt_images\generated_images\results_problem_6\sample_0_0002.png,C:\Users\subject\Desktop\SVRT Experiments\SVRT Experiment 3\svrt_images\generated_images\results_problem_14\sample_1_0004.png,C:\Users\subject\Desktop\SVRT Experiments\SVRT Experiment 3\svrt_images\generated_images\results_problem_17\sample_0_0010.png,,,,,,,,,,,,,,,,,0,6,6,6,0,28,28,28,,,,,,,,,,,,,,j,17,B,B,3,1,Correct!,3.590320999996038,531.9989532000036,None,531.9989532000036,None,535.6321225999855,None,,,,,12,001,2023-04-27_16h57.04.162,uncolored_sorted,2021.2.3,60.01536393138096,
C:\Users\subject\Desktop\SVRT Experiments\SVRT Experiment 3\svrt_images\generated_images\results_problem_17,,C:\Users\subject\Desktop\SVRT Experiments\SVRT Experiment 3\svrt_images\generated_images\results_problem_10\sample_0_0012.png,C:\Users\subject\Desktop\SVRT Experiments\SVRT Experiment 3\svrt_images\generated_images\results_problem_12\sample_1_0013.png,C:\Users\subject\Desktop\SVRT Experiments\SVRT Experiment 3\svrt_images\generated_images\results_problem_1\sample_0_0002.png,C:\Users\subject\Desktop\SVRT Experiments\SVRT Experiment 3\svrt_images\generated_images\results_problem_6\sample_0_0002.png,C:\Users\subject\Desktop\SVRT Experiments\SVRT Experiment 3\svrt_images\generated_images\results_problem_14\sample_1_0004.png,C:\Users\subject\Desktop\SVRT Experiments\SVRT Experiment 3\svrt_images\generated_images\results_problem_17\sample_0_0001.png,,,,,,,,,,,,,,,,,0,6,6,6,0,29,29,29,,,,,,,,,,,,,,f,17,A,B,3,0,Incorrect!,8.288136399991345,536.965102999995,None,536.965102999995,None,545.3147635000059,None,,,,,12,001,2023-04-27_16h57.04.162,uncolored_sorted,2021.2.3,60.01536393138096,
C:\Users\subject\Desktop\SVRT Experiments\SVRT Experiment 3\svrt_images\generated_images\results_problem_17,,C:\Users\subject\Desktop\SVRT Experiments\SVRT Experiment 3\svrt_images\generated_images\results_problem_10\sample_0_0012.png,C:\Users\subject\Desktop\SVRT Experiments\SVRT Experiment 3\svrt_images\generated_images\results_problem_12\sample_1_0013.png,C:\Users\subject\Desktop\SVRT Experiments\SVRT Experiment 3\svrt_images\generated_images\results_problem_1\sample_0_0002.png,C:\Users\subject\Desktop\SVRT Experiments\SVRT Experiment 3\svrt_images\generated_images\results_problem_6\sample_0_0002.png,C:\Users\subject\Desktop\SVRT Experiments\SVRT Experiment 3\svrt_images\generated_images\results_problem_14\sample_1_0004.png,C:\Users\subject\Desktop\SVRT Experiments\SVRT Experiment 3\svrt_images\generated_images\results_problem_17\sample_1_0014.png,,,,,,,,,,,,,,,,,0,6,6,6,0,30,30,30,,,,,,,,,,,,,,f,17,A,A,3,1,Correct!,0.8450293999921996,546.6481266999908,None,546.6481266999908,None,547.5480583999888,None,,,,,12,001,2023-04-27_16h57.04.162,uncolored_sorted,2021.2.3,60.01536393138096,
C:\Users\subject\Desktop\SVRT Experiments\SVRT Experiment 3\svrt_images\generated_images\results_problem_17,,C:\Users\subject\Desktop\SVRT Experiments\SVRT Experiment 3\svrt_images\generated_images\results_problem_10\sample_0_0012.png,C:\Users\subject\Desktop\SVRT Experiments\SVRT Experiment 3\svrt_images\generated_images\results_problem_12\sample_1_0013.png,C:\Users\subject\Desktop\SVRT Experiments\SVRT Experiment 3\svrt_images\generated_images\results_problem_1\sample_0_0002.png,C:\Users\subject\Desktop\SVRT Experiments\SVRT Experiment 3\svrt_images\generated_images\results_problem_6\sample_0_0002.png,C:\Users\subject\Desktop\SVRT Experiments\SVRT Experiment 3\svrt_images\generated_images\results_problem_14\sample_1_0004.png,C:\Users\subject\Desktop\SVRT Experiments\SVRT Experiment 3\svrt_images\generated_images\results_problem_17\sample_0_0012.png,,,,,,,,,,,,,,,,,0,6,6,6,0,31,31,31,,,,,,,,,,,,,,f,17,A,B,3,0,Incorrect!,6.01978840000811,548.8813259000017,None,548.8813259000017,None,554.9643348999962,None,,,,,12,001,2023-04-27_16h57.04.162,uncolored_sorted,2021.2.3,60.01536393138096,
C:\Users\subject\Desktop\SVRT Experiments\SVRT Experiment 3\svrt_images\generated_images\results_problem_17,,C:\Users\subject\Desktop\SVRT Experiments\SVRT Experiment 3\svrt_images\generated_images\results_problem_10\sample_0_0012.png,C:\Users\subject\Desktop\SVRT Experiments\SVRT Experiment 3\svrt_images\generated_images\results_problem_12\sample_1_0013.png,C:\Users\subject\Desktop\SVRT Experiments\SVRT Experiment 3\svrt_images\generated_images\results_problem_1\sample_0_0002.png,C:\Users\subject\Desktop\SVRT Experiments\SVRT Experiment 3\svrt_images\generated_images\results_problem_6\sample_0_0002.png,C:\Users\subject\Desktop\SVRT Experiments\SVRT Experiment 3\svrt_images\generated_images\results_problem_14\sample_1_0004.png,C:\Users\subject\Desktop\SVRT Experiments\SVRT Experiment 3\svrt_images\generated_images\results_problem_17\sample_0_0005.png,,,,,,,,,,,,,,,,,0,6,6,6,0,32,32,32,,,,,,,,,,,,,,f,17,A,B,3,0,Incorrect!,0.8590129000076558,556.3142330000119,None,556.3142330000119,None,557.247520600009,None,,,,,12,001,2023-04-27_16h57.04.162,uncolored_sorted,2021.2.3,60.01536393138096,
C:\Users\subject\Desktop\SVRT Experiments\SVRT Experiment 3\svrt_images\generated_images\results_problem_17,,C:\Users\subject\Desktop\SVRT Experiments\SVRT Experiment 3\svrt_images\generated_images\results_problem_10\sample_0_0012.png,C:\Users\subject\Desktop\SVRT Experiments\SVRT Experiment 3\svrt_images\generated_images\results_problem_12\sample_1_0013.png,C:\Users\subject\Desktop\SVRT Experiments\SVRT Experiment 3\svrt_images\generated_images\results_problem_1\sample_0_0002.png,C:\Users\subject\Desktop\SVRT Experiments\SVRT Experiment 3\svrt_images\generated_images\results_problem_6\sample_0_0002.png,C:\Users\subject\Desktop\SVRT Experiments\SVRT Experiment 3\svrt_images\generated_images\results_problem_14\sample_1_0004.png,C:\Users\subject\Desktop\SVRT Experiments\SVRT Experiment 3\svrt_images\generated_images\results_problem_17\sample_0_0008.png,,,,,,,,,,,,,,,,,0,6,6,6,0,33,33,33,,,,,,,,,,,,,,f,17,A,B,3,0,Incorrect!,1.0397518000099808,558.5974361000117,None,558.5974361000117,None,559.6973419999995,None,,,,,12,001,2023-04-27_16h57.04.162,uncolored_sorted,2021.2.3,60.01536393138096,
C:\Users\subject\Desktop\SVRT Experiments\SVRT Experiment 3\svrt_images\generated_images\results_problem_17,,C:\Users\subject\Desktop\SVRT Experiments\SVRT Experiment 3\svrt_images\generated_images\results_problem_10\sample_0_0012.png,C:\Users\subject\Desktop\SVRT Experiments\SVRT Experiment 3\svrt_images\generated_images\results_problem_12\sample_1_0013.png,C:\Users\subject\Desktop\SVRT Experiments\SVRT Experiment 3\svrt_images\generated_images\results_problem_1\sample_0_0002.png,C:\Users\subject\Desktop\SVRT Experiments\SVRT Experiment 3\svrt_images\generated_images\results_problem_6\sample_0_0002.png,C:\Users\subject\Desktop\SVRT Experiments\SVRT Experiment 3\svrt_images\generated_images\results_problem_14\sample_1_0004.png,,,,,,,,,,,,,,,,,,0,6,6,6,0,8,8,8,,,,,,,,,,,,,,,,,,,,,,,,,,,,560.6972981999861,560.6972981999861,space,1.0358398999960627,12,001,2023-04-27_16h57.04.162,uncolored_sorted,2021.2.3,60.01536393138096,
C:\Users\subject\Desktop\SVRT Experiments\SVRT Experiment 3\svrt_images\generated_images\results_problem_4,,C:\Users\subject\Desktop\SVRT Experiments\SVRT Experiment 3\svrt_images\generated_images\results_problem_10\sample_0_0012.png,C:\Users\subject\Desktop\SVRT Experiments\SVRT Experiment 3\svrt_images\generated_images\results_problem_12\sample_1_0013.png,C:\Users\subject\Desktop\SVRT Experiments\SVRT Experiment 3\svrt_images\generated_images\results_problem_1\sample_0_0002.png,C:\Users\subject\Desktop\SVRT Experiments\SVRT Experiment 3\svrt_images\generated_images\results_problem_6\sample_0_0002.png,C:\Users\subject\Desktop\SVRT Experiments\SVRT Experiment 3\svrt_images\generated_images\results_problem_14\sample_1_0004.png,,C:\Users\subject\Desktop\SVRT Experiments\SVRT Experiment 3\svrt_images\generated_images\results_problem_4\sample_1_0012.png,,,,,,,,,,,,,,,,0,7,7,7,0,0,0,0,,,,,,,,,,,,,,j,4,B,A,3,0,Incorrect!,1.9440485000086483,561.9810916999995,None,561.9810916999995,None,563.9472259999893,None,,,,,12,001,2023-04-27_16h57.04.162,uncolored_sorted,2021.2.3,60.01536393138096,
C:\Users\subject\Desktop\SVRT Experiments\SVRT Experiment 3\svrt_images\generated_images\results_problem_4,,C:\Users\subject\Desktop\SVRT Experiments\SVRT Experiment 3\svrt_images\generated_images\results_problem_10\sample_0_0012.png,C:\Users\subject\Desktop\SVRT Experiments\SVRT Experiment 3\svrt_images\generated_images\results_problem_12\sample_1_0013.png,C:\Users\subject\Desktop\SVRT Experiments\SVRT Experiment 3\svrt_images\generated_images\results_problem_1\sample_0_0002.png,C:\Users\subject\Desktop\SVRT Experiments\SVRT Experiment 3\svrt_images\generated_images\results_problem_6\sample_0_0002.png,C:\Users\subject\Desktop\SVRT Experiments\SVRT Experiment 3\svrt_images\generated_images\results_problem_14\sample_1_0004.png,,C:\Users\subject\Desktop\SVRT Experiments\SVRT Experiment 3\svrt_images\generated_images\results_problem_4\sample_1_0011.png,,,,,,,,,,,,,,,,0,7,7,7,0,1,1,1,,,,,,,,,,,,,,f,4,A,A,3,1,Correct!,1.1840035000059288,564.9972396999947,None,564.9972396999947,None,566.214168800012,None,,,,,12,001,2023-04-27_16h57.04.162,uncolored_sorted,2021.2.3,60.01536393138096,
