folder,results_problem_16,results_problem_3,results_problem_19,results_problem_21,results_problem_2,results_problem_1,results_problem_11,results_problem_20,results_problem_7,results_problem_15,results_problem_23,results_problem_22,results_problem_9,results_problem_5,results_problem_4,results_problem_17,results_problem_8,results_problem_6,results_problem_13,results_problem_12,results_problem_14,results_problem_18,results_problem_10,categories.thisRepN,categories.thisTrialN,categories.thisN,categories.thisIndex,trials.thisRepN,trials.thisTrialN,trials.thisN,trials.thisIndex,consent_text.started,consent_kb.started,consent_kb.keys,consent_kb.rt,Gender.keys,Gender.rt,Age,instructions_text.started,instructions_text.stopped,instructions_kb.keys,instructions_kb.rt,instructions_kb.started,instructions_kb.stopped,trial_kb.keys,current_problem_num,category_resp,answer,seed,accuracy,feedback,trial_kb.rt,trial_kb.started,trial_kb.stopped,trial_image.started,trial_image.stopped,feedback_text.started,feedback_text.stopped,new_problem_kb.started,new_problem_text.started,new_problem_kb.keys,new_problem_kb.rt,Participant #,session,date,expName,psychopyVersion,frameRate,
,,,,,,,,,,,,,,,,,,,,,,,,,,,,,,,,22.31454470000017,22.31454470000017,y,20.89642200000003,,,,,,,,,,,,,,,,,,,,,,,,,,,,22,001,2023-05-03_10h34.32.866,colored_sorted,2021.2.3,59.99055748623594,
,,,,,,,,,,,,,,,,,,,,,,,,,,,,,,,,,,,,w,7.853533299999981,,,,,,,,,,,,,,,,,,,,,,,,,,22,001,2023-05-03_10h34.32.866,colored_sorted,2021.2.3,59.99055748623594,
,,,,,,,,,,,,,,,,,,,,,,,,,,,,,,,,,,,,,,21,57.2621551000002,None,space,34.81257310000001,57.2621551000002,None,,,,,,,,,,,,,,,,,,,22,001,2023-05-03_10h34.32.866,colored_sorted,2021.2.3,59.99055748623594,
C:\Users\subject\Desktop\SVRT Experiments\SVRT Experiment 3\svrt_images\generated_images\results_problem_16,C:\Users\subject\Desktop\SVRT Experiments\SVRT Experiment 3\svrt_images\generated_images\results_problem_16\sample_0_0010.png,,,,,,,,,,,,,,,,,,,,,,,0,0,0,0,0,0,0,0,,,,,,,,,,,,,,f,16,A,B,6,0,Incorrect!,13.467296899999837,92.1595169000002,None,92.1595169000002,None,105.6757292000002,None,,,,,22,001,2023-05-03_10h34.32.866,colored_sorted,2021.2.3,59.99055748623594,
C:\Users\subject\Desktop\SVRT Experiments\SVRT Experiment 3\svrt_images\generated_images\results_problem_16,C:\Users\subject\Desktop\SVRT Experiments\SVRT Experiment 3\svrt_images\generated_images\results_problem_16\sample_0_0004.png,,,,,,,,,,,,,,,,,,,,,,,0,0,0,0,0,1,1,1,,,,,,,,,,,,,,j,16,B,B,6,1,Correct!,1.9252340999998978,106.72567000000004,None,106.72567000000004,None,108.67507810000006,None,,,,,22,001,2023-05-03_10h34.32.866,colored_sorted,2021.2.3,59.99055748623594,
C:\Users\subject\Desktop\SVRT Experiments\SVRT Experiment 3\svrt_images\generated_images\results_problem_16,C:\Users\subject\Desktop\SVRT Experiments\SVRT Experiment 3\svrt_images\generated_images\results_problem_16\sample_0_0001.png,,,,,,,,,,,,,,,,,,,,,,,0,0,0,0,0,2,2,2,,,,,,,,,,,,,,j,16,B,B,6,1,Correct!,0.6857551000000512,109.72504710000021,None,109.72504710000021,None,110.44209190000015,None,,,,,22,001,2023-05-03_10h34.32.866,colored_sorted,2021.2.3,59.99055748623594,
C:\Users\subject\Desktop\SVRT Experiments\SVRT Experiment 3\svrt_images\generated_images\results_problem_16,C:\Users\subject\Desktop\SVRT Experiments\SVRT Experiment 3\svrt_images\generated_images\results_problem_16\sample_1_0002.png,,,,,,,,,,,,,,,,,,,,,,,0,0,0,0,0,3,3,3,,,,,,,,,,,,,,j,16,B,A,6,0,Incorrect!,0.4861742000000504,111.5086815000002,None,111.5086815000002,None,112.0252587,None,,,,,22,001,2023-05-03_10h34.32.866,colored_sorted,2021.2.3,59.99055748623594,
C:\Users\subject\Desktop\SVRT Experiments\SVRT Experiment 3\svrt_images\generated_images\results_problem_16,C:\Users\subject\Desktop\SVRT Experiments\SVRT Experiment 3\svrt_images\generated_images\results_problem_16\sample_1_0008.png,,,,,,,,,,,,,,,,,,,,,,,0,0,0,0,0,4,4,4,,,,,,,,,,,,,,f,16,A,A,6,1,Correct!,0.4225123999999596,113.10851750000006,None,113.10851750000006,None,113.55851430000007,None,,,,,22,001,2023-05-03_10h34.32.866,colored_sorted,2021.2.3,59.99055748623594,
C:\Users\subject\Desktop\SVRT Experiments\SVRT Experiment 3\svrt_images\generated_images\results_problem_16,C:\Users\subject\Desktop\SVRT Experiments\SVRT Experiment 3\svrt_images\generated_images\results_problem_16\sample_1_0014.png,,,,,,,,,,,,,,,,,,,,,,,0,0,0,0,0,5,5,5,,,,,,,,,,,,,,f,16,A,A,6,1,Correct!,0.49713520000000244,114.84186710000017,None,114.84186710000017,None,115.3579149000002,None,,,,,22,001,2023-05-03_10h34.32.866,colored_sorted,2021.2.3,59.99055748623594,
C:\Users\subject\Desktop\SVRT Experiments\SVRT Experiment 3\svrt_images\generated_images\results_problem_16,C:\Users\subject\Desktop\SVRT Experiments\SVRT Experiment 3\svrt_images\generated_images\results_problem_16\sample_1_0016.png,,,,,,,,,,,,,,,,,,,,,,,0,0,0,0,0,6,6,6,,,,,,,,,,,,,,f,16,A,A,6,1,Correct!,0.38428509999994276,116.47454330000005,None,116.47454330000005,None,116.8912123,None,,,,,22,001,2023-05-03_10h34.32.866,colored_sorted,2021.2.3,59.99055748623594,
C:\Users\subject\Desktop\SVRT Experiments\SVRT Experiment 3\svrt_images\generated_images\results_problem_16,C:\Users\subject\Desktop\SVRT Experiments\SVRT Experiment 3\svrt_images\generated_images\results_problem_16\sample_0_0015.png,,,,,,,,,,,,,,,,,,,,,,,0,0,0,0,0,7,7,7,,,,,,,,,,,,,,f,16,A,B,6,0,Incorrect!,0.5487264000000778,117.97419980000018,None,117.97419980000018,None,118.54107500000009,None,,,,,22,001,2023-05-03_10h34.32.866,colored_sorted,2021.2.3,59.99055748623594,
C:\Users\subject\Desktop\SVRT Experiments\SVRT Experiment 3\svrt_images\generated_images\results_problem_16,C:\Users\subject\Desktop\SVRT Experiments\SVRT Experiment 3\svrt_images\generated_images\results_problem_16\sample_1_0009.png,,,,,,,,,,,,,,,,,,,,,,,0,0,0,0,0,8,8,8,,,,,,,,,,,,,,j,16,B,A,6,0,Incorrect!,0.5929885000000468,119.65768820000017,None,119.65768820000017,None,120.27426690000016,None,,,,,22,001,2023-05-03_10h34.32.866,colored_sorted,2021.2.3,59.99055748623594,
C:\Users\subject\Desktop\SVRT Experiments\SVRT Experiment 3\svrt_images\generated_images\results_problem_16,C:\Users\subject\Desktop\SVRT Experiments\SVRT Experiment 3\svrt_images\generated_images\results_problem_16\sample_1_0005.png,,,,,,,,,,,,,,,,,,,,,,,0,0,0,0,0,9,9,9,,,,,,,,,,,,,,j,16,B,A,6,0,Incorrect!,0.40896840000004886,121.47419420000006,None,121.47419420000006,None,121.90750060000005,None,,,,,22,001,2023-05-03_10h34.32.866,colored_sorted,2021.2.3,59.99055748623594,
C:\Users\subject\Desktop\SVRT Experiments\SVRT Experiment 3\svrt_images\generated_images\results_problem_16,C:\Users\subject\Desktop\SVRT Experiments\SVRT Experiment 3\svrt_images\generated_images\results_problem_16\sample_1_0001.png,,,,,,,,,,,,,,,,,,,,,,,0,0,0,0,0,10,10,10,,,,,,,,,,,,,,f,16,A,A,6,1,Correct!,2.2193584999999985,123.00743800000009,None,123.00743800000009,None,125.25711020000017,None,,,,,22,001,2023-05-03_10h34.32.866,colored_sorted,2021.2.3,59.99055748623594,
C:\Users\subject\Desktop\SVRT Experiments\SVRT Experiment 3\svrt_images\generated_images\results_problem_16,C:\Users\subject\Desktop\SVRT Experiments\SVRT Experiment 3\svrt_images\generated_images\results_problem_16\sample_1_0000.png,,,,,,,,,,,,,,,,,,,,,,,0,0,0,0,0,11,11,11,,,,,,,,,,,,,,f,16,A,A,6,1,Correct!,0.6122579000000314,126.3904570000002,None,126.3904570000002,None,127.02386520000005,None,,,,,22,001,2023-05-03_10h34.32.866,colored_sorted,2021.2.3,59.99055748623594,
C:\Users\subject\Desktop\SVRT Experiments\SVRT Experiment 3\svrt_images\generated_images\results_problem_16,C:\Users\subject\Desktop\SVRT Experiments\SVRT Experiment 3\svrt_images\generated_images\results_problem_16\sample_0_0003.png,,,,,,,,,,,,,,,,,,,,,,,0,0,0,0,0,12,12,12,,,,,,,,,,,,,,f,16,A,B,6,0,Incorrect!,0.4456410999998752,128.15713670000014,None,128.15713670000014,None,128.62383590000013,None,,,,,22,001,2023-05-03_10h34.32.866,colored_sorted,2021.2.3,59.99055748623594,
C:\Users\subject\Desktop\SVRT Experiments\SVRT Experiment 3\svrt_images\generated_images\results_problem_16,C:\Users\subject\Desktop\SVRT Experiments\SVRT Experiment 3\svrt_images\generated_images\results_problem_16\sample_1_0011.png,,,,,,,,,,,,,,,,,,,,,,,0,0,0,0,0,13,13,13,,,,,,,,,,,,,,j,16,B,A,6,0,Incorrect!,0.9391123000000334,129.82368600000018,None,129.82368600000018,None,130.79027760000008,None,,,,,22,001,2023-05-03_10h34.32.866,colored_sorted,2021.2.3,59.99055748623594,
C:\Users\subject\Desktop\SVRT Experiments\SVRT Experiment 3\svrt_images\generated_images\results_problem_16,C:\Users\subject\Desktop\SVRT Experiments\SVRT Experiment 3\svrt_images\generated_images\results_problem_16\sample_1_0012.png,,,,,,,,,,,,,,,,,,,,,,,0,0,0,0,0,14,14,14,,,,,,,,,,,,,,j,16,B,A,6,0,Incorrect!,3.94268390000002,131.9402269000002,None,131.9402269000002,None,135.92327320000004,None,,,,,22,001,2023-05-03_10h34.32.866,colored_sorted,2021.2.3,59.99055748623594,
C:\Users\subject\Desktop\SVRT Experiments\SVRT Experiment 3\svrt_images\generated_images\results_problem_16,C:\Users\subject\Desktop\SVRT Experiments\SVRT Experiment 3\svrt_images\generated_images\results_problem_16\sample_0_0000.png,,,,,,,,,,,,,,,,,,,,,,,0,0,0,0,0,15,15,15,,,,,,,,,,,,,,f,16,A,B,6,0,Incorrect!,0.5696709000001192,137.07316820000005,None,137.07316820000005,None,137.68984960000012,None,,,,,22,001,2023-05-03_10h34.32.866,colored_sorted,2021.2.3,59.99055748623594,
C:\Users\subject\Desktop\SVRT Experiments\SVRT Experiment 3\svrt_images\generated_images\results_problem_16,C:\Users\subject\Desktop\SVRT Experiments\SVRT Experiment 3\svrt_images\generated_images\results_problem_16\sample_0_0013.png,,,,,,,,,,,,,,,,,,,,,,,0,0,0,0,0,16,16,16,,,,,,,,,,,,,,j,16,B,B,6,1,Correct!,0.5945940000001428,138.8563928000001,None,138.8563928000001,None,139.47299820000012,None,,,,,22,001,2023-05-03_10h34.32.866,colored_sorted,2021.2.3,59.99055748623594,
C:\Users\subject\Desktop\SVRT Experiments\SVRT Experiment 3\svrt_images\generated_images\results_problem_16,C:\Users\subject\Desktop\SVRT Experiments\SVRT Experiment 3\svrt_images\generated_images\results_problem_16\sample_0_0005.png,,,,,,,,,,,,,,,,,,,,,,,0,0,0,0,0,17,17,17,,,,,,,,,,,,,,j,16,B,B,6,1,Correct!,0.36337090000006356,140.6394143,None,140.6394143,None,141.02291220000006,None,,,,,22,001,2023-05-03_10h34.32.866,colored_sorted,2021.2.3,59.99055748623594,
C:\Users\subject\Desktop\SVRT Experiments\SVRT Experiment 3\svrt_images\generated_images\results_problem_16,C:\Users\subject\Desktop\SVRT Experiments\SVRT Experiment 3\svrt_images\generated_images\results_problem_16\sample_0_0007.png,,,,,,,,,,,,,,,,,,,,,,,0,0,0,0,0,18,18,18,,,,,,,,,,,,,,j,16,B,B,6,1,Correct!,1.1007132999998248,142.2062261000001,None,142.2062261000001,None,143.35613950000015,None,,,,,22,001,2023-05-03_10h34.32.866,colored_sorted,2021.2.3,59.99055748623594,
C:\Users\subject\Desktop\SVRT Experiments\SVRT Experiment 3\svrt_images\generated_images\results_problem_16,C:\Users\subject\Desktop\SVRT Experiments\SVRT Experiment 3\svrt_images\generated_images\results_problem_16\sample_1_0007.png,,,,,,,,,,,,,,,,,,,,,,,0,0,0,0,0,19,19,19,,,,,,,,,,,,,,j,16,B,A,6,0,Incorrect!,1.7268790999999055,144.5558711000001,None,144.5558711000001,None,146.30596660000015,None,,,,,22,001,2023-05-03_10h34.32.866,colored_sorted,2021.2.3,59.99055748623594,
C:\Users\subject\Desktop\SVRT Experiments\SVRT Experiment 3\svrt_images\generated_images\results_problem_16,C:\Users\subject\Desktop\SVRT Experiments\SVRT Experiment 3\svrt_images\generated_images\results_problem_16\sample_0_0009.png,,,,,,,,,,,,,,,,,,,,,,,0,0,0,0,0,20,20,20,,,,,,,,,,,,,,f,16,A,B,6,0,Incorrect!,6.167338700000073,147.53924060000008,None,147.53924060000008,None,153.7388446,None,,,,,22,001,2023-05-03_10h34.32.866,colored_sorted,2021.2.3,59.99055748623594,
C:\Users\subject\Desktop\SVRT Experiments\SVRT Experiment 3\svrt_images\generated_images\results_problem_16,C:\Users\subject\Desktop\SVRT Experiments\SVRT Experiment 3\svrt_images\generated_images\results_problem_16\sample_1_0004.png,,,,,,,,,,,,,,,,,,,,,,,0,0,0,0,0,21,21,21,,,,,,,,,,,,,,j,16,B,A,6,0,Incorrect!,0.43054400000005444,154.97204690000012,None,154.97204690000012,None,155.47204180000017,None,,,,,22,001,2023-05-03_10h34.32.866,colored_sorted,2021.2.3,59.99055748623594,
C:\Users\subject\Desktop\SVRT Experiments\SVRT Experiment 3\svrt_images\generated_images\results_problem_16,C:\Users\subject\Desktop\SVRT Experiments\SVRT Experiment 3\svrt_images\generated_images\results_problem_16\sample_1_0010.png,,,,,,,,,,,,,,,,,,,,,,,0,0,0,0,0,22,22,22,,,,,,,,,,,,,,f,16,A,A,6,1,Correct!,0.36063350000017635,156.72195370000009,None,156.72195370000009,None,157.13859860000002,None,,,,,22,001,2023-05-03_10h34.32.866,colored_sorted,2021.2.3,59.99055748623594,
C:\Users\subject\Desktop\SVRT Experiments\SVRT Experiment 3\svrt_images\generated_images\results_problem_16,C:\Users\subject\Desktop\SVRT Experiments\SVRT Experiment 3\svrt_images\generated_images\results_problem_16\sample_0_0008.png,,,,,,,,,,,,,,,,,,,,,,,0,0,0,0,0,23,23,23,,,,,,,,,,,,,,f,16,A,B,6,0,Incorrect!,0.29336430000012115,158.4052144000002,None,158.4052144000002,None,158.7218359000001,None,,,,,22,001,2023-05-03_10h34.32.866,colored_sorted,2021.2.3,59.99055748623594,
C:\Users\subject\Desktop\SVRT Experiments\SVRT Experiment 3\svrt_images\generated_images\results_problem_16,C:\Users\subject\Desktop\SVRT Experiments\SVRT Experiment 3\svrt_images\generated_images\results_problem_16\sample_1_0013.png,,,,,,,,,,,,,,,,,,,,,,,0,0,0,0,0,24,24,24,,,,,,,,,,,,,,f,16,A,A,6,1,Correct!,2.035547799999904,160.0550839,None,160.0550839,None,162.12157160000015,None,,,,,22,001,2023-05-03_10h34.32.866,colored_sorted,2021.2.3,59.99055748623594,
C:\Users\subject\Desktop\SVRT Experiments\SVRT Experiment 3\svrt_images\generated_images\results_problem_16,C:\Users\subject\Desktop\SVRT Experiments\SVRT Experiment 3\svrt_images\generated_images\results_problem_16\sample_1_0003.png,,,,,,,,,,,,,,,,,,,,,,,0,0,0,0,0,25,25,25,,,,,,,,,,,,,,j,16,B,A,6,0,Incorrect!,1.1017067999998744,163.40487540000004,None,163.40487540000004,None,164.53812270000003,None,,,,,22,001,2023-05-03_10h34.32.866,colored_sorted,2021.2.3,59.99055748623594,
C:\Users\subject\Desktop\SVRT Experiments\SVRT Experiment 3\svrt_images\generated_images\results_problem_16,C:\Users\subject\Desktop\SVRT Experiments\SVRT Experiment 3\svrt_images\generated_images\results_problem_16\sample_0_0002.png,,,,,,,,,,,,,,,,,,,,,,,0,0,0,0,0,26,26,26,,,,,,,,,,,,,,f,16,A,B,6,0,Incorrect!,2.3612501000000066,165.92138580000005,None,165.92138580000005,None,168.30455180000013,None,,,,,22,001,2023-05-03_10h34.32.866,colored_sorted,2021.2.3,59.99055748623594,
C:\Users\subject\Desktop\SVRT Experiments\SVRT Experiment 3\svrt_images\generated_images\results_problem_16,C:\Users\subject\Desktop\SVRT Experiments\SVRT Experiment 3\svrt_images\generated_images\results_problem_16\sample_1_0015.png,,,,,,,,,,,,,,,,,,,,,,,0,0,0,0,0,27,27,27,,,,,,,,,,,,,,j,16,B,A,6,0,Incorrect!,2.772158799999943,169.65445280000017,None,169.65445280000017,None,172.48756740000022,None,,,,,22,001,2023-05-03_10h34.32.866,colored_sorted,2021.2.3,59.99055748623594,
C:\Users\subject\Desktop\SVRT Experiments\SVRT Experiment 3\svrt_images\generated_images\results_problem_16,C:\Users\subject\Desktop\SVRT Experiments\SVRT Experiment 3\svrt_images\generated_images\results_problem_16\sample_0_0014.png,,,,,,,,,,,,,,,,,,,,,,,0,0,0,0,0,28,28,28,,,,,,,,,,,,,,f,16,A,B,6,0,Incorrect!,3.8058128000000124,173.82080670000005,None,173.82080670000005,None,177.7039129000002,None,,,,,22,001,2023-05-03_10h34.32.866,colored_sorted,2021.2.3,59.99055748623594,
C:\Users\subject\Desktop\SVRT Experiments\SVRT Experiment 3\svrt_images\generated_images\results_problem_16,C:\Users\subject\Desktop\SVRT Experiments\SVRT Experiment 3\svrt_images\generated_images\results_problem_16\sample_0_0011.png,,,,,,,,,,,,,,,,,,,,,,,0,0,0,0,0,29,29,29,,,,,,,,,,,,,,f,16,A,B,6,0,Incorrect!,13.86958340000001,179.03718470000013,None,179.03718470000013,None,192.98633280000013,None,,,,,22,001,2023-05-03_10h34.32.866,colored_sorted,2021.2.3,59.99055748623594,
C:\Users\subject\Desktop\SVRT Experiments\SVRT Experiment 3\svrt_images\generated_images\results_problem_16,C:\Users\subject\Desktop\SVRT Experiments\SVRT Experiment 3\svrt_images\generated_images\results_problem_16\sample_0_0012.png,,,,,,,,,,,,,,,,,,,,,,,0,0,0,0,0,30,30,30,,,,,,,,,,,,,,j,16,B,B,6,1,Correct!,0.7472447000000102,194.31954930000006,None,194.31954930000006,None,195.13617710000017,None,,,,,22,001,2023-05-03_10h34.32.866,colored_sorted,2021.2.3,59.99055748623594,
C:\Users\subject\Desktop\SVRT Experiments\SVRT Experiment 3\svrt_images\generated_images\results_problem_16,C:\Users\subject\Desktop\SVRT Experiments\SVRT Experiment 3\svrt_images\generated_images\results_problem_16\sample_0_0006.png,,,,,,,,,,,,,,,,,,,,,,,0,0,0,0,0,31,31,31,,,,,,,,,,,,,,j,16,B,B,6,1,Correct!,0.3247097000000849,196.48608400000012,None,196.48608400000012,None,196.8360484000002,None,,,,,22,001,2023-05-03_10h34.32.866,colored_sorted,2021.2.3,59.99055748623594,
C:\Users\subject\Desktop\SVRT Experiments\SVRT Experiment 3\svrt_images\generated_images\results_problem_16,C:\Users\subject\Desktop\SVRT Experiments\SVRT Experiment 3\svrt_images\generated_images\results_problem_16\sample_1_0006.png,,,,,,,,,,,,,,,,,,,,,,,0,0,0,0,0,32,32,32,,,,,,,,,,,,,,j,16,B,A,6,0,Incorrect!,0.24137419999988197,198.169396,None,198.169396,None,198.46928000000003,None,,,,,22,001,2023-05-03_10h34.32.866,colored_sorted,2021.2.3,59.99055748623594,
C:\Users\subject\Desktop\SVRT Experiments\SVRT Experiment 3\svrt_images\generated_images\results_problem_16,C:\Users\subject\Desktop\SVRT Experiments\SVRT Experiment 3\svrt_images\generated_images\results_problem_16\sample_0_0016.png,,,,,,,,,,,,,,,,,,,,,,,0,0,0,0,0,33,33,33,,,,,,,,,,,,,,j,16,B,B,6,1,Correct!,2.8308286999999837,199.83590890000005,None,199.83590890000005,None,202.75236080000013,None,,,,,22,001,2023-05-03_10h34.32.866,colored_sorted,2021.2.3,59.99055748623594,
C:\Users\subject\Desktop\SVRT Experiments\SVRT Experiment 3\svrt_images\generated_images\results_problem_16,,,,,,,,,,,,,,,,,,,,,,,,0,0,0,0,,,,,,,,,,,,,,,,,,,,,,,,,,,,,,,,203.75227710000013,203.75227710000013,space,2.2105774999999994,22,001,2023-05-03_10h34.32.866,colored_sorted,2021.2.3,59.99055748623594,
C:\Users\subject\Desktop\SVRT Experiments\SVRT Experiment 3\svrt_images\generated_images\results_problem_3,,C:\Users\subject\Desktop\SVRT Experiments\SVRT Experiment 3\svrt_images\generated_images\results_problem_3\sample_0_0000.png,,,,,,,,,,,,,,,,,,,,,,0,1,1,1,0,0,0,0,,,,,,,,,,,,,,f,3,A,B,6,0,Incorrect!,7.080612100000053,206.00216910000017,None,206.00216910000017,None,213.10177850000014,None,,,,,22,001,2023-05-03_10h34.32.866,colored_sorted,2021.2.3,59.99055748623594,
C:\Users\subject\Desktop\SVRT Experiments\SVRT Experiment 3\svrt_images\generated_images\results_problem_3,,C:\Users\subject\Desktop\SVRT Experiments\SVRT Experiment 3\svrt_images\generated_images\results_problem_3\sample_1_0013.png,,,,,,,,,,,,,,,,,,,,,,0,1,1,1,0,1,1,1,,,,,,,,,,,,,,j,3,B,A,6,0,Incorrect!,2.275728200000003,214.13503200000014,None,214.13503200000014,None,216.4349247,None,,,,,22,001,2023-05-03_10h34.32.866,colored_sorted,2021.2.3,59.99055748623594,
C:\Users\subject\Desktop\SVRT Experiments\SVRT Experiment 3\svrt_images\generated_images\results_problem_3,,C:\Users\subject\Desktop\SVRT Experiments\SVRT Experiment 3\svrt_images\generated_images\results_problem_3\sample_1_0010.png,,,,,,,,,,,,,,,,,,,,,,0,1,1,1,0,2,2,2,,,,,,,,,,,,,,f,3,A,A,6,1,Correct!,4.82849780000015,217.5181418000002,None,217.5181418000002,None,222.36781740000015,None,,,,,22,001,2023-05-03_10h34.32.866,colored_sorted,2021.2.3,59.99055748623594,
C:\Users\subject\Desktop\SVRT Experiments\SVRT Experiment 3\svrt_images\generated_images\results_problem_3,,C:\Users\subject\Desktop\SVRT Experiments\SVRT Experiment 3\svrt_images\generated_images\results_problem_3\sample_1_0015.png,,,,,,,,,,,,,,,,,,,,,,0,1,1,1,0,3,3,3,,,,,,,,,,,,,,f,3,A,A,6,1,Correct!,1.1678583999998864,223.4349466000001,None,223.4349466000001,None,224.63432430000012,None,,,,,22,001,2023-05-03_10h34.32.866,colored_sorted,2021.2.3,59.99055748623594,
C:\Users\subject\Desktop\SVRT Experiments\SVRT Experiment 3\svrt_images\generated_images\results_problem_3,,C:\Users\subject\Desktop\SVRT Experiments\SVRT Experiment 3\svrt_images\generated_images\results_problem_3\sample_1_0006.png,,,,,,,,,,,,,,,,,,,,,,0,1,1,1,0,4,4,4,,,,,,,,,,,,,,f,3,A,A,6,1,Correct!,0.4538916999999856,225.70094000000017,None,225.70094000000017,None,226.1842915000002,None,,,,,22,001,2023-05-03_10h34.32.866,colored_sorted,2021.2.3,59.99055748623594,
C:\Users\subject\Desktop\SVRT Experiments\SVRT Experiment 3\svrt_images\generated_images\results_problem_3,,C:\Users\subject\Desktop\SVRT Experiments\SVRT Experiment 3\svrt_images\generated_images\results_problem_3\sample_0_0006.png,,,,,,,,,,,,,,,,,,,,,,0,1,1,1,0,5,5,5,,,,,,,,,,,,,,f,3,A,B,6,0,Incorrect!,2.632745299999897,227.23417160000008,None,227.23417160000008,None,229.88402530000008,None,,,,,22,001,2023-05-03_10h34.32.866,colored_sorted,2021.2.3,59.99055748623594,
C:\Users\subject\Desktop\SVRT Experiments\SVRT Experiment 3\svrt_images\generated_images\results_problem_3,,C:\Users\subject\Desktop\SVRT Experiments\SVRT Experiment 3\svrt_images\generated_images\results_problem_3\sample_0_0004.png,,,,,,,,,,,,,,,,,,,,,,0,1,1,1,0,6,6,6,,,,,,,,,,,,,,j,3,B,B,6,1,Correct!,0.4842277999998714,230.95060690000014,None,230.95060690000014,None,231.46726280000007,None,,,,,22,001,2023-05-03_10h34.32.866,colored_sorted,2021.2.3,59.99055748623594,
C:\Users\subject\Desktop\SVRT Experiments\SVRT Experiment 3\svrt_images\generated_images\results_problem_3,,C:\Users\subject\Desktop\SVRT Experiments\SVRT Experiment 3\svrt_images\generated_images\results_problem_3\sample_1_0003.png,,,,,,,,,,,,,,,,,,,,,,0,1,1,1,0,7,7,7,,,,,,,,,,,,,,j,3,B,A,6,0,Incorrect!,0.27629449999994904,232.5505144000001,None,232.5505144000001,None,232.85050460000002,None,,,,,22,001,2023-05-03_10h34.32.866,colored_sorted,2021.2.3,59.99055748623594,
C:\Users\subject\Desktop\SVRT Experiments\SVRT Experiment 3\svrt_images\generated_images\results_problem_3,,C:\Users\subject\Desktop\SVRT Experiments\SVRT Experiment 3\svrt_images\generated_images\results_problem_3\sample_1_0001.png,,,,,,,,,,,,,,,,,,,,,,0,1,1,1,0,8,8,8,,,,,,,,,,,,,,f,3,A,A,6,1,Correct!,0.28503219999993235,233.9337664000002,None,233.9337664000002,None,234.2503938000002,None,,,,,22,001,2023-05-03_10h34.32.866,colored_sorted,2021.2.3,59.99055748623594,
C:\Users\subject\Desktop\SVRT Experiments\SVRT Experiment 3\svrt_images\generated_images\results_problem_3,,C:\Users\subject\Desktop\SVRT Experiments\SVRT Experiment 3\svrt_images\generated_images\results_problem_3\sample_0_0013.png,,,,,,,,,,,,,,,,,,,,,,0,1,1,1,0,9,9,9,,,,,,,,,,,,,,f,3,A,B,6,0,Incorrect!,0.3724044000000504,235.35039530000017,None,235.35039530000017,None,235.75030160000006,None,,,,,22,001,2023-05-03_10h34.32.866,colored_sorted,2021.2.3,59.99055748623594,
C:\Users\subject\Desktop\SVRT Experiments\SVRT Experiment 3\svrt_images\generated_images\results_problem_3,,C:\Users\subject\Desktop\SVRT Experiments\SVRT Experiment 3\svrt_images\generated_images\results_problem_3\sample_0_0010.png,,,,,,,,,,,,,,,,,,,,,,0,1,1,1,0,10,10,10,,,,,,,,,,,,,,j,3,B,B,6,1,Correct!,0.3445338999999876,236.8502820000001,None,236.8502820000001,None,237.21694460000003,None,,,,,22,001,2023-05-03_10h34.32.866,colored_sorted,2021.2.3,59.99055748623594,
C:\Users\subject\Desktop\SVRT Experiments\SVRT Experiment 3\svrt_images\generated_images\results_problem_3,,C:\Users\subject\Desktop\SVRT Experiments\SVRT Experiment 3\svrt_images\generated_images\results_problem_3\sample_1_0007.png,,,,,,,,,,,,,,,,,,,,,,0,1,1,1,0,11,11,11,,,,,,,,,,,,,,j,3,B,A,6,0,Incorrect!,0.28527409999992415,238.3335069000002,None,238.3335069000002,None,238.65017360000002,None,,,,,22,001,2023-05-03_10h34.32.866,colored_sorted,2021.2.3,59.99055748623594,
C:\Users\subject\Desktop\SVRT Experiments\SVRT Experiment 3\svrt_images\generated_images\results_problem_3,,C:\Users\subject\Desktop\SVRT Experiments\SVRT Experiment 3\svrt_images\generated_images\results_problem_3\sample_0_0009.png,,,,,,,,,,,,,,,,,,,,,,0,1,1,1,0,12,12,12,,,,,,,,,,,,,,j,3,B,B,6,1,Correct!,0.45154489999981706,239.78343630000018,None,239.78343630000018,None,240.26674560000015,None,,,,,22,001,2023-05-03_10h34.32.866,colored_sorted,2021.2.3,59.99055748623594,
C:\Users\subject\Desktop\SVRT Experiments\SVRT Experiment 3\svrt_images\generated_images\results_problem_3,,C:\Users\subject\Desktop\SVRT Experiments\SVRT Experiment 3\svrt_images\generated_images\results_problem_3\sample_0_0012.png,,,,,,,,,,,,,,,,,,,,,,0,1,1,1,0,13,13,13,,,,,,,,,,,,,,f,3,A,B,6,0,Incorrect!,0.41877709999994295,241.39996680000013,None,241.39996680000013,None,241.8499743000002,None,,,,,22,001,2023-05-03_10h34.32.866,colored_sorted,2021.2.3,59.99055748623594,
C:\Users\subject\Desktop\SVRT Experiments\SVRT Experiment 3\svrt_images\generated_images\results_problem_3,,C:\Users\subject\Desktop\SVRT Experiments\SVRT Experiment 3\svrt_images\generated_images\results_problem_3\sample_0_0007.png,,,,,,,,,,,,,,,,,,,,,,0,1,1,1,0,14,14,14,,,,,,,,,,,,,,j,3,B,B,6,1,Correct!,0.291061099999979,242.9998876000002,None,242.9998876000002,None,243.3165497,None,,,,,22,001,2023-05-03_10h34.32.866,colored_sorted,2021.2.3,59.99055748623594,
C:\Users\subject\Desktop\SVRT Experiments\SVRT Experiment 3\svrt_images\generated_images\results_problem_3,,C:\Users\subject\Desktop\SVRT Experiments\SVRT Experiment 3\svrt_images\generated_images\results_problem_3\sample_1_0012.png,,,,,,,,,,,,,,,,,,,,,,0,1,1,1,0,15,15,15,,,,,,,,,,,,,,j,3,B,A,6,0,Incorrect!,11.175613600000133,244.4831313000002,None,244.4831313000002,None,255.6990933000002,None,,,,,22,001,2023-05-03_10h34.32.866,colored_sorted,2021.2.3,59.99055748623594,
C:\Users\subject\Desktop\SVRT Experiments\SVRT Experiment 3\svrt_images\generated_images\results_problem_3,,C:\Users\subject\Desktop\SVRT Experiments\SVRT Experiment 3\svrt_images\generated_images\results_problem_3\sample_0_0008.png,,,,,,,,,,,,,,,,,,,,,,0,1,1,1,0,16,16,16,,,,,,,,,,,,,,j,3,B,B,6,1,Correct!,1.3770776000001206,257.0495435,None,257.0495435,None,258.4659932000002,None,,,,,22,001,2023-05-03_10h34.32.866,colored_sorted,2021.2.3,59.99055748623594,
C:\Users\subject\Desktop\SVRT Experiments\SVRT Experiment 3\svrt_images\generated_images\results_problem_3,,C:\Users\subject\Desktop\SVRT Experiments\SVRT Experiment 3\svrt_images\generated_images\results_problem_3\sample_1_0014.png,,,,,,,,,,,,,,,,,,,,,,0,1,1,1,0,17,17,17,,,,,,,,,,,,,,j,3,B,A,6,0,Incorrect!,0.8708031999999548,259.7159290000002,None,259.7159290000002,None,260.6323708000002,None,,,,,22,001,2023-05-03_10h34.32.866,colored_sorted,2021.2.3,59.99055748623594,
C:\Users\subject\Desktop\SVRT Experiments\SVRT Experiment 3\svrt_images\generated_images\results_problem_3,,C:\Users\subject\Desktop\SVRT Experiments\SVRT Experiment 3\svrt_images\generated_images\results_problem_3\sample_0_0001.png,,,,,,,,,,,,,,,,,,,,,,0,1,1,1,0,18,18,18,,,,,,,,,,,,,,f,3,A,B,6,0,Incorrect!,0.30510819999994965,261.86558820000005,None,261.86558820000005,None,262.2322266000001,None,,,,,22,001,2023-05-03_10h34.32.866,colored_sorted,2021.2.3,59.99055748623594,
C:\Users\subject\Desktop\SVRT Experiments\SVRT Experiment 3\svrt_images\generated_images\results_problem_3,,C:\Users\subject\Desktop\SVRT Experiments\SVRT Experiment 3\svrt_images\generated_images\results_problem_3\sample_0_0011.png,,,,,,,,,,,,,,,,,,,,,,0,1,1,1,0,19,19,19,,,,,,,,,,,,,,j,3,B,B,6,1,Correct!,0.2553895000000921,263.5154844000001,None,263.5154844000001,None,263.8152584000002,None,,,,,22,001,2023-05-03_10h34.32.866,colored_sorted,2021.2.3,59.99055748623594,
C:\Users\subject\Desktop\SVRT Experiments\SVRT Experiment 3\svrt_images\generated_images\results_problem_3,,C:\Users\subject\Desktop\SVRT Experiments\SVRT Experiment 3\svrt_images\generated_images\results_problem_3\sample_1_0011.png,,,,,,,,,,,,,,,,,,,,,,0,1,1,1,0,20,20,20,,,,,,,,,,,,,,j,3,B,A,6,0,Incorrect!,0.3388202999999521,265.0318579000002,None,265.0318579000002,None,265.4151511,None,,,,,22,001,2023-05-03_10h34.32.866,colored_sorted,2021.2.3,59.99055748623594,
C:\Users\subject\Desktop\SVRT Experiments\SVRT Experiment 3\svrt_images\generated_images\results_problem_3,,C:\Users\subject\Desktop\SVRT Experiments\SVRT Experiment 3\svrt_images\generated_images\results_problem_3\sample_1_0000.png,,,,,,,,,,,,,,,,,,,,,,0,1,1,1,0,21,21,21,,,,,,,,,,,,,,f,3,A,A,6,1,Correct!,0.31765550000000076,266.7650347000001,None,266.7650347000001,None,267.1150401000002,None,,,,,22,001,2023-05-03_10h34.32.866,colored_sorted,2021.2.3,59.99055748623594,
C:\Users\subject\Desktop\SVRT Experiments\SVRT Experiment 3\svrt_images\generated_images\results_problem_3,,C:\Users\subject\Desktop\SVRT Experiments\SVRT Experiment 3\svrt_images\generated_images\results_problem_3\sample_1_0009.png,,,,,,,,,,,,,,,,,,,,,,0,1,1,1,0,22,22,22,,,,,,,,,,,,,,f,3,A,A,6,1,Correct!,0.2677794000001086,268.4149752000001,None,268.4149752000001,None,268.73161560000017,None,,,,,22,001,2023-05-03_10h34.32.866,colored_sorted,2021.2.3,59.99055748623594,
C:\Users\subject\Desktop\SVRT Experiments\SVRT Experiment 3\svrt_images\generated_images\results_problem_3,,C:\Users\subject\Desktop\SVRT Experiments\SVRT Experiment 3\svrt_images\generated_images\results_problem_3\sample_0_0015.png,,,,,,,,,,,,,,,,,,,,,,0,1,1,1,0,23,23,23,,,,,,,,,,,,,,f,3,A,B,6,0,Incorrect!,0.23641140000017913,269.9981788,None,269.9981788,None,270.2647935,None,,,,,22,001,2023-05-03_10h34.32.866,colored_sorted,2021.2.3,59.99055748623594,
C:\Users\subject\Desktop\SVRT Experiments\SVRT Experiment 3\svrt_images\generated_images\results_problem_3,,C:\Users\subject\Desktop\SVRT Experiments\SVRT Experiment 3\svrt_images\generated_images\results_problem_3\sample_1_0005.png,,,,,,,,,,,,,,,,,,,,,,0,1,1,1,0,24,24,24,,,,,,,,,,,,,,f,3,A,A,6,1,Correct!,5.661898500000007,271.5647672,None,271.5647672,None,277.28104400000007,None,,,,,22,001,2023-05-03_10h34.32.866,colored_sorted,2021.2.3,59.99055748623594,
C:\Users\subject\Desktop\SVRT Experiments\SVRT Experiment 3\svrt_images\generated_images\results_problem_3,,C:\Users\subject\Desktop\SVRT Experiments\SVRT Experiment 3\svrt_images\generated_images\results_problem_3\sample_0_0016.png,,,,,,,,,,,,,,,,,,,,,,0,1,1,1,0,25,25,25,,,,,,,,,,,,,,f,3,A,B,6,0,Incorrect!,6.51833049999982,278.5643623000001,None,278.5643623000001,None,285.13057890000005,None,,,,,22,001,2023-05-03_10h34.32.866,colored_sorted,2021.2.3,59.99055748623594,
C:\Users\subject\Desktop\SVRT Experiments\SVRT Experiment 3\svrt_images\generated_images\results_problem_3,,C:\Users\subject\Desktop\SVRT Experiments\SVRT Experiment 3\svrt_images\generated_images\results_problem_3\sample_1_0008.png,,,,,,,,,,,,,,,,,,,,,,0,1,1,1,0,26,26,26,,,,,,,,,,,,,,f,3,A,A,6,1,Correct!,2.3470719000001736,286.4638152,None,286.4638152,None,288.8303460000002,None,,,,,22,001,2023-05-03_10h34.32.866,colored_sorted,2021.2.3,59.99055748623594,
C:\Users\subject\Desktop\SVRT Experiments\SVRT Experiment 3\svrt_images\generated_images\results_problem_3,,C:\Users\subject\Desktop\SVRT Experiments\SVRT Experiment 3\svrt_images\generated_images\results_problem_3\sample_0_0014.png,,,,,,,,,,,,,,,,,,,,,,0,1,1,1,0,27,27,27,,,,,,,,,,,,,,j,3,B,B,6,1,Correct!,3.639883899999859,290.14693680000005,None,290.14693680000005,None,293.81347800000003,None,,,,,22,001,2023-05-03_10h34.32.866,colored_sorted,2021.2.3,59.99055748623594,
C:\Users\subject\Desktop\SVRT Experiments\SVRT Experiment 3\svrt_images\generated_images\results_problem_3,,C:\Users\subject\Desktop\SVRT Experiments\SVRT Experiment 3\svrt_images\generated_images\results_problem_3\sample_0_0005.png,,,,,,,,,,,,,,,,,,,,,,0,1,1,1,0,28,28,28,,,,,,,,,,,,,,j,3,B,B,6,1,Correct!,0.7832335000000512,295.16338870000004,None,295.16338870000004,None,295.9799019000002,None,,,,,22,001,2023-05-03_10h34.32.866,colored_sorted,2021.2.3,59.99055748623594,
C:\Users\subject\Desktop\SVRT Experiments\SVRT Experiment 3\svrt_images\generated_images\results_problem_3,,C:\Users\subject\Desktop\SVRT Experiments\SVRT Experiment 3\svrt_images\generated_images\results_problem_3\sample_1_0002.png,,,,,,,,,,,,,,,,,,,,,,0,1,1,1,0,29,29,29,,,,,,,,,,,,,,f,3,A,A,6,1,Correct!,1.046883199999911,298.16369340000006,None,298.16369340000006,None,299.24642140000014,None,,,,,22,001,2023-05-03_10h34.32.866,colored_sorted,2021.2.3,59.99055748623594,
C:\Users\subject\Desktop\SVRT Experiments\SVRT Experiment 3\svrt_images\generated_images\results_problem_3,,C:\Users\subject\Desktop\SVRT Experiments\SVRT Experiment 3\svrt_images\generated_images\results_problem_3\sample_1_0004.png,,,,,,,,,,,,,,,,,,,,,,0,1,1,1,0,30,30,30,,,,,,,,,,,,,,f,3,A,A,6,1,Correct!,2.405690299999833,300.6130226,None,300.6130226,None,303.09613490000015,None,,,,,22,001,2023-05-03_10h34.32.866,colored_sorted,2021.2.3,59.99055748623594,
C:\Users\subject\Desktop\SVRT Experiments\SVRT Experiment 3\svrt_images\generated_images\results_problem_3,,C:\Users\subject\Desktop\SVRT Experiments\SVRT Experiment 3\svrt_images\generated_images\results_problem_3\sample_0_0003.png,,,,,,,,,,,,,,,,,,,,,,0,1,1,1,0,31,31,31,,,,,,,,,,,,,,f,3,A,B,6,0,Incorrect!,1.0999197999999524,304.4627376000001,None,304.4627376000001,None,305.6292899,None,,,,,22,001,2023-05-03_10h34.32.866,colored_sorted,2021.2.3,59.99055748623594,
C:\Users\subject\Desktop\SVRT Experiments\SVRT Experiment 3\svrt_images\generated_images\results_problem_3,,C:\Users\subject\Desktop\SVRT Experiments\SVRT Experiment 3\svrt_images\generated_images\results_problem_3\sample_0_0002.png,,,,,,,,,,,,,,,,,,,,,,0,1,1,1,0,32,32,32,,,,,,,,,,,,,,j,3,B,B,6,1,Correct!,0.6307435999999598,306.99594950000005,None,306.99594950000005,None,307.6792146,None,,,,,22,001,2023-05-03_10h34.32.866,colored_sorted,2021.2.3,59.99055748623594,
C:\Users\subject\Desktop\SVRT Experiments\SVRT Experiment 3\svrt_images\generated_images\results_problem_3,,C:\Users\subject\Desktop\SVRT Experiments\SVRT Experiment 3\svrt_images\generated_images\results_problem_3\sample_1_0016.png,,,,,,,,,,,,,,,,,,,,,,0,1,1,1,0,33,33,33,,,,,,,,,,,,,,j,3,B,A,6,0,Incorrect!,0.5476290000001427,309.0791694000002,None,309.0791694000002,None,309.67913980000003,None,,,,,22,001,2023-05-03_10h34.32.866,colored_sorted,2021.2.3,59.99055748623594,
C:\Users\subject\Desktop\SVRT Experiments\SVRT Experiment 3\svrt_images\generated_images\results_problem_3,,,,,,,,,,,,,,,,,,,,,,,,0,1,1,1,,,,,,,,,,,,,,,,,,,,,,,,,,,,,,,,310.679114,310.679114,space,0.8354828999999881,22,001,2023-05-03_10h34.32.866,colored_sorted,2021.2.3,59.99055748623594,
C:\Users\subject\Desktop\SVRT Experiments\SVRT Experiment 3\svrt_images\generated_images\results_problem_19,,,C:\Users\subject\Desktop\SVRT Experiments\SVRT Experiment 3\svrt_images\generated_images\results_problem_19\sample_1_0007.png,,,,,,,,,,,,,,,,,,,,,0,2,2,2,0,0,0,0,,,,,,,,,,,,,,j,19,B,A,6,0,Incorrect!,7.073151300000063,311.54573270000014,None,311.54573270000014,None,318.6455768000001,None,,,,,22,001,2023-05-03_10h34.32.866,colored_sorted,2021.2.3,59.99055748623594,
C:\Users\subject\Desktop\SVRT Experiments\SVRT Experiment 3\svrt_images\generated_images\results_problem_19,,,C:\Users\subject\Desktop\SVRT Experiments\SVRT Experiment 3\svrt_images\generated_images\results_problem_19\sample_0_0002.png,,,,,,,,,,,,,,,,,,,,,0,2,2,2,0,1,1,1,,,,,,,,,,,,,,f,19,A,B,6,0,Incorrect!,2.3458508000001075,319.7289214000002,None,319.7289214000002,None,322.09547280000015,None,,,,,22,001,2023-05-03_10h34.32.866,colored_sorted,2021.2.3,59.99055748623594,
C:\Users\subject\Desktop\SVRT Experiments\SVRT Experiment 3\svrt_images\generated_images\results_problem_19,,,C:\Users\subject\Desktop\SVRT Experiments\SVRT Experiment 3\svrt_images\generated_images\results_problem_19\sample_1_0009.png,,,,,,,,,,,,,,,,,,,,,0,2,2,2,0,2,2,2,,,,,,,,,,,,,,f,19,A,A,6,1,Correct!,1.3764659000000847,323.1622100000002,None,323.1622100000002,None,324.5617595000001,None,,,,,22,001,2023-05-03_10h34.32.866,colored_sorted,2021.2.3,59.99055748623594,
C:\Users\subject\Desktop\SVRT Experiments\SVRT Experiment 3\svrt_images\generated_images\results_problem_19,,,C:\Users\subject\Desktop\SVRT Experiments\SVRT Experiment 3\svrt_images\generated_images\results_problem_19\sample_0_0010.png,,,,,,,,,,,,,,,,,,,,,0,2,2,2,0,3,3,3,,,,,,,,,,,,,,f,19,A,B,6,0,Incorrect!,0.5563534000000345,325.6782250000001,None,325.6782250000001,None,326.26152560000014,None,,,,,22,001,2023-05-03_10h34.32.866,colored_sorted,2021.2.3,59.99055748623594,
C:\Users\subject\Desktop\SVRT Experiments\SVRT Experiment 3\svrt_images\generated_images\results_problem_19,,,C:\Users\subject\Desktop\SVRT Experiments\SVRT Experiment 3\svrt_images\generated_images\results_problem_19\sample_1_0015.png,,,,,,,,,,,,,,,,,,,,,0,2,2,2,0,4,4,4,,,,,,,,,,,,,,f,19,A,A,6,1,Correct!,0.6803890999999567,327.3782030000002,None,327.3782030000002,None,328.0784661,None,,,,,22,001,2023-05-03_10h34.32.866,colored_sorted,2021.2.3,59.99055748623594,
C:\Users\subject\Desktop\SVRT Experiments\SVRT Experiment 3\svrt_images\generated_images\results_problem_19,,,C:\Users\subject\Desktop\SVRT Experiments\SVRT Experiment 3\svrt_images\generated_images\results_problem_19\sample_0_0012.png,,,,,,,,,,,,,,,,,,,,,0,2,2,2,0,5,5,5,,,,,,,,,,,,,,j,19,B,B,6,1,Correct!,0.5456236999998509,329.16128100000014,None,329.16128100000014,None,329.7279079000002,None,,,,,22,001,2023-05-03_10h34.32.866,colored_sorted,2021.2.3,59.99055748623594,
C:\Users\subject\Desktop\SVRT Experiments\SVRT Experiment 3\svrt_images\generated_images\results_problem_19,,,C:\Users\subject\Desktop\SVRT Experiments\SVRT Experiment 3\svrt_images\generated_images\results_problem_19\sample_1_0008.png,,,,,,,,,,,,,,,,,,,,,0,2,2,2,0,6,6,6,,,,,,,,,,,,,,j,19,B,A,6,0,Incorrect!,0.5272218000000066,330.81151180000006,None,330.81151180000006,None,331.36141180000004,None,,,,,22,001,2023-05-03_10h34.32.866,colored_sorted,2021.2.3,59.99055748623594,
C:\Users\subject\Desktop\SVRT Experiments\SVRT Experiment 3\svrt_images\generated_images\results_problem_19,,,C:\Users\subject\Desktop\SVRT Experiments\SVRT Experiment 3\svrt_images\generated_images\results_problem_19\sample_1_0004.png,,,,,,,,,,,,,,,,,,,,,0,2,2,2,0,7,7,7,,,,,,,,,,,,,,f,19,A,A,6,1,Correct!,0.49347519999992073,332.4613353000002,None,332.4613353000002,None,332.9779060000001,None,,,,,22,001,2023-05-03_10h34.32.866,colored_sorted,2021.2.3,59.99055748623594,
C:\Users\subject\Desktop\SVRT Experiments\SVRT Experiment 3\svrt_images\generated_images\results_problem_19,,,C:\Users\subject\Desktop\SVRT Experiments\SVRT Experiment 3\svrt_images\generated_images\results_problem_19\sample_0_0006.png,,,,,,,,,,,,,,,,,,,,,0,2,2,2,0,8,8,8,,,,,,,,,,,,,,f,19,A,B,6,0,Incorrect!,1.3562706000000162,334.09451250000006,None,334.09451250000006,None,335.4775327000002,None,,,,,22,001,2023-05-03_10h34.32.866,colored_sorted,2021.2.3,59.99055748623594,
C:\Users\subject\Desktop\SVRT Experiments\SVRT Experiment 3\svrt_images\generated_images\results_problem_19,,,C:\Users\subject\Desktop\SVRT Experiments\SVRT Experiment 3\svrt_images\generated_images\results_problem_19\sample_0_0009.png,,,,,,,,,,,,,,,,,,,,,0,2,2,2,0,9,9,9,,,,,,,,,,,,,,j,19,B,B,6,1,Correct!,6.441394400000036,336.5773240000001,None,336.5773240000001,None,343.04377580000005,None,,,,,22,001,2023-05-03_10h34.32.866,colored_sorted,2021.2.3,59.99055748623594,
C:\Users\subject\Desktop\SVRT Experiments\SVRT Experiment 3\svrt_images\generated_images\results_problem_19,,,C:\Users\subject\Desktop\SVRT Experiments\SVRT Experiment 3\svrt_images\generated_images\results_problem_19\sample_1_0014.png,,,,,,,,,,,,,,,,,,,,,0,2,2,2,0,10,10,10,,,,,,,,,,,,,,j,19,B,A,6,0,Incorrect!,0.45824259999994865,344.16042100000004,None,344.16042100000004,None,344.64368030000014,None,,,,,22,001,2023-05-03_10h34.32.866,colored_sorted,2021.2.3,59.99055748623594,
C:\Users\subject\Desktop\SVRT Experiments\SVRT Experiment 3\svrt_images\generated_images\results_problem_19,,,C:\Users\subject\Desktop\SVRT Experiments\SVRT Experiment 3\svrt_images\generated_images\results_problem_19\sample_0_0005.png,,,,,,,,,,,,,,,,,,,,,0,2,2,2,0,11,11,11,,,,,,,,,,,,,,f,19,A,B,6,0,Incorrect!,0.6505958000000192,345.76026190000016,None,345.76026190000016,None,346.4435697000001,None,,,,,22,001,2023-05-03_10h34.32.866,colored_sorted,2021.2.3,59.99055748623594,
C:\Users\subject\Desktop\SVRT Experiments\SVRT Experiment 3\svrt_images\generated_images\results_problem_19,,,C:\Users\subject\Desktop\SVRT Experiments\SVRT Experiment 3\svrt_images\generated_images\results_problem_19\sample_1_0000.png,,,,,,,,,,,,,,,,,,,,,0,2,2,2,0,12,12,12,,,,,,,,,,,,,,f,19,A,A,6,1,Correct!,0.5786701999998058,347.5601571000002,None,347.5601571000002,None,348.1601627,None,,,,,22,001,2023-05-03_10h34.32.866,colored_sorted,2021.2.3,59.99055748623594,
C:\Users\subject\Desktop\SVRT Experiments\SVRT Experiment 3\svrt_images\generated_images\results_problem_19,,,C:\Users\subject\Desktop\SVRT Experiments\SVRT Experiment 3\svrt_images\generated_images\results_problem_19\sample_0_0015.png,,,,,,,,,,,,,,,,,,,,,0,2,2,2,0,13,13,13,,,,,,,,,,,,,,j,19,B,B,6,1,Correct!,0.5734112000000096,349.29339000000004,None,349.29339000000004,None,349.89341430000013,None,,,,,22,001,2023-05-03_10h34.32.866,colored_sorted,2021.2.3,59.99055748623594,
C:\Users\subject\Desktop\SVRT Experiments\SVRT Experiment 3\svrt_images\generated_images\results_problem_19,,,C:\Users\subject\Desktop\SVRT Experiments\SVRT Experiment 3\svrt_images\generated_images\results_problem_19\sample_0_0001.png,,,,,,,,,,,,,,,,,,,,,0,2,2,2,0,14,14,14,,,,,,,,,,,,,,j,19,B,B,6,1,Correct!,0.535534799999823,351.0432727000002,None,351.0432727000002,None,351.6265412,None,,,,,22,001,2023-05-03_10h34.32.866,colored_sorted,2021.2.3,59.99055748623594,
C:\Users\subject\Desktop\SVRT Experiments\SVRT Experiment 3\svrt_images\generated_images\results_problem_19,,,C:\Users\subject\Desktop\SVRT Experiments\SVRT Experiment 3\svrt_images\generated_images\results_problem_19\sample_0_0000.png,,,,,,,,,,,,,,,,,,,,,0,2,2,2,0,15,15,15,,,,,,,,,,,,,,f,19,A,B,6,0,Incorrect!,0.6082917000001089,352.82649160000005,None,352.82649160000005,None,353.4764521000002,None,,,,,22,001,2023-05-03_10h34.32.866,colored_sorted,2021.2.3,59.99055748623594,
C:\Users\subject\Desktop\SVRT Experiments\SVRT Experiment 3\svrt_images\generated_images\results_problem_19,,,C:\Users\subject\Desktop\SVRT Experiments\SVRT Experiment 3\svrt_images\generated_images\results_problem_19\sample_0_0016.png,,,,,,,,,,,,,,,,,,,,,0,2,2,2,0,16,16,16,,,,,,,,,,,,,,j,19,B,B,6,1,Correct!,0.43907329999979083,354.65972320000014,None,354.65972320000014,None,355.14302710000015,None,,,,,22,001,2023-05-03_10h34.32.866,colored_sorted,2021.2.3,59.99055748623594,
C:\Users\subject\Desktop\SVRT Experiments\SVRT Experiment 3\svrt_images\generated_images\results_problem_19,,,C:\Users\subject\Desktop\SVRT Experiments\SVRT Experiment 3\svrt_images\generated_images\results_problem_19\sample_0_0007.png,,,,,,,,,,,,,,,,,,,,,0,2,2,2,0,17,17,17,,,,,,,,,,,,,,f,19,A,B,6,0,Incorrect!,0.8678345999999237,356.3429433000001,None,356.3429433000001,None,357.25955680000015,None,,,,,22,001,2023-05-03_10h34.32.866,colored_sorted,2021.2.3,59.99055748623594,
C:\Users\subject\Desktop\SVRT Experiments\SVRT Experiment 3\svrt_images\generated_images\results_problem_19,,,C:\Users\subject\Desktop\SVRT Experiments\SVRT Experiment 3\svrt_images\generated_images\results_problem_19\sample_1_0010.png,,,,,,,,,,,,,,,,,,,,,0,2,2,2,0,18,18,18,,,,,,,,,,,,,,j,19,B,A,6,0,Incorrect!,0.6398467999999866,358.4428290000001,None,358.4428290000001,None,359.12611630000015,None,,,,,22,001,2023-05-03_10h34.32.866,colored_sorted,2021.2.3,59.99055748623594,
C:\Users\subject\Desktop\SVRT Experiments\SVRT Experiment 3\svrt_images\generated_images\results_problem_19,,,C:\Users\subject\Desktop\SVRT Experiments\SVRT Experiment 3\svrt_images\generated_images\results_problem_19\sample_0_0011.png,,,,,,,,,,,,,,,,,,,,,0,2,2,2,0,19,19,19,,,,,,,,,,,,,,f,19,A,B,6,0,Incorrect!,0.40472429999999804,360.32603800000015,None,360.32603800000015,None,360.7760205000002,None,,,,,22,001,2023-05-03_10h34.32.866,colored_sorted,2021.2.3,59.99055748623594,
C:\Users\subject\Desktop\SVRT Experiments\SVRT Experiment 3\svrt_images\generated_images\results_problem_19,,,C:\Users\subject\Desktop\SVRT Experiments\SVRT Experiment 3\svrt_images\generated_images\results_problem_19\sample_1_0011.png,,,,,,,,,,,,,,,,,,,,,0,2,2,2,0,20,20,20,,,,,,,,,,,,,,j,19,B,A,6,0,Incorrect!,0.3546758999998474,361.9759458000001,None,361.9759458000001,None,362.359234,None,,,,,22,001,2023-05-03_10h34.32.866,colored_sorted,2021.2.3,59.99055748623594,
C:\Users\subject\Desktop\SVRT Experiments\SVRT Experiment 3\svrt_images\generated_images\results_problem_19,,,C:\Users\subject\Desktop\SVRT Experiments\SVRT Experiment 3\svrt_images\generated_images\results_problem_19\sample_0_0003.png,,,,,,,,,,,,,,,,,,,,,0,2,2,2,0,21,21,21,,,,,,,,,,,,,,f,19,A,B,6,0,Incorrect!,0.9147952999999234,363.5758887000002,None,363.5758887000002,None,364.5091202000001,None,,,,,22,001,2023-05-03_10h34.32.866,colored_sorted,2021.2.3,59.99055748623594,
C:\Users\subject\Desktop\SVRT Experiments\SVRT Experiment 3\svrt_images\generated_images\results_problem_19,,,C:\Users\subject\Desktop\SVRT Experiments\SVRT Experiment 3\svrt_images\generated_images\results_problem_19\sample_1_0003.png,,,,,,,,,,,,,,,,,,,,,0,2,2,2,0,22,22,22,,,,,,,,,,,,,,j,19,B,A,6,0,Incorrect!,0.34913559999995414,365.7257040000002,None,365.7257040000002,None,366.09234730000003,None,,,,,22,001,2023-05-03_10h34.32.866,colored_sorted,2021.2.3,59.99055748623594,
C:\Users\subject\Desktop\SVRT Experiments\SVRT Experiment 3\svrt_images\generated_images\results_problem_19,,,C:\Users\subject\Desktop\SVRT Experiments\SVRT Experiment 3\svrt_images\generated_images\results_problem_19\sample_0_0013.png,,,,,,,,,,,,,,,,,,,,,0,2,2,2,0,23,23,23,,,,,,,,,,,,,,f,19,A,B,6,0,Incorrect!,0.9243831000001137,367.3423127000001,None,367.3423127000001,None,368.30888460000006,None,,,,,22,001,2023-05-03_10h34.32.866,colored_sorted,2021.2.3,59.99055748623594,
C:\Users\subject\Desktop\SVRT Experiments\SVRT Experiment 3\svrt_images\generated_images\results_problem_19,,,C:\Users\subject\Desktop\SVRT Experiments\SVRT Experiment 3\svrt_images\generated_images\results_problem_19\sample_1_0006.png,,,,,,,,,,,,,,,,,,,,,0,2,2,2,0,24,24,24,,,,,,,,,,,,,,j,19,B,A,6,0,Incorrect!,0.3873310000001311,369.57546850000017,None,369.57546850000017,None,369.9921168000001,None,,,,,22,001,2023-05-03_10h34.32.866,colored_sorted,2021.2.3,59.99055748623594,
C:\Users\subject\Desktop\SVRT Experiments\SVRT Experiment 3\svrt_images\generated_images\results_problem_19,,,C:\Users\subject\Desktop\SVRT Experiments\SVRT Experiment 3\svrt_images\generated_images\results_problem_19\sample_0_0014.png,,,,,,,,,,,,,,,,,,,,,0,2,2,2,0,25,25,25,,,,,,,,,,,,,,j,19,B,B,6,1,Correct!,0.368747699999858,371.24204180000015,None,371.24204180000015,None,371.6586787000001,None,,,,,22,001,2023-05-03_10h34.32.866,colored_sorted,2021.2.3,59.99055748623594,
C:\Users\subject\Desktop\SVRT Experiments\SVRT Experiment 3\svrt_images\generated_images\results_problem_19,,,C:\Users\subject\Desktop\SVRT Experiments\SVRT Experiment 3\svrt_images\generated_images\results_problem_19\sample_1_0013.png,,,,,,,,,,,,,,,,,,,,,0,2,2,2,0,26,26,26,,,,,,,,,,,,,,j,19,B,A,6,0,Incorrect!,0.30214280000018334,372.9086040000002,None,372.9086040000002,None,373.2752514000001,None,,,,,22,001,2023-05-03_10h34.32.866,colored_sorted,2021.2.3,59.99055748623594,
C:\Users\subject\Desktop\SVRT Experiments\SVRT Experiment 3\svrt_images\generated_images\results_problem_19,,,C:\Users\subject\Desktop\SVRT Experiments\SVRT Experiment 3\svrt_images\generated_images\results_problem_19\sample_1_0016.png,,,,,,,,,,,,,,,,,,,,,0,2,2,2,0,27,27,27,,,,,,,,,,,,,,j,19,B,A,6,0,Incorrect!,0.764323099999956,374.55850750000013,None,374.55850750000013,None,375.3417856000001,None,,,,,22,001,2023-05-03_10h34.32.866,colored_sorted,2021.2.3,59.99055748623594,
C:\Users\subject\Desktop\SVRT Experiments\SVRT Experiment 3\svrt_images\generated_images\results_problem_19,,,C:\Users\subject\Desktop\SVRT Experiments\SVRT Experiment 3\svrt_images\generated_images\results_problem_19\sample_1_0005.png,,,,,,,,,,,,,,,,,,,,,0,2,2,2,0,28,28,28,,,,,,,,,,,,,,f,19,A,A,6,1,Correct!,0.8251215000000229,376.6417018000002,None,376.6417018000002,None,377.5250217,None,,,,,22,001,2023-05-03_10h34.32.866,colored_sorted,2021.2.3,59.99055748623594,
C:\Users\subject\Desktop\SVRT Experiments\SVRT Experiment 3\svrt_images\generated_images\results_problem_19,,,C:\Users\subject\Desktop\SVRT Experiments\SVRT Experiment 3\svrt_images\generated_images\results_problem_19\sample_1_0012.png,,,,,,,,,,,,,,,,,,,,,0,2,2,2,0,29,29,29,,,,,,,,,,,,,,f,19,A,A,6,1,Correct!,0.38454249999995227,378.85824100000013,None,378.85824100000013,None,379.2748699000001,None,,,,,22,001,2023-05-03_10h34.32.866,colored_sorted,2021.2.3,59.99055748623594,
C:\Users\subject\Desktop\SVRT Experiments\SVRT Experiment 3\svrt_images\generated_images\results_problem_19,,,C:\Users\subject\Desktop\SVRT Experiments\SVRT Experiment 3\svrt_images\generated_images\results_problem_19\sample_0_0004.png,,,,,,,,,,,,,,,,,,,,,0,2,2,2,0,30,30,30,,,,,,,,,,,,,,f,19,A,B,6,0,Incorrect!,0.3786194000001615,380.6081316000002,None,380.6081316000002,None,381.0247709,None,,,,,22,001,2023-05-03_10h34.32.866,colored_sorted,2021.2.3,59.99055748623594,
C:\Users\subject\Desktop\SVRT Experiments\SVRT Experiment 3\svrt_images\generated_images\results_problem_19,,,C:\Users\subject\Desktop\SVRT Experiments\SVRT Experiment 3\svrt_images\generated_images\results_problem_19\sample_1_0002.png,,,,,,,,,,,,,,,,,,,,,0,2,2,2,0,31,31,31,,,,,,,,,,,,,,j,19,B,A,6,0,Incorrect!,0.29343579999999747,382.341353,None,382.341353,None,382.6913508,None,,,,,22,001,2023-05-03_10h34.32.866,colored_sorted,2021.2.3,59.99055748623594,
C:\Users\subject\Desktop\SVRT Experiments\SVRT Experiment 3\svrt_images\generated_images\results_problem_19,,,C:\Users\subject\Desktop\SVRT Experiments\SVRT Experiment 3\svrt_images\generated_images\results_problem_19\sample_0_0008.png,,,,,,,,,,,,,,,,,,,,,0,2,2,2,0,32,32,32,,,,,,,,,,,,,,j,19,B,B,6,1,Correct!,0.3221987000001718,384.02459450000015,None,384.02459450000015,None,384.39123730000006,None,,,,,22,001,2023-05-03_10h34.32.866,colored_sorted,2021.2.3,59.99055748623594,
C:\Users\subject\Desktop\SVRT Experiments\SVRT Experiment 3\svrt_images\generated_images\results_problem_19,,,C:\Users\subject\Desktop\SVRT Experiments\SVRT Experiment 3\svrt_images\generated_images\results_problem_19\sample_1_0001.png,,,,,,,,,,,,,,,,,,,,,0,2,2,2,0,33,33,33,,,,,,,,,,,,,,j,19,B,A,6,0,Incorrect!,0.2856614999998328,385.7411283000001,None,385.7411283000001,None,386.0744949000002,None,,,,,22,001,2023-05-03_10h34.32.866,colored_sorted,2021.2.3,59.99055748623594,
C:\Users\subject\Desktop\SVRT Experiments\SVRT Experiment 3\svrt_images\generated_images\results_problem_19,,,,,,,,,,,,,,,,,,,,,,,,0,2,2,2,,,,,,,,,,,,,,,,,,,,,,,,,,,,,,,,387.0743992,387.0743992,space,1.032417500000065,22,001,2023-05-03_10h34.32.866,colored_sorted,2021.2.3,59.99055748623594,
C:\Users\subject\Desktop\SVRT Experiments\SVRT Experiment 3\svrt_images\generated_images\results_problem_21,,,,C:\Users\subject\Desktop\SVRT Experiments\SVRT Experiment 3\svrt_images\generated_images\results_problem_21\sample_0_0008.png,,,,,,,,,,,,,,,,,,,,0,3,3,3,0,0,0,0,,,,,,,,,,,,,,f,21,A,B,6,0,Incorrect!,3.469729099999995,388.14101470000014,None,388.14101470000014,None,391.64080620000004,None,,,,,22,001,2023-05-03_10h34.32.866,colored_sorted,2021.2.3,59.99055748623594,
C:\Users\subject\Desktop\SVRT Experiments\SVRT Experiment 3\svrt_images\generated_images\results_problem_21,,,,C:\Users\subject\Desktop\SVRT Experiments\SVRT Experiment 3\svrt_images\generated_images\results_problem_21\sample_1_0015.png,,,,,,,,,,,,,,,,,,,,0,3,3,3,0,1,1,1,,,,,,,,,,,,,,j,21,B,A,6,0,Incorrect!,3.654573199999959,392.7241511000002,None,392.7241511000002,None,396.4071705000001,None,,,,,22,001,2023-05-03_10h34.32.866,colored_sorted,2021.2.3,59.99055748623594,
C:\Users\subject\Desktop\SVRT Experiments\SVRT Experiment 3\svrt_images\generated_images\results_problem_21,,,,C:\Users\subject\Desktop\SVRT Experiments\SVRT Experiment 3\svrt_images\generated_images\results_problem_21\sample_1_0013.png,,,,,,,,,,,,,,,,,,,,0,3,3,3,0,2,2,2,,,,,,,,,,,,,,j,21,B,A,6,0,Incorrect!,1.112373999999818,397.4904488000002,None,397.4904488000002,None,398.6236980000001,None,,,,,22,001,2023-05-03_10h34.32.866,colored_sorted,2021.2.3,59.99055748623594,
C:\Users\subject\Desktop\SVRT Experiments\SVRT Experiment 3\svrt_images\generated_images\results_problem_21,,,,C:\Users\subject\Desktop\SVRT Experiments\SVRT Experiment 3\svrt_images\generated_images\results_problem_21\sample_1_0004.png,,,,,,,,,,,,,,,,,,,,0,3,3,3,0,3,3,3,,,,,,,,,,,,,,f,21,A,A,6,1,Correct!,0.40127959999995255,399.67363880000016,None,399.67363880000016,None,400.1069423000001,None,,,,,22,001,2023-05-03_10h34.32.866,colored_sorted,2021.2.3,59.99055748623594,
C:\Users\subject\Desktop\SVRT Experiments\SVRT Experiment 3\svrt_images\generated_images\results_problem_21,,,,C:\Users\subject\Desktop\SVRT Experiments\SVRT Experiment 3\svrt_images\generated_images\results_problem_21\sample_0_0003.png,,,,,,,,,,,,,,,,,,,,0,3,3,3,0,4,4,4,,,,,,,,,,,,,,f,21,A,B,6,0,Incorrect!,0.29381850000004306,401.1569323000001,None,401.1569323000001,None,401.4735359000001,None,,,,,22,001,2023-05-03_10h34.32.866,colored_sorted,2021.2.3,59.99055748623594,
C:\Users\subject\Desktop\SVRT Experiments\SVRT Experiment 3\svrt_images\generated_images\results_problem_21,,,,C:\Users\subject\Desktop\SVRT Experiments\SVRT Experiment 3\svrt_images\generated_images\results_problem_21\sample_1_0003.png,,,,,,,,,,,,,,,,,,,,0,3,3,3,0,5,5,5,,,,,,,,,,,,,,j,21,B,A,6,0,Incorrect!,0.2712311000000227,402.5234674000001,None,402.5234674000001,None,402.82346070000017,None,,,,,22,001,2023-05-03_10h34.32.866,colored_sorted,2021.2.3,59.99055748623594,
C:\Users\subject\Desktop\SVRT Experiments\SVRT Experiment 3\svrt_images\generated_images\results_problem_21,,,,C:\Users\subject\Desktop\SVRT Experiments\SVRT Experiment 3\svrt_images\generated_images\results_problem_21\sample_0_0015.png,,,,,,,,,,,,,,,,,,,,0,3,3,3,0,6,6,6,,,,,,,,,,,,,,j,21,B,B,6,1,Correct!,0.5367298000001028,403.8900453000001,None,403.8900453000001,None,404.4566910000001,None,,,,,22,001,2023-05-03_10h34.32.866,colored_sorted,2021.2.3,59.99055748623594,
C:\Users\subject\Desktop\SVRT Experiments\SVRT Experiment 3\svrt_images\generated_images\results_problem_21,,,,C:\Users\subject\Desktop\SVRT Experiments\SVRT Experiment 3\svrt_images\generated_images\results_problem_21\sample_1_0014.png,,,,,,,,,,,,,,,,,,,,0,3,3,3,0,7,7,7,,,,,,,,,,,,,,f,21,A,A,6,1,Correct!,0.2949171000000206,405.5399546000001,None,405.5399546000001,None,405.8565937000001,None,,,,,22,001,2023-05-03_10h34.32.866,colored_sorted,2021.2.3,59.99055748623594,
C:\Users\subject\Desktop\SVRT Experiments\SVRT Experiment 3\svrt_images\generated_images\results_problem_21,,,,C:\Users\subject\Desktop\SVRT Experiments\SVRT Experiment 3\svrt_images\generated_images\results_problem_21\sample_1_0008.png,,,,,,,,,,,,,,,,,,,,0,3,3,3,0,8,8,8,,,,,,,,,,,,,,f,21,A,A,6,1,Correct!,0.25495010000008733,406.9398897000001,None,406.9398897000001,None,407.2231809000002,None,,,,,22,001,2023-05-03_10h34.32.866,colored_sorted,2021.2.3,59.99055748623594,
C:\Users\subject\Desktop\SVRT Experiments\SVRT Experiment 3\svrt_images\generated_images\results_problem_21,,,,C:\Users\subject\Desktop\SVRT Experiments\SVRT Experiment 3\svrt_images\generated_images\results_problem_21\sample_0_0016.png,,,,,,,,,,,,,,,,,,,,0,3,3,3,0,9,9,9,,,,,,,,,,,,,,j,21,B,B,6,1,Correct!,0.28024709999999686,408.30646620000016,None,408.30646620000016,None,408.6064362000002,None,,,,,22,001,2023-05-03_10h34.32.866,colored_sorted,2021.2.3,59.99055748623594,
C:\Users\subject\Desktop\SVRT Experiments\SVRT Experiment 3\svrt_images\generated_images\results_problem_21,,,,C:\Users\subject\Desktop\SVRT Experiments\SVRT Experiment 3\svrt_images\generated_images\results_problem_21\sample_1_0010.png,,,,,,,,,,,,,,,,,,,,0,3,3,3,0,10,10,10,,,,,,,,,,,,,,j,21,B,A,6,0,Incorrect!,0.0004859000000578817,409.7063703000001,None,409.7063703000001,None,409.7397394000002,None,,,,,22,001,2023-05-03_10h34.32.866,colored_sorted,2021.2.3,59.99055748623594,
C:\Users\subject\Desktop\SVRT Experiments\SVRT Experiment 3\svrt_images\generated_images\results_problem_21,,,,C:\Users\subject\Desktop\SVRT Experiments\SVRT Experiment 3\svrt_images\generated_images\results_problem_21\sample_1_0002.png,,,,,,,,,,,,,,,,,,,,0,3,3,3,0,11,11,11,,,,,,,,,,,,,,f,21,A,A,6,1,Correct!,0.2903914999999415,410.8563008000001,None,410.8563008000001,None,411.1729435000002,None,,,,,22,001,2023-05-03_10h34.32.866,colored_sorted,2021.2.3,59.99055748623594,
C:\Users\subject\Desktop\SVRT Experiments\SVRT Experiment 3\svrt_images\generated_images\results_problem_21,,,,C:\Users\subject\Desktop\SVRT Experiments\SVRT Experiment 3\svrt_images\generated_images\results_problem_21\sample_0_0002.png,,,,,,,,,,,,,,,,,,,,0,3,3,3,0,12,12,12,,,,,,,,,,,,,,f,21,A,B,6,0,Incorrect!,0.2652093000001514,412.28954410000006,None,412.28954410000006,None,412.5728606,None,,,,,22,001,2023-05-03_10h34.32.866,colored_sorted,2021.2.3,59.99055748623594,
C:\Users\subject\Desktop\SVRT Experiments\SVRT Experiment 3\svrt_images\generated_images\results_problem_21,,,,C:\Users\subject\Desktop\SVRT Experiments\SVRT Experiment 3\svrt_images\generated_images\results_problem_21\sample_1_0011.png,,,,,,,,,,,,,,,,,,,,0,3,3,3,0,13,13,13,,,,,,,,,,,,,,j,21,B,A,6,0,Incorrect!,0.2718724999999722,413.7227854,None,413.7227854,None,414.0227916000001,None,,,,,22,001,2023-05-03_10h34.32.866,colored_sorted,2021.2.3,59.99055748623594,
C:\Users\subject\Desktop\SVRT Experiments\SVRT Experiment 3\svrt_images\generated_images\results_problem_21,,,,C:\Users\subject\Desktop\SVRT Experiments\SVRT Experiment 3\svrt_images\generated_images\results_problem_21\sample_1_0000.png,,,,,,,,,,,,,,,,,,,,0,3,3,3,0,14,14,14,,,,,,,,,,,,,,f,21,A,A,6,1,Correct!,0.2460667000000285,415.17276600000014,None,415.17276600000014,None,415.4393562,None,,,,,22,001,2023-05-03_10h34.32.866,colored_sorted,2021.2.3,59.99055748623594,
C:\Users\subject\Desktop\SVRT Experiments\SVRT Experiment 3\svrt_images\generated_images\results_problem_21,,,,C:\Users\subject\Desktop\SVRT Experiments\SVRT Experiment 3\svrt_images\generated_images\results_problem_21\sample_0_0013.png,,,,,,,,,,,,,,,,,,,,0,3,3,3,0,15,15,15,,,,,,,,,,,,,,f,21,A,B,6,0,Incorrect!,0.3183180999999422,416.5724258,None,416.5724258,None,416.92260540000007,None,,,,,22,001,2023-05-03_10h34.32.866,colored_sorted,2021.2.3,59.99055748623594,
C:\Users\subject\Desktop\SVRT Experiments\SVRT Experiment 3\svrt_images\generated_images\results_problem_21,,,,C:\Users\subject\Desktop\SVRT Experiments\SVRT Experiment 3\svrt_images\generated_images\results_problem_21\sample_0_0005.png,,,,,,,,,,,,,,,,,,,,0,3,3,3,0,16,16,16,,,,,,,,,,,,,,j,21,B,B,6,1,Correct!,0.3215018000000782,418.08922870000015,None,418.08922870000015,None,418.4391825,None,,,,,22,001,2023-05-03_10h34.32.866,colored_sorted,2021.2.3,59.99055748623594,
C:\Users\subject\Desktop\SVRT Experiments\SVRT Experiment 3\svrt_images\generated_images\results_problem_21,,,,C:\Users\subject\Desktop\SVRT Experiments\SVRT Experiment 3\svrt_images\generated_images\results_problem_21\sample_1_0009.png,,,,,,,,,,,,,,,,,,,,0,3,3,3,0,17,17,17,,,,,,,,,,,,,,f,21,A,A,6,1,Correct!,0.27707650000002104,419.6056002,None,419.6056002,None,419.9224425000002,None,,,,,22,001,2023-05-03_10h34.32.866,colored_sorted,2021.2.3,59.99055748623594,
C:\Users\subject\Desktop\SVRT Experiments\SVRT Experiment 3\svrt_images\generated_images\results_problem_21,,,,C:\Users\subject\Desktop\SVRT Experiments\SVRT Experiment 3\svrt_images\generated_images\results_problem_21\sample_0_0010.png,,,,,,,,,,,,,,,,,,,,0,3,3,3,0,18,18,18,,,,,,,,,,,,,,f,21,A,B,6,0,Incorrect!,0.2629428000000189,421.15573100000006,None,421.15573100000006,None,421.4390043000001,None,,,,,22,001,2023-05-03_10h34.32.866,colored_sorted,2021.2.3,59.99055748623594,
C:\Users\subject\Desktop\SVRT Experiments\SVRT Experiment 3\svrt_images\generated_images\results_problem_21,,,,C:\Users\subject\Desktop\SVRT Experiments\SVRT Experiment 3\svrt_images\generated_images\results_problem_21\sample_0_0000.png,,,,,,,,,,,,,,,,,,,,0,3,3,3,0,19,19,19,,,,,,,,,,,,,,f,21,A,B,6,0,Incorrect!,0.3631666999999652,422.65560860000005,None,422.65560860000005,None,423.0389252,None,,,,,22,001,2023-05-03_10h34.32.866,colored_sorted,2021.2.3,59.99055748623594,
C:\Users\subject\Desktop\SVRT Experiments\SVRT Experiment 3\svrt_images\generated_images\results_problem_21,,,,C:\Users\subject\Desktop\SVRT Experiments\SVRT Experiment 3\svrt_images\generated_images\results_problem_21\sample_0_0014.png,,,,,,,,,,,,,,,,,,,,0,3,3,3,0,20,20,20,,,,,,,,,,,,,,f,21,A,B,6,0,Incorrect!,0.2679619000000457,424.23883950000004,None,424.23883950000004,None,424.55547920000004,None,,,,,22,001,2023-05-03_10h34.32.866,colored_sorted,2021.2.3,59.99055748623594,
C:\Users\subject\Desktop\SVRT Experiments\SVRT Experiment 3\svrt_images\generated_images\results_problem_21,,,,C:\Users\subject\Desktop\SVRT Experiments\SVRT Experiment 3\svrt_images\generated_images\results_problem_21\sample_0_0007.png,,,,,,,,,,,,,,,,,,,,0,3,3,3,0,21,21,21,,,,,,,,,,,,,,j,21,B,B,6,1,Correct!,0.2866533999999774,425.7720776000001,None,425.7720776000001,None,426.0887253000001,None,,,,,22,001,2023-05-03_10h34.32.866,colored_sorted,2021.2.3,59.99055748623594,
C:\Users\subject\Desktop\SVRT Experiments\SVRT Experiment 3\svrt_images\generated_images\results_problem_21,,,,C:\Users\subject\Desktop\SVRT Experiments\SVRT Experiment 3\svrt_images\generated_images\results_problem_21\sample_0_0012.png,,,,,,,,,,,,,,,,,,,,0,3,3,3,0,22,22,22,,,,,,,,,,,,,,j,21,B,B,6,1,Correct!,0.3376271000001907,427.3051421,None,427.3051421,None,427.6719701000002,None,,,,,22,001,2023-05-03_10h34.32.866,colored_sorted,2021.2.3,59.99055748623594,
C:\Users\subject\Desktop\SVRT Experiments\SVRT Experiment 3\svrt_images\generated_images\results_problem_21,,,,C:\Users\subject\Desktop\SVRT Experiments\SVRT Experiment 3\svrt_images\generated_images\results_problem_21\sample_0_0009.png,,,,,,,,,,,,,,,,,,,,0,3,3,3,0,23,23,23,,,,,,,,,,,,,,j,21,B,B,6,1,Correct!,1.088933999999881,428.9218948,None,428.9218948,None,430.0384789000002,None,,,,,22,001,2023-05-03_10h34.32.866,colored_sorted,2021.2.3,59.99055748623594,
C:\Users\subject\Desktop\SVRT Experiments\SVRT Experiment 3\svrt_images\generated_images\results_problem_21,,,,C:\Users\subject\Desktop\SVRT Experiments\SVRT Experiment 3\svrt_images\generated_images\results_problem_21\sample_1_0007.png,,,,,,,,,,,,,,,,,,,,0,3,3,3,0,24,24,24,,,,,,,,,,,,,,j,21,B,A,6,0,Incorrect!,0.3537226999999348,431.3050747000002,None,431.3050747000002,None,431.7217488000001,None,,,,,22,001,2023-05-03_10h34.32.866,colored_sorted,2021.2.3,59.99055748623594,
C:\Users\subject\Desktop\SVRT Experiments\SVRT Experiment 3\svrt_images\generated_images\results_problem_21,,,,C:\Users\subject\Desktop\SVRT Experiments\SVRT Experiment 3\svrt_images\generated_images\results_problem_21\sample_1_0006.png,,,,,,,,,,,,,,,,,,,,0,3,3,3,0,25,25,25,,,,,,,,,,,,,,j,21,B,A,6,0,Incorrect!,0.22250630000007732,432.9883099000001,None,432.9883099000001,None,433.2549607000001,None,,,,,22,001,2023-05-03_10h34.32.866,colored_sorted,2021.2.3,59.99055748623594,
C:\Users\subject\Desktop\SVRT Experiments\SVRT Experiment 3\svrt_images\generated_images\results_problem_21,,,,C:\Users\subject\Desktop\SVRT Experiments\SVRT Experiment 3\svrt_images\generated_images\results_problem_21\sample_1_0012.png,,,,,,,,,,,,,,,,,,,,0,3,3,3,0,26,26,26,,,,,,,,,,,,,,f,21,A,A,6,1,Correct!,0.22514559999990524,434.5215548000001,None,434.5215548000001,None,434.78819910000016,None,,,,,22,001,2023-05-03_10h34.32.866,colored_sorted,2021.2.3,59.99055748623594,
C:\Users\subject\Desktop\SVRT Experiments\SVRT Experiment 3\svrt_images\generated_images\results_problem_21,,,,C:\Users\subject\Desktop\SVRT Experiments\SVRT Experiment 3\svrt_images\generated_images\results_problem_21\sample_1_0016.png,,,,,,,,,,,,,,,,,,,,0,3,3,3,0,27,27,27,,,,,,,,,,,,,,f,21,A,A,6,1,Correct!,0.08357550000005176,436.0714524,None,436.0714524,None,436.2214331,None,,,,,22,001,2023-05-03_10h34.32.866,colored_sorted,2021.2.3,59.99055748623594,
C:\Users\subject\Desktop\SVRT Experiments\SVRT Experiment 3\svrt_images\generated_images\results_problem_21,,,,C:\Users\subject\Desktop\SVRT Experiments\SVRT Experiment 3\svrt_images\generated_images\results_problem_21\sample_1_0001.png,,,,,,,,,,,,,,,,,,,,0,3,3,3,0,28,28,28,,,,,,,,,,,,,,j,21,B,A,6,0,Incorrect!,0.1214701999999761,437.52135740000017,None,437.52135740000017,None,437.67138650000015,None,,,,,22,001,2023-05-03_10h34.32.866,colored_sorted,2021.2.3,59.99055748623594,
C:\Users\subject\Desktop\SVRT Experiments\SVRT Experiment 3\svrt_images\generated_images\results_problem_21,,,,C:\Users\subject\Desktop\SVRT Experiments\SVRT Experiment 3\svrt_images\generated_images\results_problem_21\sample_0_0006.png,,,,,,,,,,,,,,,,,,,,0,3,3,3,0,29,29,29,,,,,,,,,,,,,,j,21,B,B,6,1,Correct!,0.6074765999999272,438.9712774000002,None,438.9712774000002,None,439.6545569000002,None,,,,,22,001,2023-05-03_10h34.32.866,colored_sorted,2021.2.3,59.99055748623594,
C:\Users\subject\Desktop\SVRT Experiments\SVRT Experiment 3\svrt_images\generated_images\results_problem_21,,,,C:\Users\subject\Desktop\SVRT Experiments\SVRT Experiment 3\svrt_images\generated_images\results_problem_21\sample_0_0004.png,,,,,,,,,,,,,,,,,,,,0,3,3,3,0,30,30,30,,,,,,,,,,,,,,f,21,A,B,6,0,Incorrect!,0.22372489999997924,440.9711648,None,440.9711648,None,441.2544571000001,None,,,,,22,001,2023-05-03_10h34.32.866,colored_sorted,2021.2.3,59.99055748623594,
C:\Users\subject\Desktop\SVRT Experiments\SVRT Experiment 3\svrt_images\generated_images\results_problem_21,,,,C:\Users\subject\Desktop\SVRT Experiments\SVRT Experiment 3\svrt_images\generated_images\results_problem_21\sample_0_0001.png,,,,,,,,,,,,,,,,,,,,0,3,3,3,0,31,31,31,,,,,,,,,,,,,,j,21,B,B,6,1,Correct!,0.3196295000000191,442.5710359000002,None,442.5710359000002,None,442.9210521,None,,,,,22,001,2023-05-03_10h34.32.866,colored_sorted,2021.2.3,59.99055748623594,
C:\Users\subject\Desktop\SVRT Experiments\SVRT Experiment 3\svrt_images\generated_images\results_problem_21,,,,C:\Users\subject\Desktop\SVRT Experiments\SVRT Experiment 3\svrt_images\generated_images\results_problem_21\sample_0_0011.png,,,,,,,,,,,,,,,,,,,,0,3,3,3,0,32,32,32,,,,,,,,,,,,,,j,21,B,B,6,1,Correct!,0.47390039999982037,444.32093910000003,None,444.32093910000003,None,444.8709122,None,,,,,22,001,2023-05-03_10h34.32.866,colored_sorted,2021.2.3,59.99055748623594,
C:\Users\subject\Desktop\SVRT Experiments\SVRT Experiment 3\svrt_images\generated_images\results_problem_21,,,,C:\Users\subject\Desktop\SVRT Experiments\SVRT Experiment 3\svrt_images\generated_images\results_problem_21\sample_1_0005.png,,,,,,,,,,,,,,,,,,,,0,3,3,3,0,33,33,33,,,,,,,,,,,,,,j,21,B,A,6,0,Incorrect!,0.2853564000001825,446.23749900000007,None,446.23749900000007,None,446.5708145000001,None,,,,,22,001,2023-05-03_10h34.32.866,colored_sorted,2021.2.3,59.99055748623594,
C:\Users\subject\Desktop\SVRT Experiments\SVRT Experiment 3\svrt_images\generated_images\results_problem_21,,,,,,,,,,,,,,,,,,,,,,,,0,3,3,3,,,,,,,,,,,,,,,,,,,,,,,,,,,,,,,,447.57073790000004,447.57073790000004,space,0.6958691999998337,22,001,2023-05-03_10h34.32.866,colored_sorted,2021.2.3,59.99055748623594,
C:\Users\subject\Desktop\SVRT Experiments\SVRT Experiment 3\svrt_images\generated_images\results_problem_2,,,,,C:\Users\subject\Desktop\SVRT Experiments\SVRT Experiment 3\svrt_images\generated_images\results_problem_2\sample_1_0008.png,,,,,,,,,,,,,,,,,,,0,4,4,4,0,0,0,0,,,,,,,,,,,,,,j,2,B,A,6,0,Incorrect!,3.1147138999999697,448.3040386,None,448.3040386,None,451.4372816,None,,,,,22,001,2023-05-03_10h34.32.866,colored_sorted,2021.2.3,59.99055748623594,
C:\Users\subject\Desktop\SVRT Experiments\SVRT Experiment 3\svrt_images\generated_images\results_problem_2,,,,,C:\Users\subject\Desktop\SVRT Experiments\SVRT Experiment 3\svrt_images\generated_images\results_problem_2\sample_0_0009.png,,,,,,,,,,,,,,,,,,,0,4,4,4,0,1,1,1,,,,,,,,,,,,,,f,2,A,B,6,0,Incorrect!,0.37223870000002535,452.47045230000003,None,452.47045230000003,None,452.8704289000002,None,,,,,22,001,2023-05-03_10h34.32.866,colored_sorted,2021.2.3,59.99055748623594,
C:\Users\subject\Desktop\SVRT Experiments\SVRT Experiment 3\svrt_images\generated_images\results_problem_2,,,,,C:\Users\subject\Desktop\SVRT Experiments\SVRT Experiment 3\svrt_images\generated_images\results_problem_2\sample_0_0015.png,,,,,,,,,,,,,,,,,,,0,4,4,4,0,2,2,2,,,,,,,,,,,,,,f,2,A,B,6,0,Incorrect!,0.296340999999984,453.9703390000002,None,453.9703390000002,None,454.28700760000015,None,,,,,22,001,2023-05-03_10h34.32.866,colored_sorted,2021.2.3,59.99055748623594,
C:\Users\subject\Desktop\SVRT Experiments\SVRT Experiment 3\svrt_images\generated_images\results_problem_2,,,,,C:\Users\subject\Desktop\SVRT Experiments\SVRT Experiment 3\svrt_images\generated_images\results_problem_2\sample_1_0014.png,,,,,,,,,,,,,,,,,,,0,4,4,4,0,3,3,3,,,,,,,,,,,,,,j,2,B,A,6,0,Incorrect!,0.657777600000145,455.3369467,None,455.3369467,None,456.0202373000002,None,,,,,22,001,2023-05-03_10h34.32.866,colored_sorted,2021.2.3,59.99055748623594,
C:\Users\subject\Desktop\SVRT Experiments\SVRT Experiment 3\svrt_images\generated_images\results_problem_2,,,,,C:\Users\subject\Desktop\SVRT Experiments\SVRT Experiment 3\svrt_images\generated_images\results_problem_2\sample_0_0010.png,,,,,,,,,,,,,,,,,,,0,4,4,4,0,4,4,4,,,,,,,,,,,,,,j,2,B,B,6,1,Correct!,2.5884869999999864,457.07017440000004,None,457.07017440000004,None,459.68669680000016,None,,,,,22,001,2023-05-03_10h34.32.866,colored_sorted,2021.2.3,59.99055748623594,
C:\Users\subject\Desktop\SVRT Experiments\SVRT Experiment 3\svrt_images\generated_images\results_problem_2,,,,,C:\Users\subject\Desktop\SVRT Experiments\SVRT Experiment 3\svrt_images\generated_images\results_problem_2\sample_1_0010.png,,,,,,,,,,,,,,,,,,,0,4,4,4,0,5,5,5,,,,,,,,,,,,,,f,2,A,A,6,1,Correct!,0.6504613000001882,460.7366435000001,None,460.7366435000001,None,461.4199433000001,None,,,,,22,001,2023-05-03_10h34.32.866,colored_sorted,2021.2.3,59.99055748623594,
C:\Users\subject\Desktop\SVRT Experiments\SVRT Experiment 3\svrt_images\generated_images\results_problem_2,,,,,C:\Users\subject\Desktop\SVRT Experiments\SVRT Experiment 3\svrt_images\generated_images\results_problem_2\sample_0_0008.png,,,,,,,,,,,,,,,,,,,0,4,4,4,0,6,6,6,,,,,,,,,,,,,,j,2,B,B,6,1,Correct!,0.6768938000000162,462.4698495,None,462.4698495,None,463.16983500000015,None,,,,,22,001,2023-05-03_10h34.32.866,colored_sorted,2021.2.3,59.99055748623594,
C:\Users\subject\Desktop\SVRT Experiments\SVRT Experiment 3\svrt_images\generated_images\results_problem_2,,,,,C:\Users\subject\Desktop\SVRT Experiments\SVRT Experiment 3\svrt_images\generated_images\results_problem_2\sample_1_0011.png,,,,,,,,,,,,,,,,,,,0,4,4,4,0,7,7,7,,,,,,,,,,,,,,f,2,A,A,6,1,Correct!,0.5734790999999859,464.2531209000001,None,464.2531209000001,None,464.8530343000002,None,,,,,22,001,2023-05-03_10h34.32.866,colored_sorted,2021.2.3,59.99055748623594,
C:\Users\subject\Desktop\SVRT Experiments\SVRT Experiment 3\svrt_images\generated_images\results_problem_2,,,,,C:\Users\subject\Desktop\SVRT Experiments\SVRT Experiment 3\svrt_images\generated_images\results_problem_2\sample_1_0001.png,,,,,,,,,,,,,,,,,,,0,4,4,4,0,8,8,8,,,,,,,,,,,,,,f,2,A,A,6,1,Correct!,0.8424448999999186,465.9363048,None,465.9363048,None,466.80293440000014,None,,,,,22,001,2023-05-03_10h34.32.866,colored_sorted,2021.2.3,59.99055748623594,
C:\Users\subject\Desktop\SVRT Experiments\SVRT Experiment 3\svrt_images\generated_images\results_problem_2,,,,,C:\Users\subject\Desktop\SVRT Experiments\SVRT Experiment 3\svrt_images\generated_images\results_problem_2\sample_1_0009.png,,,,,,,,,,,,,,,,,,,0,4,4,4,0,9,9,9,,,,,,,,,,,,,,f,2,A,A,6,1,Correct!,0.7791829000000234,467.91954340000007,None,467.91954340000007,None,468.7195024,None,,,,,22,001,2023-05-03_10h34.32.866,colored_sorted,2021.2.3,59.99055748623594,
C:\Users\subject\Desktop\SVRT Experiments\SVRT Experiment 3\svrt_images\generated_images\results_problem_2,,,,,C:\Users\subject\Desktop\SVRT Experiments\SVRT Experiment 3\svrt_images\generated_images\results_problem_2\sample_0_0000.png,,,,,,,,,,,,,,,,,,,0,4,4,4,0,10,10,10,,,,,,,,,,,,,,j,2,B,B,6,1,Correct!,0.5913307000000714,469.81942490000006,None,469.81942490000006,None,470.4359347000002,None,,,,,22,001,2023-05-03_10h34.32.866,colored_sorted,2021.2.3,59.99055748623594,
C:\Users\subject\Desktop\SVRT Experiments\SVRT Experiment 3\svrt_images\generated_images\results_problem_2,,,,,C:\Users\subject\Desktop\SVRT Experiments\SVRT Experiment 3\svrt_images\generated_images\results_problem_2\sample_0_0005.png,,,,,,,,,,,,,,,,,,,0,4,4,4,0,11,11,11,,,,,,,,,,,,,,,,,,,,,,,,,,,,471.4358609000001,471.4358609000001,space,0.7511288000000604,22,001,2023-05-03_10h34.32.866,colored_sorted,2021.2.3,59.99055748623594,
C:\Users\subject\Desktop\SVRT Experiments\SVRT Experiment 3\svrt_images\generated_images\results_problem_1,,,,,C:\Users\subject\Desktop\SVRT Experiments\SVRT Experiment 3\svrt_images\generated_images\results_problem_2\sample_0_0005.png,C:\Users\subject\Desktop\SVRT Experiments\SVRT Experiment 3\svrt_images\generated_images\results_problem_1\sample_0_0007.png,,,,,,,,,,,,,,,,,,0,5,5,5,0,0,0,0,,,,,,,,,,,,,,f,1,A,B,6,0,Incorrect!,1.7262980000000425,472.25262380000004,None,472.25262380000004,None,474.0025287000001,None,,,,,22,001,2023-05-03_10h34.32.866,colored_sorted,2021.2.3,59.99055748623594,
C:\Users\subject\Desktop\SVRT Experiments\SVRT Experiment 3\svrt_images\generated_images\results_problem_1,,,,,C:\Users\subject\Desktop\SVRT Experiments\SVRT Experiment 3\svrt_images\generated_images\results_problem_2\sample_0_0005.png,C:\Users\subject\Desktop\SVRT Experiments\SVRT Experiment 3\svrt_images\generated_images\results_problem_1\sample_1_0006.png,,,,,,,,,,,,,,,,,,0,5,5,5,0,1,1,1,,,,,,,,,,,,,,j,1,B,A,6,0,Incorrect!,1.277249700000084,475.0693633000001,None,475.0693633000001,None,476.3692205000002,None,,,,,22,001,2023-05-03_10h34.32.866,colored_sorted,2021.2.3,59.99055748623594,
C:\Users\subject\Desktop\SVRT Experiments\SVRT Experiment 3\svrt_images\generated_images\results_problem_1,,,,,C:\Users\subject\Desktop\SVRT Experiments\SVRT Experiment 3\svrt_images\generated_images\results_problem_2\sample_0_0005.png,C:\Users\subject\Desktop\SVRT Experiments\SVRT Experiment 3\svrt_images\generated_images\results_problem_1\sample_0_0008.png,,,,,,,,,,,,,,,,,,0,5,5,5,0,2,2,2,,,,,,,,,,,,,,f,1,A,B,6,0,Incorrect!,4.78358819999994,477.4192405000001,None,477.4192405000001,None,482.2357098,None,,,,,22,001,2023-05-03_10h34.32.866,colored_sorted,2021.2.3,59.99055748623594,
C:\Users\subject\Desktop\SVRT Experiments\SVRT Experiment 3\svrt_images\generated_images\results_problem_1,,,,,C:\Users\subject\Desktop\SVRT Experiments\SVRT Experiment 3\svrt_images\generated_images\results_problem_2\sample_0_0005.png,C:\Users\subject\Desktop\SVRT Experiments\SVRT Experiment 3\svrt_images\generated_images\results_problem_1\sample_1_0015.png,,,,,,,,,,,,,,,,,,0,5,5,5,0,3,3,3,,,,,,,,,,,,,,j,1,B,A,6,0,Incorrect!,1.5090692000001127,483.2856588000002,None,483.2856588000002,None,484.8185704,None,,,,,22,001,2023-05-03_10h34.32.866,colored_sorted,2021.2.3,59.99055748623594,
C:\Users\subject\Desktop\SVRT Experiments\SVRT Experiment 3\svrt_images\generated_images\results_problem_1,,,,,C:\Users\subject\Desktop\SVRT Experiments\SVRT Experiment 3\svrt_images\generated_images\results_problem_2\sample_0_0005.png,C:\Users\subject\Desktop\SVRT Experiments\SVRT Experiment 3\svrt_images\generated_images\results_problem_1\sample_1_0013.png,,,,,,,,,,,,,,,,,,0,5,5,5,0,4,4,4,,,,,,,,,,,,,,j,1,B,A,6,0,Incorrect!,0.9742911999999251,485.86847080000007,None,485.86847080000007,None,486.8687702000002,None,,,,,22,001,2023-05-03_10h34.32.866,colored_sorted,2021.2.3,59.99055748623594,
C:\Users\subject\Desktop\SVRT Experiments\SVRT Experiment 3\svrt_images\generated_images\results_problem_1,,,,,C:\Users\subject\Desktop\SVRT Experiments\SVRT Experiment 3\svrt_images\generated_images\results_problem_2\sample_0_0005.png,C:\Users\subject\Desktop\SVRT Experiments\SVRT Experiment 3\svrt_images\generated_images\results_problem_1\sample_1_0002.png,,,,,,,,,,,,,,,,,,0,5,5,5,0,5,5,5,,,,,,,,,,,,,,f,1,A,A,6,1,Correct!,0.987396500000159,487.93539610000016,None,487.93539610000016,None,488.95193760000006,None,,,,,22,001,2023-05-03_10h34.32.866,colored_sorted,2021.2.3,59.99055748623594,
C:\Users\subject\Desktop\SVRT Experiments\SVRT Experiment 3\svrt_images\generated_images\results_problem_1,,,,,C:\Users\subject\Desktop\SVRT Experiments\SVRT Experiment 3\svrt_images\generated_images\results_problem_2\sample_0_0005.png,C:\Users\subject\Desktop\SVRT Experiments\SVRT Experiment 3\svrt_images\generated_images\results_problem_1\sample_0_0010.png,,,,,,,,,,,,,,,,,,0,5,5,5,0,6,6,6,,,,,,,,,,,,,,f,1,A,B,6,0,Incorrect!,0.6154705999999805,490.0352200000002,None,490.0352200000002,None,490.66841180000006,None,,,,,22,001,2023-05-03_10h34.32.866,colored_sorted,2021.2.3,59.99055748623594,
C:\Users\subject\Desktop\SVRT Experiments\SVRT Experiment 3\svrt_images\generated_images\results_problem_1,,,,,C:\Users\subject\Desktop\SVRT Experiments\SVRT Experiment 3\svrt_images\generated_images\results_problem_2\sample_0_0005.png,C:\Users\subject\Desktop\SVRT Experiments\SVRT Experiment 3\svrt_images\generated_images\results_problem_1\sample_0_0013.png,,,,,,,,,,,,,,,,,,0,5,5,5,0,7,7,7,,,,,,,,,,,,,,j,1,B,B,6,1,Correct!,0.6915833999998995,491.7350216000002,None,491.7350216000002,None,492.45132220000005,None,,,,,22,001,2023-05-03_10h34.32.866,colored_sorted,2021.2.3,59.99055748623594,
C:\Users\subject\Desktop\SVRT Experiments\SVRT Experiment 3\svrt_images\generated_images\results_problem_1,,,,,C:\Users\subject\Desktop\SVRT Experiments\SVRT Experiment 3\svrt_images\generated_images\results_problem_2\sample_0_0005.png,C:\Users\subject\Desktop\SVRT Experiments\SVRT Experiment 3\svrt_images\generated_images\results_problem_1\sample_1_0007.png,,,,,,,,,,,,,,,,,,0,5,5,5,0,8,8,8,,,,,,,,,,,,,,f,1,A,A,6,1,Correct!,0.5881749000000127,493.5345727000001,None,493.5345727000001,None,494.15110040000013,None,,,,,22,001,2023-05-03_10h34.32.866,colored_sorted,2021.2.3,59.99055748623594,
C:\Users\subject\Desktop\SVRT Experiments\SVRT Experiment 3\svrt_images\generated_images\results_problem_1,,,,,C:\Users\subject\Desktop\SVRT Experiments\SVRT Experiment 3\svrt_images\generated_images\results_problem_2\sample_0_0005.png,C:\Users\subject\Desktop\SVRT Experiments\SVRT Experiment 3\svrt_images\generated_images\results_problem_1\sample_1_0001.png,,,,,,,,,,,,,,,,,,0,5,5,5,0,9,9,9,,,,,,,,,,,,,,f,1,A,A,6,1,Correct!,0.823598899999979,495.2512276,None,495.2512276,None,496.1011777000001,None,,,,,22,001,2023-05-03_10h34.32.866,colored_sorted,2021.2.3,59.99055748623594,
C:\Users\subject\Desktop\SVRT Experiments\SVRT Experiment 3\svrt_images\generated_images\results_problem_1,,,,,C:\Users\subject\Desktop\SVRT Experiments\SVRT Experiment 3\svrt_images\generated_images\results_problem_2\sample_0_0005.png,C:\Users\subject\Desktop\SVRT Experiments\SVRT Experiment 3\svrt_images\generated_images\results_problem_1\sample_1_0000.png,,,,,,,,,,,,,,,,,,0,5,5,5,0,10,10,10,,,,,,,,,,,,,,f,1,A,A,6,1,Correct!,0.6009281000001465,497.2177878,None,497.2177878,None,497.8510784,None,,,,,22,001,2023-05-03_10h34.32.866,colored_sorted,2021.2.3,59.99055748623594,
C:\Users\subject\Desktop\SVRT Experiments\SVRT Experiment 3\svrt_images\generated_images\results_problem_1,,,,,C:\Users\subject\Desktop\SVRT Experiments\SVRT Experiment 3\svrt_images\generated_images\results_problem_2\sample_0_0005.png,C:\Users\subject\Desktop\SVRT Experiments\SVRT Experiment 3\svrt_images\generated_images\results_problem_1\sample_1_0008.png,,,,,,,,,,,,,,,,,,0,5,5,5,0,11,11,11,,,,,,,,,,,,,,f,1,A,A,6,1,Correct!,0.5956335000000763,498.95100530000013,None,498.95100530000013,None,499.5676427000001,None,,,,,22,001,2023-05-03_10h34.32.866,colored_sorted,2021.2.3,59.99055748623594,
C:\Users\subject\Desktop\SVRT Experiments\SVRT Experiment 3\svrt_images\generated_images\results_problem_1,,,,,C:\Users\subject\Desktop\SVRT Experiments\SVRT Experiment 3\svrt_images\generated_images\results_problem_2\sample_0_0005.png,C:\Users\subject\Desktop\SVRT Experiments\SVRT Experiment 3\svrt_images\generated_images\results_problem_1\sample_0_0002.png,,,,,,,,,,,,,,,,,,0,5,5,5,0,12,12,12,,,,,,,,,,,,,,j,1,B,B,6,1,Correct!,0.8785538000001907,500.6842422000002,None,500.6842422000002,None,501.5841768,None,,,,,22,001,2023-05-03_10h34.32.866,colored_sorted,2021.2.3,59.99055748623594,
C:\Users\subject\Desktop\SVRT Experiments\SVRT Experiment 3\svrt_images\generated_images\results_problem_1,,,,,C:\Users\subject\Desktop\SVRT Experiments\SVRT Experiment 3\svrt_images\generated_images\results_problem_2\sample_0_0005.png,C:\Users\subject\Desktop\SVRT Experiments\SVRT Experiment 3\svrt_images\generated_images\results_problem_1\sample_0_0000.png,,,,,,,,,,,,,,,,,,0,5,5,5,0,13,13,13,,,,,,,,,,,,,,j,1,B,B,6,1,Correct!,0.6846912000000884,502.7341038000002,None,502.7341038000002,None,503.45072860000005,None,,,,,22,001,2023-05-03_10h34.32.866,colored_sorted,2021.2.3,59.99055748623594,
C:\Users\subject\Desktop\SVRT Experiments\SVRT Experiment 3\svrt_images\generated_images\results_problem_1,,,,,C:\Users\subject\Desktop\SVRT Experiments\SVRT Experiment 3\svrt_images\generated_images\results_problem_2\sample_0_0005.png,C:\Users\subject\Desktop\SVRT Experiments\SVRT Experiment 3\svrt_images\generated_images\results_problem_1\sample_1_0004.png,,,,,,,,,,,,,,,,,,0,5,5,5,0,14,14,14,,,,,,,,,,,,,,,,,,,,,,,,,,,,504.45067830000016,504.45067830000016,space,0.695989499999996,22,001,2023-05-03_10h34.32.866,colored_sorted,2021.2.3,59.99055748623594,
C:\Users\subject\Desktop\SVRT Experiments\SVRT Experiment 3\svrt_images\generated_images\results_problem_11,,,,,C:\Users\subject\Desktop\SVRT Experiments\SVRT Experiment 3\svrt_images\generated_images\results_problem_2\sample_0_0005.png,C:\Users\subject\Desktop\SVRT Experiments\SVRT Experiment 3\svrt_images\generated_images\results_problem_1\sample_1_0004.png,C:\Users\subject\Desktop\SVRT Experiments\SVRT Experiment 3\svrt_images\generated_images\results_problem_11\sample_0_0007.png,,,,,,,,,,,,,,,,,0,6,6,6,0,0,0,0,,,,,,,,,,,,,,f,11,A,B,6,0,Incorrect!,1.8827775999998266,505.18397130000017,None,505.18397130000017,None,507.0838348000002,None,,,,,22,001,2023-05-03_10h34.32.866,colored_sorted,2021.2.3,59.99055748623594,
C:\Users\subject\Desktop\SVRT Experiments\SVRT Experiment 3\svrt_images\generated_images\results_problem_11,,,,,C:\Users\subject\Desktop\SVRT Experiments\SVRT Experiment 3\svrt_images\generated_images\results_problem_2\sample_0_0005.png,C:\Users\subject\Desktop\SVRT Experiments\SVRT Experiment 3\svrt_images\generated_images\results_problem_1\sample_1_0004.png,C:\Users\subject\Desktop\SVRT Experiments\SVRT Experiment 3\svrt_images\generated_images\results_problem_11\sample_1_0004.png,,,,,,,,,,,,,,,,,0,6,6,6,0,1,1,1,,,,,,,,,,,,,,f,11,A,A,6,1,Correct!,1.7316037999999025,508.1671735000002,None,508.1671735000002,None,509.9170073,None,,,,,22,001,2023-05-03_10h34.32.866,colored_sorted,2021.2.3,59.99055748623594,
C:\Users\subject\Desktop\SVRT Experiments\SVRT Experiment 3\svrt_images\generated_images\results_problem_11,,,,,C:\Users\subject\Desktop\SVRT Experiments\SVRT Experiment 3\svrt_images\generated_images\results_problem_2\sample_0_0005.png,C:\Users\subject\Desktop\SVRT Experiments\SVRT Experiment 3\svrt_images\generated_images\results_problem_1\sample_1_0004.png,C:\Users\subject\Desktop\SVRT Experiments\SVRT Experiment 3\svrt_images\generated_images\results_problem_11\sample_0_0012.png,,,,,,,,,,,,,,,,,0,6,6,6,0,2,2,2,,,,,,,,,,,,,,f,11,A,B,6,0,Incorrect!,0.6590838999998141,510.9836086,None,510.9836086,None,511.6669290000002,None,,,,,22,001,2023-05-03_10h34.32.866,colored_sorted,2021.2.3,59.99055748623594,
C:\Users\subject\Desktop\SVRT Experiments\SVRT Experiment 3\svrt_images\generated_images\results_problem_11,,,,,C:\Users\subject\Desktop\SVRT Experiments\SVRT Experiment 3\svrt_images\generated_images\results_problem_2\sample_0_0005.png,C:\Users\subject\Desktop\SVRT Experiments\SVRT Experiment 3\svrt_images\generated_images\results_problem_1\sample_1_0004.png,C:\Users\subject\Desktop\SVRT Experiments\SVRT Experiment 3\svrt_images\generated_images\results_problem_11\sample_1_0000.png,,,,,,,,,,,,,,,,,0,6,6,6,0,3,3,3,,,,,,,,,,,,,,f,11,A,A,6,1,Correct!,1.5827883999997994,512.6999936000002,None,512.6999936000002,None,514.3000727000001,None,,,,,22,001,2023-05-03_10h34.32.866,colored_sorted,2021.2.3,59.99055748623594,
C:\Users\subject\Desktop\SVRT Experiments\SVRT Experiment 3\svrt_images\generated_images\results_problem_11,,,,,C:\Users\subject\Desktop\SVRT Experiments\SVRT Experiment 3\svrt_images\generated_images\results_problem_2\sample_0_0005.png,C:\Users\subject\Desktop\SVRT Experiments\SVRT Experiment 3\svrt_images\generated_images\results_problem_1\sample_1_0004.png,C:\Users\subject\Desktop\SVRT Experiments\SVRT Experiment 3\svrt_images\generated_images\results_problem_11\sample_0_0006.png,,,,,,,,,,,,,,,,,0,6,6,6,0,4,4,4,,,,,,,,,,,,,,f,11,A,B,6,0,Incorrect!,2.117322300000069,515.3500092000002,None,515.3500092000002,None,517.4999144000001,None,,,,,22,001,2023-05-03_10h34.32.866,colored_sorted,2021.2.3,59.99055748623594,
C:\Users\subject\Desktop\SVRT Experiments\SVRT Experiment 3\svrt_images\generated_images\results_problem_11,,,,,C:\Users\subject\Desktop\SVRT Experiments\SVRT Experiment 3\svrt_images\generated_images\results_problem_2\sample_0_0005.png,C:\Users\subject\Desktop\SVRT Experiments\SVRT Experiment 3\svrt_images\generated_images\results_problem_1\sample_1_0004.png,C:\Users\subject\Desktop\SVRT Experiments\SVRT Experiment 3\svrt_images\generated_images\results_problem_11\sample_0_0011.png,,,,,,,,,,,,,,,,,0,6,6,6,0,5,5,5,,,,,,,,,,,,,,j,11,B,B,6,1,Correct!,0.8371827000000849,518.5496531000001,None,518.5496531000001,None,519.4164534000001,None,,,,,22,001,2023-05-03_10h34.32.866,colored_sorted,2021.2.3,59.99055748623594,
C:\Users\subject\Desktop\SVRT Experiments\SVRT Experiment 3\svrt_images\generated_images\results_problem_11,,,,,C:\Users\subject\Desktop\SVRT Experiments\SVRT Experiment 3\svrt_images\generated_images\results_problem_2\sample_0_0005.png,C:\Users\subject\Desktop\SVRT Experiments\SVRT Experiment 3\svrt_images\generated_images\results_problem_1\sample_1_0004.png,C:\Users\subject\Desktop\SVRT Experiments\SVRT Experiment 3\svrt_images\generated_images\results_problem_11\sample_1_0002.png,,,,,,,,,,,,,,,,,0,6,6,6,0,6,6,6,,,,,,,,,,,,,,f,11,A,A,6,1,Correct!,0.7597261999999319,520.4830414,None,520.4830414,None,521.2663246000002,None,,,,,22,001,2023-05-03_10h34.32.866,colored_sorted,2021.2.3,59.99055748623594,
C:\Users\subject\Desktop\SVRT Experiments\SVRT Experiment 3\svrt_images\generated_images\results_problem_11,,,,,C:\Users\subject\Desktop\SVRT Experiments\SVRT Experiment 3\svrt_images\generated_images\results_problem_2\sample_0_0005.png,C:\Users\subject\Desktop\SVRT Experiments\SVRT Experiment 3\svrt_images\generated_images\results_problem_1\sample_1_0004.png,C:\Users\subject\Desktop\SVRT Experiments\SVRT Experiment 3\svrt_images\generated_images\results_problem_11\sample_1_0007.png,,,,,,,,,,,,,,,,,0,6,6,6,0,7,7,7,,,,,,,,,,,,,,j,11,B,A,6,0,Incorrect!,0.5579854999998588,522.3327354,None,522.3327354,None,522.9162144000002,None,,,,,22,001,2023-05-03_10h34.32.866,colored_sorted,2021.2.3,59.99055748623594,
C:\Users\subject\Desktop\SVRT Experiments\SVRT Experiment 3\svrt_images\generated_images\results_problem_11,,,,,C:\Users\subject\Desktop\SVRT Experiments\SVRT Experiment 3\svrt_images\generated_images\results_problem_2\sample_0_0005.png,C:\Users\subject\Desktop\SVRT Experiments\SVRT Experiment 3\svrt_images\generated_images\results_problem_1\sample_1_0004.png,C:\Users\subject\Desktop\SVRT Experiments\SVRT Experiment 3\svrt_images\generated_images\results_problem_11\sample_0_0001.png,,,,,,,,,,,,,,,,,0,6,6,6,0,8,8,8,,,,,,,,,,,,,,j,11,B,B,6,1,Correct!,0.7152928000000429,523.9994904,None,523.9994904,None,524.7328347,None,,,,,22,001,2023-05-03_10h34.32.866,colored_sorted,2021.2.3,59.99055748623594,
C:\Users\subject\Desktop\SVRT Experiments\SVRT Experiment 3\svrt_images\generated_images\results_problem_11,,,,,C:\Users\subject\Desktop\SVRT Experiments\SVRT Experiment 3\svrt_images\generated_images\results_problem_2\sample_0_0005.png,C:\Users\subject\Desktop\SVRT Experiments\SVRT Experiment 3\svrt_images\generated_images\results_problem_1\sample_1_0004.png,C:\Users\subject\Desktop\SVRT Experiments\SVRT Experiment 3\svrt_images\generated_images\results_problem_11\sample_0_0003.png,,,,,,,,,,,,,,,,,0,6,6,6,0,9,9,9,,,,,,,,,,,,,,j,11,B,B,6,1,Correct!,0.9133042000000842,525.8493776,None,525.8493776,None,526.7826672000001,None,,,,,22,001,2023-05-03_10h34.32.866,colored_sorted,2021.2.3,59.99055748623594,
C:\Users\subject\Desktop\SVRT Experiments\SVRT Experiment 3\svrt_images\generated_images\results_problem_11,,,,,C:\Users\subject\Desktop\SVRT Experiments\SVRT Experiment 3\svrt_images\generated_images\results_problem_2\sample_0_0005.png,C:\Users\subject\Desktop\SVRT Experiments\SVRT Experiment 3\svrt_images\generated_images\results_problem_1\sample_1_0004.png,C:\Users\subject\Desktop\SVRT Experiments\SVRT Experiment 3\svrt_images\generated_images\results_problem_11\sample_0_0004.png,,,,,,,,,,,,,,,,,0,6,6,6,0,10,10,10,,,,,,,,,,,,,,j,11,B,B,6,1,Correct!,0.6404127000000699,527.8824133,None,527.8824133,None,528.5492510000001,None,,,,,22,001,2023-05-03_10h34.32.866,colored_sorted,2021.2.3,59.99055748623594,
C:\Users\subject\Desktop\SVRT Experiments\SVRT Experiment 3\svrt_images\generated_images\results_problem_11,,,,,C:\Users\subject\Desktop\SVRT Experiments\SVRT Experiment 3\svrt_images\generated_images\results_problem_2\sample_0_0005.png,C:\Users\subject\Desktop\SVRT Experiments\SVRT Experiment 3\svrt_images\generated_images\results_problem_1\sample_1_0004.png,C:\Users\subject\Desktop\SVRT Experiments\SVRT Experiment 3\svrt_images\generated_images\results_problem_11\sample_1_0003.png,,,,,,,,,,,,,,,,,0,6,6,6,0,11,11,11,,,,,,,,,,,,,,f,11,A,A,6,1,Correct!,0.5209692999999334,529.6658393,None,529.6658393,None,530.2157888000002,None,,,,,22,001,2023-05-03_10h34.32.866,colored_sorted,2021.2.3,59.99055748623594,
C:\Users\subject\Desktop\SVRT Experiments\SVRT Experiment 3\svrt_images\generated_images\results_problem_11,,,,,C:\Users\subject\Desktop\SVRT Experiments\SVRT Experiment 3\svrt_images\generated_images\results_problem_2\sample_0_0005.png,C:\Users\subject\Desktop\SVRT Experiments\SVRT Experiment 3\svrt_images\generated_images\results_problem_1\sample_1_0004.png,C:\Users\subject\Desktop\SVRT Experiments\SVRT Experiment 3\svrt_images\generated_images\results_problem_11\sample_0_0008.png,,,,,,,,,,,,,,,,,0,6,6,6,0,12,12,12,,,,,,,,,,,,,,j,11,B,B,6,1,Correct!,0.6443242999998802,531.3823900000002,None,531.3823900000002,None,532.049015,None,,,,,22,001,2023-05-03_10h34.32.866,colored_sorted,2021.2.3,59.99055748623594,
C:\Users\subject\Desktop\SVRT Experiments\SVRT Experiment 3\svrt_images\generated_images\results_problem_11,,,,,C:\Users\subject\Desktop\SVRT Experiments\SVRT Experiment 3\svrt_images\generated_images\results_problem_2\sample_0_0005.png,C:\Users\subject\Desktop\SVRT Experiments\SVRT Experiment 3\svrt_images\generated_images\results_problem_1\sample_1_0004.png,C:\Users\subject\Desktop\SVRT Experiments\SVRT Experiment 3\svrt_images\generated_images\results_problem_11\sample_0_0013.png,,,,,,,,,,,,,,,,,0,6,6,6,0,13,13,13,,,,,,,,,,,,,,j,11,B,B,6,1,Correct!,0.6365472999998474,533.1822898,None,533.1822898,None,533.8489339,None,,,,,22,001,2023-05-03_10h34.32.866,colored_sorted,2021.2.3,59.99055748623594,
C:\Users\subject\Desktop\SVRT Experiments\SVRT Experiment 3\svrt_images\generated_images\results_problem_11,,,,,C:\Users\subject\Desktop\SVRT Experiments\SVRT Experiment 3\svrt_images\generated_images\results_problem_2\sample_0_0005.png,C:\Users\subject\Desktop\SVRT Experiments\SVRT Experiment 3\svrt_images\generated_images\results_problem_1\sample_1_0004.png,C:\Users\subject\Desktop\SVRT Experiments\SVRT Experiment 3\svrt_images\generated_images\results_problem_11\sample_1_0016.png,,,,,,,,,,,,,,,,,0,6,6,6,0,14,14,14,,,,,,,,,,,,,,f,11,A,A,6,1,Correct!,0.48449330000016744,534.9821679000001,None,534.9821679000001,None,535.4988039000002,None,,,,,22,001,2023-05-03_10h34.32.866,colored_sorted,2021.2.3,59.99055748623594,
C:\Users\subject\Desktop\SVRT Experiments\SVRT Experiment 3\svrt_images\generated_images\results_problem_11,,,,,C:\Users\subject\Desktop\SVRT Experiments\SVRT Experiment 3\svrt_images\generated_images\results_problem_2\sample_0_0005.png,C:\Users\subject\Desktop\SVRT Experiments\SVRT Experiment 3\svrt_images\generated_images\results_problem_1\sample_1_0004.png,C:\Users\subject\Desktop\SVRT Experiments\SVRT Experiment 3\svrt_images\generated_images\results_problem_11\sample_0_0014.png,,,,,,,,,,,,,,,,,0,6,6,6,0,15,15,15,,,,,,,,,,,,,,,,,,,,,,,,,,,,536.4987374000002,536.4987374000002,space,1.1919527000000016,22,001,2023-05-03_10h34.32.866,colored_sorted,2021.2.3,59.99055748623594,
C:\Users\subject\Desktop\SVRT Experiments\SVRT Experiment 3\svrt_images\generated_images\results_problem_20,,,,,C:\Users\subject\Desktop\SVRT Experiments\SVRT Experiment 3\svrt_images\generated_images\results_problem_2\sample_0_0005.png,C:\Users\subject\Desktop\SVRT Experiments\SVRT Experiment 3\svrt_images\generated_images\results_problem_1\sample_1_0004.png,C:\Users\subject\Desktop\SVRT Experiments\SVRT Experiment 3\svrt_images\generated_images\results_problem_11\sample_0_0014.png,C:\Users\subject\Desktop\SVRT Experiments\SVRT Experiment 3\svrt_images\generated_images\results_problem_20\sample_1_0010.png,,,,,,,,,,,,,,,,0,7,7,7,0,0,0,0,,,,,,,,,,,,,,f,20,A,A,6,1,Correct!,0.8389575999999579,537.731802,None,537.731802,None,538.5986066,None,,,,,22,001,2023-05-03_10h34.32.866,colored_sorted,2021.2.3,59.99055748623594,
C:\Users\subject\Desktop\SVRT Experiments\SVRT Experiment 3\svrt_images\generated_images\results_problem_20,,,,,C:\Users\subject\Desktop\SVRT Experiments\SVRT Experiment 3\svrt_images\generated_images\results_problem_2\sample_0_0005.png,C:\Users\subject\Desktop\SVRT Experiments\SVRT Experiment 3\svrt_images\generated_images\results_problem_1\sample_1_0004.png,C:\Users\subject\Desktop\SVRT Experiments\SVRT Experiment 3\svrt_images\generated_images\results_problem_11\sample_0_0014.png,C:\Users\subject\Desktop\SVRT Experiments\SVRT Experiment 3\svrt_images\generated_images\results_problem_20\sample_0_0004.png,,,,,,,,,,,,,,,,0,7,7,7,0,1,1,1,,,,,,,,,,,,,,j,20,B,B,6,1,Correct!,1.4347780000000512,539.6318796,None,539.6318796,None,541.0984614000001,None,,,,,22,001,2023-05-03_10h34.32.866,colored_sorted,2021.2.3,59.99055748623594,
C:\Users\subject\Desktop\SVRT Experiments\SVRT Experiment 3\svrt_images\generated_images\results_problem_20,,,,,C:\Users\subject\Desktop\SVRT Experiments\SVRT Experiment 3\svrt_images\generated_images\results_problem_2\sample_0_0005.png,C:\Users\subject\Desktop\SVRT Experiments\SVRT Experiment 3\svrt_images\generated_images\results_problem_1\sample_1_0004.png,C:\Users\subject\Desktop\SVRT Experiments\SVRT Experiment 3\svrt_images\generated_images\results_problem_11\sample_0_0014.png,C:\Users\subject\Desktop\SVRT Experiments\SVRT Experiment 3\svrt_images\generated_images\results_problem_20\sample_1_0002.png,,,,,,,,,,,,,,,,0,7,7,7,0,2,2,2,,,,,,,,,,,,,,f,20,A,A,6,1,Correct!,0.7589112000000569,542.1317393000002,None,542.1317393000002,None,542.9150145000001,None,,,,,22,001,2023-05-03_10h34.32.866,colored_sorted,2021.2.3,59.99055748623594,
C:\Users\subject\Desktop\SVRT Experiments\SVRT Experiment 3\svrt_images\generated_images\results_problem_20,,,,,C:\Users\subject\Desktop\SVRT Experiments\SVRT Experiment 3\svrt_images\generated_images\results_problem_2\sample_0_0005.png,C:\Users\subject\Desktop\SVRT Experiments\SVRT Experiment 3\svrt_images\generated_images\results_problem_1\sample_1_0004.png,C:\Users\subject\Desktop\SVRT Experiments\SVRT Experiment 3\svrt_images\generated_images\results_problem_11\sample_0_0014.png,C:\Users\subject\Desktop\SVRT Experiments\SVRT Experiment 3\svrt_images\generated_images\results_problem_20\sample_1_0000.png,,,,,,,,,,,,,,,,0,7,7,7,0,3,3,3,,,,,,,,,,,,,,f,20,A,A,6,1,Correct!,0.7018001999999797,543.9649607000001,None,543.9649607000001,None,544.6982652000002,None,,,,,22,001,2023-05-03_10h34.32.866,colored_sorted,2021.2.3,59.99055748623594,
C:\Users\subject\Desktop\SVRT Experiments\SVRT Experiment 3\svrt_images\generated_images\results_problem_20,,,,,C:\Users\subject\Desktop\SVRT Experiments\SVRT Experiment 3\svrt_images\generated_images\results_problem_2\sample_0_0005.png,C:\Users\subject\Desktop\SVRT Experiments\SVRT Experiment 3\svrt_images\generated_images\results_problem_1\sample_1_0004.png,C:\Users\subject\Desktop\SVRT Experiments\SVRT Experiment 3\svrt_images\generated_images\results_problem_11\sample_0_0014.png,C:\Users\subject\Desktop\SVRT Experiments\SVRT Experiment 3\svrt_images\generated_images\results_problem_20\sample_0_0008.png,,,,,,,,,,,,,,,,0,7,7,7,0,4,4,4,,,,,,,,,,,,,,j,20,B,B,6,1,Correct!,0.5974839999998949,545.7491666000001,None,545.7491666000001,None,546.3648136000002,None,,,,,22,001,2023-05-03_10h34.32.866,colored_sorted,2021.2.3,59.99055748623594,
C:\Users\subject\Desktop\SVRT Experiments\SVRT Experiment 3\svrt_images\generated_images\results_problem_20,,,,,C:\Users\subject\Desktop\SVRT Experiments\SVRT Experiment 3\svrt_images\generated_images\results_problem_2\sample_0_0005.png,C:\Users\subject\Desktop\SVRT Experiments\SVRT Experiment 3\svrt_images\generated_images\results_problem_1\sample_1_0004.png,C:\Users\subject\Desktop\SVRT Experiments\SVRT Experiment 3\svrt_images\generated_images\results_problem_11\sample_0_0014.png,C:\Users\subject\Desktop\SVRT Experiments\SVRT Experiment 3\svrt_images\generated_images\results_problem_20\sample_1_0001.png,,,,,,,,,,,,,,,,0,7,7,7,0,5,5,5,,,,,,,,,,,,,,j,20,B,A,6,0,Incorrect!,0.8513077000000067,547.4314335000001,None,547.4314335000001,None,548.314705,None,,,,,22,001,2023-05-03_10h34.32.866,colored_sorted,2021.2.3,59.99055748623594,
C:\Users\subject\Desktop\SVRT Experiments\SVRT Experiment 3\svrt_images\generated_images\results_problem_20,,,,,C:\Users\subject\Desktop\SVRT Experiments\SVRT Experiment 3\svrt_images\generated_images\results_problem_2\sample_0_0005.png,C:\Users\subject\Desktop\SVRT Experiments\SVRT Experiment 3\svrt_images\generated_images\results_problem_1\sample_1_0004.png,C:\Users\subject\Desktop\SVRT Experiments\SVRT Experiment 3\svrt_images\generated_images\results_problem_11\sample_0_0014.png,C:\Users\subject\Desktop\SVRT Experiments\SVRT Experiment 3\svrt_images\generated_images\results_problem_20\sample_1_0004.png,,,,,,,,,,,,,,,,0,7,7,7,0,6,6,6,,,,,,,,,,,,,,j,20,B,A,6,0,Incorrect!,0.5015081000001373,549.3812913000002,None,549.3812913000002,None,549.9146336000001,None,,,,,22,001,2023-05-03_10h34.32.866,colored_sorted,2021.2.3,59.99055748623594,
C:\Users\subject\Desktop\SVRT Experiments\SVRT Experiment 3\svrt_images\generated_images\results_problem_20,,,,,C:\Users\subject\Desktop\SVRT Experiments\SVRT Experiment 3\svrt_images\generated_images\results_problem_2\sample_0_0005.png,C:\Users\subject\Desktop\SVRT Experiments\SVRT Experiment 3\svrt_images\generated_images\results_problem_1\sample_1_0004.png,C:\Users\subject\Desktop\SVRT Experiments\SVRT Experiment 3\svrt_images\generated_images\results_problem_11\sample_0_0014.png,C:\Users\subject\Desktop\SVRT Experiments\SVRT Experiment 3\svrt_images\generated_images\results_problem_20\sample_0_0003.png,,,,,,,,,,,,,,,,0,7,7,7,0,7,7,7,,,,,,,,,,,,,,f,20,A,B,6,0,Incorrect!,0.7096126999999797,550.9812009000002,None,550.9812009000002,None,551.7144935000001,None,,,,,22,001,2023-05-03_10h34.32.866,colored_sorted,2021.2.3,59.99055748623594,
