folder,results_problem_16,results_problem_3,results_problem_19,results_problem_21,results_problem_2,results_problem_1,results_problem_11,results_problem_20,results_problem_7,results_problem_15,results_problem_23,results_problem_22,results_problem_9,results_problem_5,results_problem_4,results_problem_17,results_problem_8,results_problem_6,results_problem_13,results_problem_12,results_problem_14,results_problem_18,results_problem_10,categories.thisRepN,categories.thisTrialN,categories.thisN,categories.thisIndex,trials.thisRepN,trials.thisTrialN,trials.thisN,trials.thisIndex,consent_text.started,consent_kb.started,consent_kb.keys,consent_kb.rt,Gender.keys,Gender.rt,Age,instructions_text.started,instructions_text.stopped,instructions_kb.keys,instructions_kb.rt,instructions_kb.started,instructions_kb.stopped,trial_kb.keys,current_problem_num,category_resp,answer,seed,accuracy,feedback,trial_kb.rt,trial_kb.started,trial_kb.stopped,trial_image.started,trial_image.stopped,feedback_text.started,feedback_text.stopped,new_problem_kb.started,new_problem_text.started,new_problem_kb.keys,new_problem_kb.rt,Participant #,session,date,expName,psychopyVersion,frameRate,
,,,,,,,,,,,,,,,,,,,,,,,,,,,,,,,,26.0867252999451,26.0867252999451,y,17.097160100005567,,,,,,,,,,,,,,,,,,,,,,,,,,,,24,001,2023-05-03_10h33.02.690,uncolored_sorted,2021.2.3,59.99210500680098,
,,,,,,,,,,,,,,,,,,,,,,,,,,,,,,,,,,,,w,2.6098628998734057,,,,,,,,,,,,,,,,,,,,,,,,,,24,001,2023-05-03_10h33.02.690,uncolored_sorted,2021.2.3,59.99210500680098,
,,,,,,,,,,,,,,,,,,,,,,,,,,,,,,,,,,,,,,20,51.54717979999259,None,space,25.86867820005864,51.54717979999259,None,,,,,,,,,,,,,,,,,,,24,001,2023-05-03_10h33.02.690,uncolored_sorted,2021.2.3,59.99210500680098,
C:\Users\subject\Desktop\SVRT Experiments\SVRT Experiment 3\svrt_images\generated_images\results_problem_16,C:\Users\subject\Desktop\SVRT Experiments\SVRT Experiment 3\svrt_images\generated_images\results_problem_16\sample_0_0013.png,,,,,,,,,,,,,,,,,,,,,,,0,0,0,0,0,0,0,0,,,,,,,,,,,,,,f,16,A,B,6,0,Incorrect!,8.157880600076169,77.5299621000886,None,77.5299621000886,None,85.72973310016096,None,,,,,24,001,2023-05-03_10h33.02.690,uncolored_sorted,2021.2.3,59.99210500680098,
C:\Users\subject\Desktop\SVRT Experiments\SVRT Experiment 3\svrt_images\generated_images\results_problem_16,C:\Users\subject\Desktop\SVRT Experiments\SVRT Experiment 3\svrt_images\generated_images\results_problem_16\sample_0_0008.png,,,,,,,,,,,,,,,,,,,,,,,0,0,0,0,0,1,1,1,,,,,,,,,,,,,,f,16,A,B,6,0,Incorrect!,5.061447799904272,86.74639980006032,None,86.74639980006032,None,91.82961770007387,None,,,,,24,001,2023-05-03_10h33.02.690,uncolored_sorted,2021.2.3,59.99210500680098,
C:\Users\subject\Desktop\SVRT Experiments\SVRT Experiment 3\svrt_images\generated_images\results_problem_16,C:\Users\subject\Desktop\SVRT Experiments\SVRT Experiment 3\svrt_images\generated_images\results_problem_16\sample_0_0010.png,,,,,,,,,,,,,,,,,,,,,,,0,0,0,0,0,2,2,2,,,,,,,,,,,,,,j,16,B,B,6,1,Correct!,1.537589999847114,92.84633200010285,None,92.84633200010285,None,94.41289500007406,None,,,,,24,001,2023-05-03_10h33.02.690,uncolored_sorted,2021.2.3,59.99210500680098,
C:\Users\subject\Desktop\SVRT Experiments\SVRT Experiment 3\svrt_images\generated_images\results_problem_16,C:\Users\subject\Desktop\SVRT Experiments\SVRT Experiment 3\svrt_images\generated_images\results_problem_16\sample_0_0014.png,,,,,,,,,,,,,,,,,,,,,,,0,0,0,0,0,3,3,3,,,,,,,,,,,,,,j,16,B,B,6,1,Correct!,1.681709900032729,95.44623130001128,None,95.44623130001128,None,97.14618419995531,None,,,,,24,001,2023-05-03_10h33.02.690,uncolored_sorted,2021.2.3,59.99210500680098,
C:\Users\subject\Desktop\SVRT Experiments\SVRT Experiment 3\svrt_images\generated_images\results_problem_16,C:\Users\subject\Desktop\SVRT Experiments\SVRT Experiment 3\svrt_images\generated_images\results_problem_16\sample_0_0011.png,,,,,,,,,,,,,,,,,,,,,,,0,0,0,0,0,4,4,4,,,,,,,,,,,,,,f,16,A,B,6,0,Incorrect!,2.1876828998792917,98.19615319999866,None,98.19615319999866,None,100.41272450005636,None,,,,,24,001,2023-05-03_10h33.02.690,uncolored_sorted,2021.2.3,59.99210500680098,
C:\Users\subject\Desktop\SVRT Experiments\SVRT Experiment 3\svrt_images\generated_images\results_problem_16,C:\Users\subject\Desktop\SVRT Experiments\SVRT Experiment 3\svrt_images\generated_images\results_problem_16\sample_0_0001.png,,,,,,,,,,,,,,,,,,,,,,,0,0,0,0,0,5,5,5,,,,,,,,,,,,,,j,16,B,B,6,1,Correct!,2.233243100112304,101.46275059995241,None,101.46275059995241,None,103.72933860006742,None,,,,,24,001,2023-05-03_10h33.02.690,uncolored_sorted,2021.2.3,59.99210500680098,
C:\Users\subject\Desktop\SVRT Experiments\SVRT Experiment 3\svrt_images\generated_images\results_problem_16,C:\Users\subject\Desktop\SVRT Experiments\SVRT Experiment 3\svrt_images\generated_images\results_problem_16\sample_0_0006.png,,,,,,,,,,,,,,,,,,,,,,,0,0,0,0,0,6,6,6,,,,,,,,,,,,,,j,16,B,B,6,1,Correct!,1.1638491000048816,104.79599940008484,None,104.79599940008484,None,105.97929950011894,None,,,,,24,001,2023-05-03_10h33.02.690,uncolored_sorted,2021.2.3,59.99210500680098,
C:\Users\subject\Desktop\SVRT Experiments\SVRT Experiment 3\svrt_images\generated_images\results_problem_16,C:\Users\subject\Desktop\SVRT Experiments\SVRT Experiment 3\svrt_images\generated_images\results_problem_16\sample_1_0002.png,,,,,,,,,,,,,,,,,,,,,,,0,0,0,0,0,7,7,7,,,,,,,,,,,,,,j,16,B,A,6,0,Incorrect!,0.8419619000051171,107.04593900009058,None,107.04593900009058,None,107.91257950011641,None,,,,,24,001,2023-05-03_10h33.02.690,uncolored_sorted,2021.2.3,59.99210500680098,
C:\Users\subject\Desktop\SVRT Experiments\SVRT Experiment 3\svrt_images\generated_images\results_problem_16,C:\Users\subject\Desktop\SVRT Experiments\SVRT Experiment 3\svrt_images\generated_images\results_problem_16\sample_1_0016.png,,,,,,,,,,,,,,,,,,,,,,,0,0,0,0,0,8,8,8,,,,,,,,,,,,,,f,16,A,A,6,1,Correct!,3.4280397000256926,108.99593039997853,None,108.99593039997853,None,112.44582150015049,None,,,,,24,001,2023-05-03_10h33.02.690,uncolored_sorted,2021.2.3,59.99210500680098,
C:\Users\subject\Desktop\SVRT Experiments\SVRT Experiment 3\svrt_images\generated_images\results_problem_16,C:\Users\subject\Desktop\SVRT Experiments\SVRT Experiment 3\svrt_images\generated_images\results_problem_16\sample_1_0015.png,,,,,,,,,,,,,,,,,,,,,,,0,0,0,0,0,9,9,9,,,,,,,,,,,,,,f,16,A,A,6,1,Correct!,1.9027626998722553,113.52913120016456,None,113.52913120016456,None,115.46244430006482,None,,,,,24,001,2023-05-03_10h33.02.690,uncolored_sorted,2021.2.3,59.99210500680098,
C:\Users\subject\Desktop\SVRT Experiments\SVRT Experiment 3\svrt_images\generated_images\results_problem_16,C:\Users\subject\Desktop\SVRT Experiments\SVRT Experiment 3\svrt_images\generated_images\results_problem_16\sample_1_0004.png,,,,,,,,,,,,,,,,,,,,,,,0,0,0,0,0,10,10,10,,,,,,,,,,,,,,j,16,B,A,6,0,Incorrect!,3.0934903000015765,116.562430200167,None,116.562430200167,None,119.67901660013013,None,,,,,24,001,2023-05-03_10h33.02.690,uncolored_sorted,2021.2.3,59.99210500680098,
C:\Users\subject\Desktop\SVRT Experiments\SVRT Experiment 3\svrt_images\generated_images\results_problem_16,C:\Users\subject\Desktop\SVRT Experiments\SVRT Experiment 3\svrt_images\generated_images\results_problem_16\sample_1_0001.png,,,,,,,,,,,,,,,,,,,,,,,0,0,0,0,0,11,11,11,,,,,,,,,,,,,,f,16,A,A,6,1,Correct!,1.1642696000635624,120.79571700002998,None,120.79571700002998,None,121.97894920012914,None,,,,,24,001,2023-05-03_10h33.02.690,uncolored_sorted,2021.2.3,59.99210500680098,
C:\Users\subject\Desktop\SVRT Experiments\SVRT Experiment 3\svrt_images\generated_images\results_problem_16,C:\Users\subject\Desktop\SVRT Experiments\SVRT Experiment 3\svrt_images\generated_images\results_problem_16\sample_1_0014.png,,,,,,,,,,,,,,,,,,,,,,,0,0,0,0,0,12,12,12,,,,,,,,,,,,,,f,16,A,A,6,1,Correct!,2.751624299911782,123.11228340002708,None,123.11228340002708,None,125.89551810012199,None,,,,,24,001,2023-05-03_10h33.02.690,uncolored_sorted,2021.2.3,59.99210500680098,
C:\Users\subject\Desktop\SVRT Experiments\SVRT Experiment 3\svrt_images\generated_images\results_problem_16,C:\Users\subject\Desktop\SVRT Experiments\SVRT Experiment 3\svrt_images\generated_images\results_problem_16\sample_0_0003.png,,,,,,,,,,,,,,,,,,,,,,,0,0,0,0,0,13,13,13,,,,,,,,,,,,,,f,16,A,B,6,0,Incorrect!,0.8110831000376493,127.02883270010352,None,127.02883270010352,None,127.87880109995604,None,,,,,24,001,2023-05-03_10h33.02.690,uncolored_sorted,2021.2.3,59.99210500680098,
C:\Users\subject\Desktop\SVRT Experiments\SVRT Experiment 3\svrt_images\generated_images\results_problem_16,C:\Users\subject\Desktop\SVRT Experiments\SVRT Experiment 3\svrt_images\generated_images\results_problem_16\sample_1_0007.png,,,,,,,,,,,,,,,,,,,,,,,0,0,0,0,0,14,14,14,,,,,,,,,,,,,,f,16,A,A,6,1,Correct!,0.6272563999518752,129.02878240006976,None,129.02878240006976,None,129.6787414001301,None,,,,,24,001,2023-05-03_10h33.02.690,uncolored_sorted,2021.2.3,59.99210500680098,
C:\Users\subject\Desktop\SVRT Experiments\SVRT Experiment 3\svrt_images\generated_images\results_problem_16,C:\Users\subject\Desktop\SVRT Experiments\SVRT Experiment 3\svrt_images\generated_images\results_problem_16\sample_0_0012.png,,,,,,,,,,,,,,,,,,,,,,,0,0,0,0,0,15,15,15,,,,,,,,,,,,,,f,16,A,B,6,0,Incorrect!,0.6744762999005616,130.84544870001264,None,130.84544870001264,None,131.56207430013455,None,,,,,24,001,2023-05-03_10h33.02.690,uncolored_sorted,2021.2.3,59.99210500680098,
C:\Users\subject\Desktop\SVRT Experiments\SVRT Experiment 3\svrt_images\generated_images\results_problem_16,C:\Users\subject\Desktop\SVRT Experiments\SVRT Experiment 3\svrt_images\generated_images\results_problem_16\sample_1_0008.png,,,,,,,,,,,,,,,,,,,,,,,0,0,0,0,0,16,16,16,,,,,,,,,,,,,,j,16,B,A,6,0,Incorrect!,2.0311595001257956,132.72875470016152,None,132.72875470016152,None,134.77871050010435,None,,,,,24,001,2023-05-03_10h33.02.690,uncolored_sorted,2021.2.3,59.99210500680098,
C:\Users\subject\Desktop\SVRT Experiments\SVRT Experiment 3\svrt_images\generated_images\results_problem_16,C:\Users\subject\Desktop\SVRT Experiments\SVRT Experiment 3\svrt_images\generated_images\results_problem_16\sample_0_0002.png,,,,,,,,,,,,,,,,,,,,,,,0,0,0,0,0,17,17,17,,,,,,,,,,,,,,j,16,B,B,6,1,Correct!,0.7259225000161678,135.96197520010173,None,135.96197520010173,None,136.7286229999736,None,,,,,24,001,2023-05-03_10h33.02.690,uncolored_sorted,2021.2.3,59.99210500680098,
C:\Users\subject\Desktop\SVRT Experiments\SVRT Experiment 3\svrt_images\generated_images\results_problem_16,C:\Users\subject\Desktop\SVRT Experiments\SVRT Experiment 3\svrt_images\generated_images\results_problem_16\sample_0_0005.png,,,,,,,,,,,,,,,,,,,,,,,0,0,0,0,0,18,18,18,,,,,,,,,,,,,,j,16,B,B,6,1,Correct!,1.3672325001098216,137.92862000013702,None,137.92862000013702,None,139.3452427999582,None,,,,,24,001,2023-05-03_10h33.02.690,uncolored_sorted,2021.2.3,59.99210500680098,
C:\Users\subject\Desktop\SVRT Experiments\SVRT Experiment 3\svrt_images\generated_images\results_problem_16,C:\Users\subject\Desktop\SVRT Experiments\SVRT Experiment 3\svrt_images\generated_images\results_problem_16\sample_1_0012.png,,,,,,,,,,,,,,,,,,,,,,,0,0,0,0,0,19,19,19,,,,,,,,,,,,,,j,16,B,A,6,0,Incorrect!,0.9258807001169771,140.56190020008944,None,140.56190020008944,None,141.52852099994197,None,,,,,24,001,2023-05-03_10h33.02.690,uncolored_sorted,2021.2.3,59.99210500680098,
C:\Users\subject\Desktop\SVRT Experiments\SVRT Experiment 3\svrt_images\generated_images\results_problem_16,C:\Users\subject\Desktop\SVRT Experiments\SVRT Experiment 3\svrt_images\generated_images\results_problem_16\sample_0_0007.png,,,,,,,,,,,,,,,,,,,,,,,0,0,0,0,0,20,20,20,,,,,,,,,,,,,,f,16,A,B,6,0,Incorrect!,0.7421126998960972,142.76179710007273,None,142.76179710007273,None,143.5284818999935,None,,,,,24,001,2023-05-03_10h33.02.690,uncolored_sorted,2021.2.3,59.99210500680098,
C:\Users\subject\Desktop\SVRT Experiments\SVRT Experiment 3\svrt_images\generated_images\results_problem_16,C:\Users\subject\Desktop\SVRT Experiments\SVRT Experiment 3\svrt_images\generated_images\results_problem_16\sample_0_0009.png,,,,,,,,,,,,,,,,,,,,,,,0,0,0,0,0,21,21,21,,,,,,,,,,,,,,f,16,A,B,6,0,Incorrect!,0.5094474998768419,144.77847450016998,None,144.77847450016998,None,145.34512299997732,None,,,,,24,001,2023-05-03_10h33.02.690,uncolored_sorted,2021.2.3,59.99210500680098,
C:\Users\subject\Desktop\SVRT Experiments\SVRT Experiment 3\svrt_images\generated_images\results_problem_16,C:\Users\subject\Desktop\SVRT Experiments\SVRT Experiment 3\svrt_images\generated_images\results_problem_16\sample_1_0009.png,,,,,,,,,,,,,,,,,,,,,,,0,0,0,0,0,22,22,22,,,,,,,,,,,,,,f,16,A,A,6,1,Correct!,0.9727264000102878,146.59509299998172,None,146.59509299998172,None,147.59504709998146,None,,,,,24,001,2023-05-03_10h33.02.690,uncolored_sorted,2021.2.3,59.99210500680098,
C:\Users\subject\Desktop\SVRT Experiments\SVRT Experiment 3\svrt_images\generated_images\results_problem_16,C:\Users\subject\Desktop\SVRT Experiments\SVRT Experiment 3\svrt_images\generated_images\results_problem_16\sample_1_0003.png,,,,,,,,,,,,,,,,,,,,,,,0,0,0,0,0,23,23,23,,,,,,,,,,,,,,f,16,A,A,6,1,Correct!,2.1061418999452144,148.86173240002245,None,148.86173240002245,None,151.01166770001873,None,,,,,24,001,2023-05-03_10h33.02.690,uncolored_sorted,2021.2.3,59.99210500680098,
C:\Users\subject\Desktop\SVRT Experiments\SVRT Experiment 3\svrt_images\generated_images\results_problem_16,C:\Users\subject\Desktop\SVRT Experiments\SVRT Experiment 3\svrt_images\generated_images\results_problem_16\sample_1_0005.png,,,,,,,,,,,,,,,,,,,,,,,0,0,0,0,0,24,24,24,,,,,,,,,,,,,,j,16,B,A,6,0,Incorrect!,4.160928400000557,152.29498869995587,None,152.29498869995587,None,156.51153689995408,None,,,,,24,001,2023-05-03_10h33.02.690,uncolored_sorted,2021.2.3,59.99210500680098,
C:\Users\subject\Desktop\SVRT Experiments\SVRT Experiment 3\svrt_images\generated_images\results_problem_16,C:\Users\subject\Desktop\SVRT Experiments\SVRT Experiment 3\svrt_images\generated_images\results_problem_16\sample_1_0011.png,,,,,,,,,,,,,,,,,,,,,,,0,0,0,0,0,25,25,25,,,,,,,,,,,,,,f,16,A,A,6,1,Correct!,1.8044293001294136,157.81151979998685,None,157.81151979998685,None,159.6947524000425,None,,,,,24,001,2023-05-03_10h33.02.690,uncolored_sorted,2021.2.3,59.99210500680098,
C:\Users\subject\Desktop\SVRT Experiments\SVRT Experiment 3\svrt_images\generated_images\results_problem_16,C:\Users\subject\Desktop\SVRT Experiments\SVRT Experiment 3\svrt_images\generated_images\results_problem_16\sample_0_0004.png,,,,,,,,,,,,,,,,,,,,,,,0,0,0,0,0,26,26,26,,,,,,,,,,,,,,f,16,A,B,6,0,Incorrect!,0.5883780000731349,161.01146350009367,None,161.01146350009367,None,161.69474880001508,None,,,,,24,001,2023-05-03_10h33.02.690,uncolored_sorted,2021.2.3,59.99210500680098,
C:\Users\subject\Desktop\SVRT Experiments\SVRT Experiment 3\svrt_images\generated_images\results_problem_16,C:\Users\subject\Desktop\SVRT Experiments\SVRT Experiment 3\svrt_images\generated_images\results_problem_16\sample_1_0006.png,,,,,,,,,,,,,,,,,,,,,,,0,0,0,0,0,27,27,27,,,,,,,,,,,,,,f,16,A,A,6,1,Correct!,0.7798652998171747,163.02809210005216,None,163.02809210005216,None,163.87803560006432,None,,,,,24,001,2023-05-03_10h33.02.690,uncolored_sorted,2021.2.3,59.99210500680098,
C:\Users\subject\Desktop\SVRT Experiments\SVRT Experiment 3\svrt_images\generated_images\results_problem_16,C:\Users\subject\Desktop\SVRT Experiments\SVRT Experiment 3\svrt_images\generated_images\results_problem_16\sample_0_0000.png,,,,,,,,,,,,,,,,,,,,,,,0,0,0,0,0,28,28,28,,,,,,,,,,,,,,j,16,B,B,6,1,Correct!,1.1637464999221265,165.2280067000538,None,165.2280067000538,None,166.47805589996278,None,,,,,24,001,2023-05-03_10h33.02.690,uncolored_sorted,2021.2.3,59.99210500680098,
C:\Users\subject\Desktop\SVRT Experiments\SVRT Experiment 3\svrt_images\generated_images\results_problem_16,C:\Users\subject\Desktop\SVRT Experiments\SVRT Experiment 3\svrt_images\generated_images\results_problem_16\sample_0_0015.png,,,,,,,,,,,,,,,,,,,,,,,0,0,0,0,0,29,29,29,,,,,,,,,,,,,,j,16,B,B,6,1,Correct!,1.1240054999943823,167.82796140015125,None,167.82796140015125,None,169.0445942999795,None,,,,,24,001,2023-05-03_10h33.02.690,uncolored_sorted,2021.2.3,59.99210500680098,
C:\Users\subject\Desktop\SVRT Experiments\SVRT Experiment 3\svrt_images\generated_images\results_problem_16,C:\Users\subject\Desktop\SVRT Experiments\SVRT Experiment 3\svrt_images\generated_images\results_problem_16\sample_0_0016.png,,,,,,,,,,,,,,,,,,,,,,,0,0,0,0,0,30,30,30,,,,,,,,,,,,,,f,16,A,B,6,0,Incorrect!,3.8918641000054777,170.42793640005402,None,170.42793640005402,None,174.34445460001007,None,,,,,24,001,2023-05-03_10h33.02.690,uncolored_sorted,2021.2.3,59.99210500680098,
C:\Users\subject\Desktop\SVRT Experiments\SVRT Experiment 3\svrt_images\generated_images\results_problem_16,C:\Users\subject\Desktop\SVRT Experiments\SVRT Experiment 3\svrt_images\generated_images\results_problem_16\sample_1_0010.png,,,,,,,,,,,,,,,,,,,,,,,0,0,0,0,0,31,31,31,,,,,,,,,,,,,,f,16,A,A,6,1,Correct!,2.3360154000110924,175.72787870001048,None,175.72787870001048,None,178.14442649995908,None,,,,,24,001,2023-05-03_10h33.02.690,uncolored_sorted,2021.2.3,59.99210500680098,
C:\Users\subject\Desktop\SVRT Experiments\SVRT Experiment 3\svrt_images\generated_images\results_problem_16,C:\Users\subject\Desktop\SVRT Experiments\SVRT Experiment 3\svrt_images\generated_images\results_problem_16\sample_1_0000.png,,,,,,,,,,,,,,,,,,,,,,,0,0,0,0,0,32,32,32,,,,,,,,,,,,,,f,16,A,A,6,1,Correct!,0.8067487999796867,179.56107970001176,None,179.56107970001176,None,180.3943711000029,None,,,,,24,001,2023-05-03_10h33.02.690,uncolored_sorted,2021.2.3,59.99210500680098,
C:\Users\subject\Desktop\SVRT Experiments\SVRT Experiment 3\svrt_images\generated_images\results_problem_16,C:\Users\subject\Desktop\SVRT Experiments\SVRT Experiment 3\svrt_images\generated_images\results_problem_16\sample_1_0013.png,,,,,,,,,,,,,,,,,,,,,,,0,0,0,0,0,33,33,33,,,,,,,,,,,,,,f,16,A,A,6,1,Correct!,2.2521666998509318,181.82767409994267,None,181.82767409994267,None,184.17760900012217,None,,,,,24,001,2023-05-03_10h33.02.690,uncolored_sorted,2021.2.3,59.99210500680098,
C:\Users\subject\Desktop\SVRT Experiments\SVRT Experiment 3\svrt_images\generated_images\results_problem_16,,,,,,,,,,,,,,,,,,,,,,,,0,0,0,0,,,,,,,,,,,,,,,,,,,,,,,,,,,,,,,,185.1775863999501,185.1775863999501,space,3.5822813000995666,24,001,2023-05-03_10h33.02.690,uncolored_sorted,2021.2.3,59.99210500680098,
C:\Users\subject\Desktop\SVRT Experiments\SVRT Experiment 3\svrt_images\generated_images\results_problem_3,,C:\Users\subject\Desktop\SVRT Experiments\SVRT Experiment 3\svrt_images\generated_images\results_problem_3\sample_0_0014.png,,,,,,,,,,,,,,,,,,,,,,0,1,1,1,0,0,0,0,,,,,,,,,,,,,,f,3,A,B,6,0,Incorrect!,4.989679099991918,188.79419150017202,None,188.79419150017202,None,193.8118889001198,None,,,,,24,001,2023-05-03_10h33.02.690,uncolored_sorted,2021.2.3,59.99210500680098,
C:\Users\subject\Desktop\SVRT Experiments\SVRT Experiment 3\svrt_images\generated_images\results_problem_3,,C:\Users\subject\Desktop\SVRT Experiments\SVRT Experiment 3\svrt_images\generated_images\results_problem_3\sample_0_0009.png,,,,,,,,,,,,,,,,,,,,,,0,1,1,1,0,1,1,1,,,,,,,,,,,,,,f,3,A,B,6,0,Incorrect!,0.7077093999832869,194.84423510008492,None,194.84423510008492,None,195.5773601999972,None,,,,,24,001,2023-05-03_10h33.02.690,uncolored_sorted,2021.2.3,59.99210500680098,
C:\Users\subject\Desktop\SVRT Experiments\SVRT Experiment 3\svrt_images\generated_images\results_problem_3,,C:\Users\subject\Desktop\SVRT Experiments\SVRT Experiment 3\svrt_images\generated_images\results_problem_3\sample_1_0014.png,,,,,,,,,,,,,,,,,,,,,,0,1,1,1,0,2,2,2,,,,,,,,,,,,,,j,3,B,A,6,0,Incorrect!,0.7651374000124633,196.61069880006835,None,196.61069880006835,None,197.39400240010582,None,,,,,24,001,2023-05-03_10h33.02.690,uncolored_sorted,2021.2.3,59.99210500680098,
C:\Users\subject\Desktop\SVRT Experiments\SVRT Experiment 3\svrt_images\generated_images\results_problem_3,,C:\Users\subject\Desktop\SVRT Experiments\SVRT Experiment 3\svrt_images\generated_images\results_problem_3\sample_1_0016.png,,,,,,,,,,,,,,,,,,,,,,0,1,1,1,0,3,3,3,,,,,,,,,,,,,,f,3,A,A,6,1,Correct!,2.7564788998570293,198.42733350000344,None,198.42733350000344,None,201.2105619001668,None,,,,,24,001,2023-05-03_10h33.02.690,uncolored_sorted,2021.2.3,59.99210500680098,
C:\Users\subject\Desktop\SVRT Experiments\SVRT Experiment 3\svrt_images\generated_images\results_problem_3,,C:\Users\subject\Desktop\SVRT Experiments\SVRT Experiment 3\svrt_images\generated_images\results_problem_3\sample_0_0008.png,,,,,,,,,,,,,,,,,,,,,,0,1,1,1,0,4,4,4,,,,,,,,,,,,,,f,3,A,B,6,0,Incorrect!,0.7230956999119371,202.26058290014043,None,202.26058290014043,None,203.01059380010702,None,,,,,24,001,2023-05-03_10h33.02.690,uncolored_sorted,2021.2.3,59.99210500680098,
C:\Users\subject\Desktop\SVRT Experiments\SVRT Experiment 3\svrt_images\generated_images\results_problem_3,,C:\Users\subject\Desktop\SVRT Experiments\SVRT Experiment 3\svrt_images\generated_images\results_problem_3\sample_0_0004.png,,,,,,,,,,,,,,,,,,,,,,0,1,1,1,0,5,5,5,,,,,,,,,,,,,,j,3,B,B,6,1,Correct!,2.0586563998367637,204.07719870004803,None,204.07719870004803,None,206.1605035001412,None,,,,,24,001,2023-05-03_10h33.02.690,uncolored_sorted,2021.2.3,59.99210500680098,
C:\Users\subject\Desktop\SVRT Experiments\SVRT Experiment 3\svrt_images\generated_images\results_problem_3,,C:\Users\subject\Desktop\SVRT Experiments\SVRT Experiment 3\svrt_images\generated_images\results_problem_3\sample_1_0005.png,,,,,,,,,,,,,,,,,,,,,,0,1,1,1,0,6,6,6,,,,,,,,,,,,,,f,3,A,A,6,1,Correct!,1.2759010998997837,207.24386990000494,None,207.24386990000494,None,208.54372110008262,None,,,,,24,001,2023-05-03_10h33.02.690,uncolored_sorted,2021.2.3,59.99210500680098,
C:\Users\subject\Desktop\SVRT Experiments\SVRT Experiment 3\svrt_images\generated_images\results_problem_3,,C:\Users\subject\Desktop\SVRT Experiments\SVRT Experiment 3\svrt_images\generated_images\results_problem_3\sample_0_0002.png,,,,,,,,,,,,,,,,,,,,,,0,1,1,1,0,7,7,7,,,,,,,,,,,,,,j,3,B,B,6,1,Correct!,2.740710499929264,209.62708540004678,None,209.62708540004678,None,212.39369749999605,None,,,,,24,001,2023-05-03_10h33.02.690,uncolored_sorted,2021.2.3,59.99210500680098,
C:\Users\subject\Desktop\SVRT Experiments\SVRT Experiment 3\svrt_images\generated_images\results_problem_3,,C:\Users\subject\Desktop\SVRT Experiments\SVRT Experiment 3\svrt_images\generated_images\results_problem_3\sample_1_0010.png,,,,,,,,,,,,,,,,,,,,,,0,1,1,1,0,8,8,8,,,,,,,,,,,,,,f,3,A,A,6,1,Correct!,0.9147765999659896,213.47700350009836,None,213.47700350009836,None,214.41033080010675,None,,,,,24,001,2023-05-03_10h33.02.690,uncolored_sorted,2021.2.3,59.99210500680098,
C:\Users\subject\Desktop\SVRT Experiments\SVRT Experiment 3\svrt_images\generated_images\results_problem_3,,C:\Users\subject\Desktop\SVRT Experiments\SVRT Experiment 3\svrt_images\generated_images\results_problem_3\sample_1_0009.png,,,,,,,,,,,,,,,,,,,,,,0,1,1,1,0,9,9,9,,,,,,,,,,,,,,f,3,A,A,6,1,Correct!,1.329432399943471,215.5102971000597,None,215.5102971000597,None,216.8602887999732,None,,,,,24,001,2023-05-03_10h33.02.690,uncolored_sorted,2021.2.3,59.99210500680098,
C:\Users\subject\Desktop\SVRT Experiments\SVRT Experiment 3\svrt_images\generated_images\results_problem_3,,C:\Users\subject\Desktop\SVRT Experiments\SVRT Experiment 3\svrt_images\generated_images\results_problem_3\sample_1_0000.png,,,,,,,,,,,,,,,,,,,,,,0,1,1,1,0,10,10,10,,,,,,,,,,,,,,j,3,B,A,6,0,Incorrect!,0.7270221000071615,217.97692740010098,None,217.97692740010098,None,218.72697560000233,None,,,,,24,001,2023-05-03_10h33.02.690,uncolored_sorted,2021.2.3,59.99210500680098,
C:\Users\subject\Desktop\SVRT Experiments\SVRT Experiment 3\svrt_images\generated_images\results_problem_3,,C:\Users\subject\Desktop\SVRT Experiments\SVRT Experiment 3\svrt_images\generated_images\results_problem_3\sample_1_0015.png,,,,,,,,,,,,,,,,,,,,,,0,1,1,1,0,11,11,11,,,,,,,,,,,,,,j,3,B,A,6,0,Incorrect!,1.4917003000155091,219.860204000026,None,219.860204000026,None,221.37683370010927,None,,,,,24,001,2023-05-03_10h33.02.690,uncolored_sorted,2021.2.3,59.99210500680098,
C:\Users\subject\Desktop\SVRT Experiments\SVRT Experiment 3\svrt_images\generated_images\results_problem_3,,C:\Users\subject\Desktop\SVRT Experiments\SVRT Experiment 3\svrt_images\generated_images\results_problem_3\sample_0_0001.png,,,,,,,,,,,,,,,,,,,,,,0,1,1,1,0,12,12,12,,,,,,,,,,,,,,f,3,A,B,6,0,Incorrect!,0.729073200142011,222.52678159996867,None,222.52678159996867,None,223.27672079997137,None,,,,,24,001,2023-05-03_10h33.02.690,uncolored_sorted,2021.2.3,59.99210500680098,
C:\Users\subject\Desktop\SVRT Experiments\SVRT Experiment 3\svrt_images\generated_images\results_problem_3,,C:\Users\subject\Desktop\SVRT Experiments\SVRT Experiment 3\svrt_images\generated_images\results_problem_3\sample_1_0007.png,,,,,,,,,,,,,,,,,,,,,,0,1,1,1,0,13,13,13,,,,,,,,,,,,,,j,3,B,A,6,0,Incorrect!,1.3651123999152333,224.4267347001005,None,224.4267347001005,None,225.81006780010648,None,,,,,24,001,2023-05-03_10h33.02.690,uncolored_sorted,2021.2.3,59.99210500680098,
C:\Users\subject\Desktop\SVRT Experiments\SVRT Experiment 3\svrt_images\generated_images\results_problem_3,,C:\Users\subject\Desktop\SVRT Experiments\SVRT Experiment 3\svrt_images\generated_images\results_problem_3\sample_1_0008.png,,,,,,,,,,,,,,,,,,,,,,0,1,1,1,0,14,14,14,,,,,,,,,,,,,,f,3,A,A,6,1,Correct!,0.7351061999797821,226.97673170012422,None,226.97673170012422,None,227.76003210013732,None,,,,,24,001,2023-05-03_10h33.02.690,uncolored_sorted,2021.2.3,59.99210500680098,
C:\Users\subject\Desktop\SVRT Experiments\SVRT Experiment 3\svrt_images\generated_images\results_problem_3,,C:\Users\subject\Desktop\SVRT Experiments\SVRT Experiment 3\svrt_images\generated_images\results_problem_3\sample_0_0005.png,,,,,,,,,,,,,,,,,,,,,,0,1,1,1,0,15,15,15,,,,,,,,,,,,,,f,3,A,B,6,0,Incorrect!,1.8971442999318242,228.92668889998458,None,228.92668889998458,None,230.84329860005528,None,,,,,24,001,2023-05-03_10h33.02.690,uncolored_sorted,2021.2.3,59.99210500680098,
C:\Users\subject\Desktop\SVRT Experiments\SVRT Experiment 3\svrt_images\generated_images\results_problem_3,,C:\Users\subject\Desktop\SVRT Experiments\SVRT Experiment 3\svrt_images\generated_images\results_problem_3\sample_0_0003.png,,,,,,,,,,,,,,,,,,,,,,0,1,1,1,0,16,16,16,,,,,,,,,,,,,,f,3,A,B,6,0,Incorrect!,0.6692476000171155,232.02660370012745,None,232.02660370012745,None,232.7432444000151,None,,,,,24,001,2023-05-03_10h33.02.690,uncolored_sorted,2021.2.3,59.99210500680098,
C:\Users\subject\Desktop\SVRT Experiments\SVRT Experiment 3\svrt_images\generated_images\results_problem_3,,C:\Users\subject\Desktop\SVRT Experiments\SVRT Experiment 3\svrt_images\generated_images\results_problem_3\sample_1_0001.png,,,,,,,,,,,,,,,,,,,,,,0,1,1,1,0,17,17,17,,,,,,,,,,,,,,f,3,A,A,6,1,Correct!,1.6800049999728799,233.95991030009463,None,233.95991030009463,None,235.65988339995965,None,,,,,24,001,2023-05-03_10h33.02.690,uncolored_sorted,2021.2.3,59.99210500680098,
C:\Users\subject\Desktop\SVRT Experiments\SVRT Experiment 3\svrt_images\generated_images\results_problem_3,,C:\Users\subject\Desktop\SVRT Experiments\SVRT Experiment 3\svrt_images\generated_images\results_problem_3\sample_1_0012.png,,,,,,,,,,,,,,,,,,,,,,0,1,1,1,0,18,18,18,,,,,,,,,,,,,,f,3,A,A,6,1,Correct!,2.483282099943608,236.8765180001501,None,236.8765180001501,None,239.39314100006595,None,,,,,24,001,2023-05-03_10h33.02.690,uncolored_sorted,2021.2.3,59.99210500680098,
C:\Users\subject\Desktop\SVRT Experiments\SVRT Experiment 3\svrt_images\generated_images\results_problem_3,,C:\Users\subject\Desktop\SVRT Experiments\SVRT Experiment 3\svrt_images\generated_images\results_problem_3\sample_1_0002.png,,,,,,,,,,,,,,,,,,,,,,0,1,1,1,0,19,19,19,,,,,,,,,,,,,,j,3,B,A,6,0,Incorrect!,0.9814929000567645,240.6264375001192,None,240.6264375001192,None,241.64307590015233,None,,,,,24,001,2023-05-03_10h33.02.690,uncolored_sorted,2021.2.3,59.99210500680098,
C:\Users\subject\Desktop\SVRT Experiments\SVRT Experiment 3\svrt_images\generated_images\results_problem_3,,C:\Users\subject\Desktop\SVRT Experiments\SVRT Experiment 3\svrt_images\generated_images\results_problem_3\sample_1_0013.png,,,,,,,,,,,,,,,,,,,,,,0,1,1,1,0,20,20,20,,,,,,,,,,,,,,j,3,B,A,6,0,Incorrect!,2.5787545000202954,242.89305340009741,None,242.89305340009741,None,245.50966570014134,None,,,,,24,001,2023-05-03_10h33.02.690,uncolored_sorted,2021.2.3,59.99210500680098,
C:\Users\subject\Desktop\SVRT Experiments\SVRT Experiment 3\svrt_images\generated_images\results_problem_3,,C:\Users\subject\Desktop\SVRT Experiments\SVRT Experiment 3\svrt_images\generated_images\results_problem_3\sample_0_0007.png,,,,,,,,,,,,,,,,,,,,,,0,1,1,1,0,21,21,21,,,,,,,,,,,,,,f,3,A,B,6,0,Incorrect!,1.216311699943617,246.75964249996468,None,246.75964249996468,None,248.02628919994459,None,,,,,24,001,2023-05-03_10h33.02.690,uncolored_sorted,2021.2.3,59.99210500680098,
C:\Users\subject\Desktop\SVRT Experiments\SVRT Experiment 3\svrt_images\generated_images\results_problem_3,,C:\Users\subject\Desktop\SVRT Experiments\SVRT Experiment 3\svrt_images\generated_images\results_problem_3\sample_0_0010.png,,,,,,,,,,,,,,,,,,,,,,0,1,1,1,0,22,22,22,,,,,,,,,,,,,,j,3,B,B,6,1,Correct!,0.3142930001486093,249.3096060999669,None,249.3096060999669,None,249.65957140014507,None,,,,,24,001,2023-05-03_10h33.02.690,uncolored_sorted,2021.2.3,59.99210500680098,
C:\Users\subject\Desktop\SVRT Experiments\SVRT Experiment 3\svrt_images\generated_images\results_problem_3,,C:\Users\subject\Desktop\SVRT Experiments\SVRT Experiment 3\svrt_images\generated_images\results_problem_3\sample_1_0006.png,,,,,,,,,,,,,,,,,,,,,,0,1,1,1,0,23,23,23,,,,,,,,,,,,,,j,3,B,A,6,0,Incorrect!,1.1289204999338835,250.94290260015987,None,250.94290260015987,None,252.0928639001213,None,,,,,24,001,2023-05-03_10h33.02.690,uncolored_sorted,2021.2.3,59.99210500680098,
C:\Users\subject\Desktop\SVRT Experiments\SVRT Experiment 3\svrt_images\generated_images\results_problem_3,,C:\Users\subject\Desktop\SVRT Experiments\SVRT Experiment 3\svrt_images\generated_images\results_problem_3\sample_1_0004.png,,,,,,,,,,,,,,,,,,,,,,0,1,1,1,0,24,24,24,,,,,,,,,,,,,,f,3,A,A,6,1,Correct!,0.2389040000271052,253.3928384000901,None,253.3928384000901,None,253.6761419000104,None,,,,,24,001,2023-05-03_10h33.02.690,uncolored_sorted,2021.2.3,59.99210500680098,
C:\Users\subject\Desktop\SVRT Experiments\SVRT Experiment 3\svrt_images\generated_images\results_problem_3,,C:\Users\subject\Desktop\SVRT Experiments\SVRT Experiment 3\svrt_images\generated_images\results_problem_3\sample_0_0000.png,,,,,,,,,,,,,,,,,,,,,,0,1,1,1,0,25,25,25,,,,,,,,,,,,,,j,3,B,B,6,1,Correct!,0.8792139999568462,254.9927914000582,None,254.9927914000582,None,255.94273020001128,None,,,,,24,001,2023-05-03_10h33.02.690,uncolored_sorted,2021.2.3,59.99210500680098,
C:\Users\subject\Desktop\SVRT Experiments\SVRT Experiment 3\svrt_images\generated_images\results_problem_3,,C:\Users\subject\Desktop\SVRT Experiments\SVRT Experiment 3\svrt_images\generated_images\results_problem_3\sample_0_0006.png,,,,,,,,,,,,,,,,,,,,,,0,1,1,1,0,26,26,26,,,,,,,,,,,,,,j,3,B,B,6,1,Correct!,0.8030356001108885,257.29274670011364,None,257.29274670011364,None,258.1427259000484,None,,,,,24,001,2023-05-03_10h33.02.690,uncolored_sorted,2021.2.3,59.99210500680098,
C:\Users\subject\Desktop\SVRT Experiments\SVRT Experiment 3\svrt_images\generated_images\results_problem_3,,C:\Users\subject\Desktop\SVRT Experiments\SVRT Experiment 3\svrt_images\generated_images\results_problem_3\sample_1_0003.png,,,,,,,,,,,,,,,,,,,,,,0,1,1,1,0,27,27,27,,,,,,,,,,,,,,j,3,B,A,6,0,Incorrect!,0.6350889001041651,259.49274140014313,None,259.49274140014313,None,260.17602899996564,None,,,,,24,001,2023-05-03_10h33.02.690,uncolored_sorted,2021.2.3,59.99210500680098,
C:\Users\subject\Desktop\SVRT Experiments\SVRT Experiment 3\svrt_images\generated_images\results_problem_3,,C:\Users\subject\Desktop\SVRT Experiments\SVRT Experiment 3\svrt_images\generated_images\results_problem_3\sample_0_0011.png,,,,,,,,,,,,,,,,,,,,,,0,1,1,1,0,28,28,28,,,,,,,,,,,,,,f,3,A,B,6,0,Incorrect!,0.2257310999557376,261.52600400010124,None,261.52600400010124,None,261.7926628999412,None,,,,,24,001,2023-05-03_10h33.02.690,uncolored_sorted,2021.2.3,59.99210500680098,
C:\Users\subject\Desktop\SVRT Experiments\SVRT Experiment 3\svrt_images\generated_images\results_problem_3,,C:\Users\subject\Desktop\SVRT Experiments\SVRT Experiment 3\svrt_images\generated_images\results_problem_3\sample_0_0012.png,,,,,,,,,,,,,,,,,,,,,,0,1,1,1,0,29,29,29,,,,,,,,,,,,,,f,3,A,B,6,0,Incorrect!,0.5845248999539763,263.159301500069,None,263.159301500069,None,263.8592652999796,None,,,,,24,001,2023-05-03_10h33.02.690,uncolored_sorted,2021.2.3,59.99210500680098,
C:\Users\subject\Desktop\SVRT Experiments\SVRT Experiment 3\svrt_images\generated_images\results_problem_3,,C:\Users\subject\Desktop\SVRT Experiments\SVRT Experiment 3\svrt_images\generated_images\results_problem_3\sample_1_0011.png,,,,,,,,,,,,,,,,,,,,,,0,1,1,1,0,30,30,30,,,,,,,,,,,,,,j,3,B,A,6,0,Incorrect!,1.2925935999955982,265.25926310010254,None,265.25926310010254,None,266.5758706999477,None,,,,,24,001,2023-05-03_10h33.02.690,uncolored_sorted,2021.2.3,59.99210500680098,
C:\Users\subject\Desktop\SVRT Experiments\SVRT Experiment 3\svrt_images\generated_images\results_problem_3,,C:\Users\subject\Desktop\SVRT Experiments\SVRT Experiment 3\svrt_images\generated_images\results_problem_3\sample_0_0015.png,,,,,,,,,,,,,,,,,,,,,,0,1,1,1,0,31,31,31,,,,,,,,,,,,,,f,3,A,B,6,0,Incorrect!,1.2872163001447916,267.9925578001421,None,267.9925578001421,None,269.3091591000557,None,,,,,24,001,2023-05-03_10h33.02.690,uncolored_sorted,2021.2.3,59.99210500680098,
C:\Users\subject\Desktop\SVRT Experiments\SVRT Experiment 3\svrt_images\generated_images\results_problem_3,,C:\Users\subject\Desktop\SVRT Experiments\SVRT Experiment 3\svrt_images\generated_images\results_problem_3\sample_0_0013.png,,,,,,,,,,,,,,,,,,,,,,0,1,1,1,0,32,32,32,,,,,,,,,,,,,,j,3,B,B,6,1,Correct!,1.4819796001538634,270.7258008001372,None,270.7258008001372,None,272.2424270999618,None,,,,,24,001,2023-05-03_10h33.02.690,uncolored_sorted,2021.2.3,59.99210500680098,
C:\Users\subject\Desktop\SVRT Experiments\SVRT Experiment 3\svrt_images\generated_images\results_problem_3,,C:\Users\subject\Desktop\SVRT Experiments\SVRT Experiment 3\svrt_images\generated_images\results_problem_3\sample_0_0016.png,,,,,,,,,,,,,,,,,,,,,,0,1,1,1,0,33,33,33,,,,,,,,,,,,,,j,3,B,B,6,1,Correct!,0.8113508000969887,273.6923623001203,None,273.6923623001203,None,274.52571439999156,None,,,,,24,001,2023-05-03_10h33.02.690,uncolored_sorted,2021.2.3,59.99210500680098,
C:\Users\subject\Desktop\SVRT Experiments\SVRT Experiment 3\svrt_images\generated_images\results_problem_3,,,,,,,,,,,,,,,,,,,,,,,,0,1,1,1,,,,,,,,,,,,,,,,,,,,,,,,,,,,,,,,275.5257777001243,275.5257777001243,space,1.9220489000435919,24,001,2023-05-03_10h33.02.690,uncolored_sorted,2021.2.3,59.99210500680098,
C:\Users\subject\Desktop\SVRT Experiments\SVRT Experiment 3\svrt_images\generated_images\results_problem_19,,,C:\Users\subject\Desktop\SVRT Experiments\SVRT Experiment 3\svrt_images\generated_images\results_problem_19\sample_0_0006.png,,,,,,,,,,,,,,,,,,,,,0,2,2,2,0,0,0,0,,,,,,,,,,,,,,f,19,A,B,6,0,Incorrect!,3.092172000091523,277.4756653001532,None,277.4756653001532,None,280.5922811999917,None,,,,,24,001,2023-05-03_10h33.02.690,uncolored_sorted,2021.2.3,59.99210500680098,
C:\Users\subject\Desktop\SVRT Experiments\SVRT Experiment 3\svrt_images\generated_images\results_problem_19,,,C:\Users\subject\Desktop\SVRT Experiments\SVRT Experiment 3\svrt_images\generated_images\results_problem_19\sample_0_0008.png,,,,,,,,,,,,,,,,,,,,,0,2,2,2,0,1,1,1,,,,,,,,,,,,,,j,19,B,B,6,1,Correct!,1.918800299987197,281.6089113999624,None,281.6089113999624,None,283.5588683001697,None,,,,,24,001,2023-05-03_10h33.02.690,uncolored_sorted,2021.2.3,59.99210500680098,
C:\Users\subject\Desktop\SVRT Experiments\SVRT Experiment 3\svrt_images\generated_images\results_problem_19,,,C:\Users\subject\Desktop\SVRT Experiments\SVRT Experiment 3\svrt_images\generated_images\results_problem_19\sample_1_0012.png,,,,,,,,,,,,,,,,,,,,,0,2,2,2,0,2,2,2,,,,,,,,,,,,,,j,19,B,A,6,0,Incorrect!,1.0475123000796884,284.5921975001693,None,284.5921975001693,None,285.6588203001302,None,,,,,24,001,2023-05-03_10h33.02.690,uncolored_sorted,2021.2.3,59.99210500680098,
C:\Users\subject\Desktop\SVRT Experiments\SVRT Experiment 3\svrt_images\generated_images\results_problem_19,,,C:\Users\subject\Desktop\SVRT Experiments\SVRT Experiment 3\svrt_images\generated_images\results_problem_19\sample_1_0009.png,,,,,,,,,,,,,,,,,,,,,0,2,2,2,0,3,3,3,,,,,,,,,,,,,,f,19,A,A,6,1,Correct!,3.5796165999490768,286.6921703000553,None,286.6921703000553,None,290.2920596001204,None,,,,,24,001,2023-05-03_10h33.02.690,uncolored_sorted,2021.2.3,59.99210500680098,
C:\Users\subject\Desktop\SVRT Experiments\SVRT Experiment 3\svrt_images\generated_images\results_problem_19,,,C:\Users\subject\Desktop\SVRT Experiments\SVRT Experiment 3\svrt_images\generated_images\results_problem_19\sample_0_0002.png,,,,,,,,,,,,,,,,,,,,,0,2,2,2,0,4,4,4,,,,,,,,,,,,,,f,19,A,B,6,0,Incorrect!,0.8256093000527471,291.3420834999997,None,291.3420834999997,None,292.1920145000331,None,,,,,24,001,2023-05-03_10h33.02.690,uncolored_sorted,2021.2.3,59.99210500680098,
C:\Users\subject\Desktop\SVRT Experiments\SVRT Experiment 3\svrt_images\generated_images\results_problem_19,,,C:\Users\subject\Desktop\SVRT Experiments\SVRT Experiment 3\svrt_images\generated_images\results_problem_19\sample_1_0005.png,,,,,,,,,,,,,,,,,,,,,0,2,2,2,0,5,5,5,,,,,,,,,,,,,,f,19,A,A,6,1,Correct!,1.1657551999669522,293.24200680013746,None,293.24200680013746,None,294.4253055001609,None,,,,,24,001,2023-05-03_10h33.02.690,uncolored_sorted,2021.2.3,59.99210500680098,
C:\Users\subject\Desktop\SVRT Experiments\SVRT Experiment 3\svrt_images\generated_images\results_problem_19,,,C:\Users\subject\Desktop\SVRT Experiments\SVRT Experiment 3\svrt_images\generated_images\results_problem_19\sample_1_0004.png,,,,,,,,,,,,,,,,,,,,,0,2,2,2,0,6,6,6,,,,,,,,,,,,,,f,19,A,A,6,1,Correct!,0.667812000028789,295.49192510009743,None,295.49192510009743,None,296.191956799943,None,,,,,24,001,2023-05-03_10h33.02.690,uncolored_sorted,2021.2.3,59.99210500680098,
C:\Users\subject\Desktop\SVRT Experiments\SVRT Experiment 3\svrt_images\generated_images\results_problem_19,,,C:\Users\subject\Desktop\SVRT Experiments\SVRT Experiment 3\svrt_images\generated_images\results_problem_19\sample_1_0001.png,,,,,,,,,,,,,,,,,,,,,0,2,2,2,0,7,7,7,,,,,,,,,,,,,,j,19,B,A,6,0,Incorrect!,1.7165156998671591,297.27525570010766,None,297.27525570010766,None,299.00854790001176,None,,,,,24,001,2023-05-03_10h33.02.690,uncolored_sorted,2021.2.3,59.99210500680098,
C:\Users\subject\Desktop\SVRT Experiments\SVRT Experiment 3\svrt_images\generated_images\results_problem_19,,,C:\Users\subject\Desktop\SVRT Experiments\SVRT Experiment 3\svrt_images\generated_images\results_problem_19\sample_1_0013.png,,,,,,,,,,,,,,,,,,,,,0,2,2,2,0,8,8,8,,,,,,,,,,,,,,f,19,A,A,6,1,Correct!,1.379862800007686,300.0918932999484,None,300.0918932999484,None,301.49183970014565,None,,,,,24,001,2023-05-03_10h33.02.690,uncolored_sorted,2021.2.3,59.99210500680098,
C:\Users\subject\Desktop\SVRT Experiments\SVRT Experiment 3\svrt_images\generated_images\results_problem_19,,,C:\Users\subject\Desktop\SVRT Experiments\SVRT Experiment 3\svrt_images\generated_images\results_problem_19\sample_0_0014.png,,,,,,,,,,,,,,,,,,,,,0,2,2,2,0,9,9,9,,,,,,,,,,,,,,j,19,B,B,6,1,Correct!,1.0959657998755574,302.5918336000759,None,302.5918336000759,None,303.7084846999496,None,,,,,24,001,2023-05-03_10h33.02.690,uncolored_sorted,2021.2.3,59.99210500680098,
C:\Users\subject\Desktop\SVRT Experiments\SVRT Experiment 3\svrt_images\generated_images\results_problem_19,,,C:\Users\subject\Desktop\SVRT Experiments\SVRT Experiment 3\svrt_images\generated_images\results_problem_19\sample_1_0016.png,,,,,,,,,,,,,,,,,,,,,0,2,2,2,0,10,10,10,,,,,,,,,,,,,,j,19,B,A,6,0,Incorrect!,2.5424096998758614,304.8252413000446,None,304.8252413000446,None,307.39175399998203,None,,,,,24,001,2023-05-03_10h33.02.690,uncolored_sorted,2021.2.3,59.99210500680098,
C:\Users\subject\Desktop\SVRT Experiments\SVRT Experiment 3\svrt_images\generated_images\results_problem_19,,,C:\Users\subject\Desktop\SVRT Experiments\SVRT Experiment 3\svrt_images\generated_images\results_problem_19\sample_0_0011.png,,,,,,,,,,,,,,,,,,,,,0,2,2,2,0,11,11,11,,,,,,,,,,,,,,f,19,A,B,6,0,Incorrect!,1.3954155000392348,308.5083642001264,None,308.5083642001264,None,309.92500990000553,None,,,,,24,001,2023-05-03_10h33.02.690,uncolored_sorted,2021.2.3,59.99210500680098,
C:\Users\subject\Desktop\SVRT Experiments\SVRT Experiment 3\svrt_images\generated_images\results_problem_19,,,C:\Users\subject\Desktop\SVRT Experiments\SVRT Experiment 3\svrt_images\generated_images\results_problem_19\sample_0_0009.png,,,,,,,,,,,,,,,,,,,,,0,2,2,2,0,12,12,12,,,,,,,,,,,,,,f,19,A,B,6,0,Incorrect!,0.8047329001128674,311.0749952001497,None,311.0749952001497,None,311.92500030016527,None,,,,,24,001,2023-05-03_10h33.02.690,uncolored_sorted,2021.2.3,59.99210500680098,
C:\Users\subject\Desktop\SVRT Experiments\SVRT Experiment 3\svrt_images\generated_images\results_problem_19,,,C:\Users\subject\Desktop\SVRT Experiments\SVRT Experiment 3\svrt_images\generated_images\results_problem_19\sample_0_0015.png,,,,,,,,,,,,,,,,,,,,,0,2,2,2,0,13,13,13,,,,,,,,,,,,,,j,19,B,B,6,1,Correct!,0.756109100067988,313.0916214999743,None,313.0916214999743,None,313.87493339995854,None,,,,,24,001,2023-05-03_10h33.02.690,uncolored_sorted,2021.2.3,59.99210500680098,
C:\Users\subject\Desktop\SVRT Experiments\SVRT Experiment 3\svrt_images\generated_images\results_problem_19,,,C:\Users\subject\Desktop\SVRT Experiments\SVRT Experiment 3\svrt_images\generated_images\results_problem_19\sample_1_0007.png,,,,,,,,,,,,,,,,,,,,,0,2,2,2,0,14,14,14,,,,,,,,,,,,,,j,19,B,A,6,0,Incorrect!,0.6948739001527429,315.024918399984,None,315.024918399984,None,315.74156670016237,None,,,,,24,001,2023-05-03_10h33.02.690,uncolored_sorted,2021.2.3,59.99210500680098,
C:\Users\subject\Desktop\SVRT Experiments\SVRT Experiment 3\svrt_images\generated_images\results_problem_19,,,C:\Users\subject\Desktop\SVRT Experiments\SVRT Experiment 3\svrt_images\generated_images\results_problem_19\sample_1_0010.png,,,,,,,,,,,,,,,,,,,,,0,2,2,2,0,15,15,15,,,,,,,,,,,,,,f,19,A,A,6,1,Correct!,1.2269528999458998,316.9248768000398,None,316.9248768000398,None,318.17484580003656,None,,,,,24,001,2023-05-03_10h33.02.690,uncolored_sorted,2021.2.3,59.99210500680098,
C:\Users\subject\Desktop\SVRT Experiments\SVRT Experiment 3\svrt_images\generated_images\results_problem_19,,,C:\Users\subject\Desktop\SVRT Experiments\SVRT Experiment 3\svrt_images\generated_images\results_problem_19\sample_1_0014.png,,,,,,,,,,,,,,,,,,,,,0,2,2,2,0,16,16,16,,,,,,,,,,,,,,f,19,A,A,6,1,Correct!,1.0464463999960572,319.4972745999694,None,319.4972745999694,None,320.59144770004787,None,,,,,24,001,2023-05-03_10h33.02.690,uncolored_sorted,2021.2.3,59.99210500680098,
C:\Users\subject\Desktop\SVRT Experiments\SVRT Experiment 3\svrt_images\generated_images\results_problem_19,,,C:\Users\subject\Desktop\SVRT Experiments\SVRT Experiment 3\svrt_images\generated_images\results_problem_19\sample_0_0013.png,,,,,,,,,,,,,,,,,,,,,0,2,2,2,0,17,17,17,,,,,,,,,,,,,,j,19,B,B,6,1,Correct!,0.9282653999980539,321.79146600002423,None,321.79146600002423,None,322.77474500006065,None,,,,,24,001,2023-05-03_10h33.02.690,uncolored_sorted,2021.2.3,59.99210500680098,
C:\Users\subject\Desktop\SVRT Experiments\SVRT Experiment 3\svrt_images\generated_images\results_problem_19,,,C:\Users\subject\Desktop\SVRT Experiments\SVRT Experiment 3\svrt_images\generated_images\results_problem_19\sample_1_0011.png,,,,,,,,,,,,,,,,,,,,,0,2,2,2,0,18,18,18,,,,,,,,,,,,,,f,19,A,A,6,1,Correct!,1.584341200068593,323.9914073999971,None,323.9914073999971,None,325.60804760013707,None,,,,,24,001,2023-05-03_10h33.02.690,uncolored_sorted,2021.2.3,59.99210500680098,
C:\Users\subject\Desktop\SVRT Experiments\SVRT Experiment 3\svrt_images\generated_images\results_problem_19,,,C:\Users\subject\Desktop\SVRT Experiments\SVRT Experiment 3\svrt_images\generated_images\results_problem_19\sample_0_0005.png,,,,,,,,,,,,,,,,,,,,,0,2,2,2,0,19,19,19,,,,,,,,,,,,,,f,19,A,B,6,0,Incorrect!,1.5903730001300573,326.84136290010065,None,326.84136290010065,None,328.4579715,None,,,,,24,001,2023-05-03_10h33.02.690,uncolored_sorted,2021.2.3,59.99210500680098,
C:\Users\subject\Desktop\SVRT Experiments\SVRT Experiment 3\svrt_images\generated_images\results_problem_19,,,C:\Users\subject\Desktop\SVRT Experiments\SVRT Experiment 3\svrt_images\generated_images\results_problem_19\sample_0_0012.png,,,,,,,,,,,,,,,,,,,,,0,2,2,2,0,20,20,20,,,,,,,,,,,,,,f,19,A,B,6,0,Incorrect!,0.6918131001293659,329.7079052000772,None,329.7079052000772,None,330.42460340005346,None,,,,,24,001,2023-05-03_10h33.02.690,uncolored_sorted,2021.2.3,59.99210500680098,
C:\Users\subject\Desktop\SVRT Experiments\SVRT Experiment 3\svrt_images\generated_images\results_problem_19,,,C:\Users\subject\Desktop\SVRT Experiments\SVRT Experiment 3\svrt_images\generated_images\results_problem_19\sample_1_0003.png,,,,,,,,,,,,,,,,,,,,,0,2,2,2,0,21,21,21,,,,,,,,,,,,,,f,19,A,A,6,1,Correct!,1.2372536999173462,331.67456279997714,None,331.67456279997714,None,332.94119870010763,None,,,,,24,001,2023-05-03_10h33.02.690,uncolored_sorted,2021.2.3,59.99210500680098,
C:\Users\subject\Desktop\SVRT Experiments\SVRT Experiment 3\svrt_images\generated_images\results_problem_19,,,C:\Users\subject\Desktop\SVRT Experiments\SVRT Experiment 3\svrt_images\generated_images\results_problem_19\sample_0_0004.png,,,,,,,,,,,,,,,,,,,,,0,2,2,2,0,22,22,22,,,,,,,,,,,,,,f,19,A,B,6,0,Incorrect!,0.6158288000151515,334.2078690000344,None,334.2078690000344,None,334.89115840010345,None,,,,,24,001,2023-05-03_10h33.02.690,uncolored_sorted,2021.2.3,59.99210500680098,
C:\Users\subject\Desktop\SVRT Experiments\SVRT Experiment 3\svrt_images\generated_images\results_problem_19,,,C:\Users\subject\Desktop\SVRT Experiments\SVRT Experiment 3\svrt_images\generated_images\results_problem_19\sample_1_0008.png,,,,,,,,,,,,,,,,,,,,,0,2,2,2,0,23,23,23,,,,,,,,,,,,,,f,19,A,A,6,1,Correct!,0.5852395999245346,336.17450230009854,None,336.17450230009854,None,336.7911553001031,None,,,,,24,001,2023-05-03_10h33.02.690,uncolored_sorted,2021.2.3,59.99210500680098,
C:\Users\subject\Desktop\SVRT Experiments\SVRT Experiment 3\svrt_images\generated_images\results_problem_19,,,C:\Users\subject\Desktop\SVRT Experiments\SVRT Experiment 3\svrt_images\generated_images\results_problem_19\sample_1_0015.png,,,,,,,,,,,,,,,,,,,,,0,2,2,2,0,24,24,24,,,,,,,,,,,,,,j,19,B,A,6,0,Incorrect!,0.5571985000278801,338.0744565001223,None,338.0744565001223,None,338.69111480005085,None,,,,,24,001,2023-05-03_10h33.02.690,uncolored_sorted,2021.2.3,59.99210500680098,
C:\Users\subject\Desktop\SVRT Experiments\SVRT Experiment 3\svrt_images\generated_images\results_problem_19,,,C:\Users\subject\Desktop\SVRT Experiments\SVRT Experiment 3\svrt_images\generated_images\results_problem_19\sample_0_0010.png,,,,,,,,,,,,,,,,,,,,,0,2,2,2,0,25,25,25,,,,,,,,,,,,,,f,19,A,B,6,0,Incorrect!,1.408031800063327,340.0077372000087,None,340.0077372000087,None,341.49104310013354,None,,,,,24,001,2023-05-03_10h33.02.690,uncolored_sorted,2021.2.3,59.99210500680098,
C:\Users\subject\Desktop\SVRT Experiments\SVRT Experiment 3\svrt_images\generated_images\results_problem_19,,,C:\Users\subject\Desktop\SVRT Experiments\SVRT Experiment 3\svrt_images\generated_images\results_problem_19\sample_0_0000.png,,,,,,,,,,,,,,,,,,,,,0,2,2,2,0,26,26,26,,,,,,,,,,,,,,j,19,B,B,6,1,Correct!,0.6633767001330853,342.8243401001673,None,342.8243401001673,None,343.50766180013306,None,,,,,24,001,2023-05-03_10h33.02.690,uncolored_sorted,2021.2.3,59.99210500680098,
C:\Users\subject\Desktop\SVRT Experiments\SVRT Experiment 3\svrt_images\generated_images\results_problem_19,,,C:\Users\subject\Desktop\SVRT Experiments\SVRT Experiment 3\svrt_images\generated_images\results_problem_19\sample_0_0016.png,,,,,,,,,,,,,,,,,,,,,0,2,2,2,0,27,27,27,,,,,,,,,,,,,,j,19,B,B,6,1,Correct!,0.4386980999261141,344.8409874001518,None,344.8409874001518,None,345.35764629999176,None,,,,,24,001,2023-05-03_10h33.02.690,uncolored_sorted,2021.2.3,59.99210500680098,
C:\Users\subject\Desktop\SVRT Experiments\SVRT Experiment 3\svrt_images\generated_images\results_problem_19,,,C:\Users\subject\Desktop\SVRT Experiments\SVRT Experiment 3\svrt_images\generated_images\results_problem_19\sample_1_0002.png,,,,,,,,,,,,,,,,,,,,,0,2,2,2,0,28,28,28,,,,,,,,,,,,,,j,19,B,A,6,0,Incorrect!,1.0113007999025285,346.72429020004347,None,346.72429020004347,None,347.8242731001228,None,,,,,24,001,2023-05-03_10h33.02.690,uncolored_sorted,2021.2.3,59.99210500680098,
C:\Users\subject\Desktop\SVRT Experiments\SVRT Experiment 3\svrt_images\generated_images\results_problem_19,,,C:\Users\subject\Desktop\SVRT Experiments\SVRT Experiment 3\svrt_images\generated_images\results_problem_19\sample_1_0006.png,,,,,,,,,,,,,,,,,,,,,0,2,2,2,0,29,29,29,,,,,,,,,,,,,,j,19,B,A,6,0,Incorrect!,0.6241633000317961,349.2075662999414,None,349.2075662999414,None,349.92420840007253,None,,,,,24,001,2023-05-03_10h33.02.690,uncolored_sorted,2021.2.3,59.99210500680098,
C:\Users\subject\Desktop\SVRT Experiments\SVRT Experiment 3\svrt_images\generated_images\results_problem_19,,,C:\Users\subject\Desktop\SVRT Experiments\SVRT Experiment 3\svrt_images\generated_images\results_problem_19\sample_0_0001.png,,,,,,,,,,,,,,,,,,,,,0,2,2,2,0,30,30,30,,,,,,,,,,,,,,j,19,B,B,6,1,Correct!,0.9401962000411004,351.3075304001104,None,351.3075304001104,None,352.32414930011146,None,,,,,24,001,2023-05-03_10h33.02.690,uncolored_sorted,2021.2.3,59.99210500680098,
C:\Users\subject\Desktop\SVRT Experiments\SVRT Experiment 3\svrt_images\generated_images\results_problem_19,,,C:\Users\subject\Desktop\SVRT Experiments\SVRT Experiment 3\svrt_images\generated_images\results_problem_19\sample_1_0000.png,,,,,,,,,,,,,,,,,,,,,0,2,2,2,0,31,31,31,,,,,,,,,,,,,,j,19,B,A,6,0,Incorrect!,1.0435852000955492,353.72414169996046,None,353.72414169996046,None,354.84071270003915,None,,,,,24,001,2023-05-03_10h33.02.690,uncolored_sorted,2021.2.3,59.99210500680098,
C:\Users\subject\Desktop\SVRT Experiments\SVRT Experiment 3\svrt_images\generated_images\results_problem_19,,,C:\Users\subject\Desktop\SVRT Experiments\SVRT Experiment 3\svrt_images\generated_images\results_problem_19\sample_0_0007.png,,,,,,,,,,,,,,,,,,,,,0,2,2,2,0,32,32,32,,,,,,,,,,,,,,j,19,B,B,6,1,Correct!,0.6776318999473006,356.2740955001209,None,356.2740955001209,None,356.99070490011945,None,,,,,24,001,2023-05-03_10h33.02.690,uncolored_sorted,2021.2.3,59.99210500680098,
C:\Users\subject\Desktop\SVRT Experiments\SVRT Experiment 3\svrt_images\generated_images\results_problem_19,,,C:\Users\subject\Desktop\SVRT Experiments\SVRT Experiment 3\svrt_images\generated_images\results_problem_19\sample_0_0003.png,,,,,,,,,,,,,,,,,,,,,0,2,2,2,0,33,33,33,,,,,,,,,,,,,,f,19,A,B,6,0,Incorrect!,0.6791246999055147,358.4407035999466,None,358.4407035999466,None,359.1573433999438,None,,,,,24,001,2023-05-03_10h33.02.690,uncolored_sorted,2021.2.3,59.99210500680098,
C:\Users\subject\Desktop\SVRT Experiments\SVRT Experiment 3\svrt_images\generated_images\results_problem_19,,,,,,,,,,,,,,,,,,,,,,,,0,2,2,2,,,,,,,,,,,,,,,,,,,,,,,,,,,,,,,,360.15733860014006,360.15733860014006,space,0.7462746000383049,24,001,2023-05-03_10h33.02.690,uncolored_sorted,2021.2.3,59.99210500680098,
C:\Users\subject\Desktop\SVRT Experiments\SVRT Experiment 3\svrt_images\generated_images\results_problem_21,,,,C:\Users\subject\Desktop\SVRT Experiments\SVRT Experiment 3\svrt_images\generated_images\results_problem_21\sample_1_0007.png,,,,,,,,,,,,,,,,,,,,0,3,3,3,0,0,0,0,,,,,,,,,,,,,,j,21,B,A,6,0,Incorrect!,0.7076463999692351,360.923997099977,None,360.923997099977,None,361.65732260001823,None,,,,,24,001,2023-05-03_10h33.02.690,uncolored_sorted,2021.2.3,59.99210500680098,
C:\Users\subject\Desktop\SVRT Experiments\SVRT Experiment 3\svrt_images\generated_images\results_problem_21,,,,C:\Users\subject\Desktop\SVRT Experiments\SVRT Experiment 3\svrt_images\generated_images\results_problem_21\sample_0_0005.png,,,,,,,,,,,,,,,,,,,,0,3,3,3,0,1,1,1,,,,,,,,,,,,,,j,21,B,B,6,1,Correct!,0.30167529988102615,362.67396509996615,None,362.67396509996615,None,363.0072948001325,None,,,,,24,001,2023-05-03_10h33.02.690,uncolored_sorted,2021.2.3,59.99210500680098,
C:\Users\subject\Desktop\SVRT Experiments\SVRT Experiment 3\svrt_images\generated_images\results_problem_21,,,,C:\Users\subject\Desktop\SVRT Experiments\SVRT Experiment 3\svrt_images\generated_images\results_problem_21\sample_0_0000.png,,,,,,,,,,,,,,,,,,,,0,3,3,3,0,2,2,2,,,,,,,,,,,,,,j,21,B,B,6,1,Correct!,0.6637897999025881,364.0239419999998,None,364.0239419999998,None,364.70726449997164,None,,,,,24,001,2023-05-03_10h33.02.690,uncolored_sorted,2021.2.3,59.99210500680098,
C:\Users\subject\Desktop\SVRT Experiments\SVRT Experiment 3\svrt_images\generated_images\results_problem_21,,,,C:\Users\subject\Desktop\SVRT Experiments\SVRT Experiment 3\svrt_images\generated_images\results_problem_21\sample_1_0015.png,,,,,,,,,,,,,,,,,,,,0,3,3,3,0,3,3,3,,,,,,,,,,,,,,f,21,A,A,6,1,Correct!,2.1391040000598878,365.74058540002443,None,365.74058540002443,None,367.90718940016814,None,,,,,24,001,2023-05-03_10h33.02.690,uncolored_sorted,2021.2.3,59.99210500680098,
C:\Users\subject\Desktop\SVRT Experiments\SVRT Experiment 3\svrt_images\generated_images\results_problem_21,,,,C:\Users\subject\Desktop\SVRT Experiments\SVRT Experiment 3\svrt_images\generated_images\results_problem_21\sample_1_0000.png,,,,,,,,,,,,,,,,,,,,0,3,3,3,0,4,4,4,,,,,,,,,,,,,,f,21,A,A,6,1,Correct!,2.2344590998254716,368.9571679001674,None,368.9571679001674,None,371.2238315001596,None,,,,,24,001,2023-05-03_10h33.02.690,uncolored_sorted,2021.2.3,59.99210500680098,
C:\Users\subject\Desktop\SVRT Experiments\SVRT Experiment 3\svrt_images\generated_images\results_problem_21,,,,C:\Users\subject\Desktop\SVRT Experiments\SVRT Experiment 3\svrt_images\generated_images\results_problem_21\sample_1_0001.png,,,,,,,,,,,,,,,,,,,,0,3,3,3,0,5,5,5,,,,,,,,,,,,,,f,21,A,A,6,1,Correct!,0.6779537000693381,372.2737098999787,None,372.2737098999787,None,372.97372240014374,None,,,,,24,001,2023-05-03_10h33.02.690,uncolored_sorted,2021.2.3,59.99210500680098,
C:\Users\subject\Desktop\SVRT Experiments\SVRT Experiment 3\svrt_images\generated_images\results_problem_21,,,,C:\Users\subject\Desktop\SVRT Experiments\SVRT Experiment 3\svrt_images\generated_images\results_problem_21\sample_0_0012.png,,,,,,,,,,,,,,,,,,,,0,3,3,3,0,6,6,6,,,,,,,,,,,,,,j,21,B,B,6,1,Correct!,0.6072998000308871,374.0404056000989,None,374.0404056000989,None,374.67376899998635,None,,,,,24,001,2023-05-03_10h33.02.690,uncolored_sorted,2021.2.3,59.99210500680098,
C:\Users\subject\Desktop\SVRT Experiments\SVRT Experiment 3\svrt_images\generated_images\results_problem_21,,,,C:\Users\subject\Desktop\SVRT Experiments\SVRT Experiment 3\svrt_images\generated_images\results_problem_21\sample_0_0006.png,,,,,,,,,,,,,,,,,,,,0,3,3,3,0,7,7,7,,,,,,,,,,,,,,f,21,A,B,6,0,Incorrect!,0.6353068999014795,375.7403657999821,None,375.7403657999821,None,376.40702100005,None,,,,,24,001,2023-05-03_10h33.02.690,uncolored_sorted,2021.2.3,59.99210500680098,
C:\Users\subject\Desktop\SVRT Experiments\SVRT Experiment 3\svrt_images\generated_images\results_problem_21,,,,C:\Users\subject\Desktop\SVRT Experiments\SVRT Experiment 3\svrt_images\generated_images\results_problem_21\sample_0_0008.png,,,,,,,,,,,,,,,,,,,,0,3,3,3,0,8,8,8,,,,,,,,,,,,,,j,21,B,B,6,1,Correct!,2.7412654999643564,377.49033359996974,None,377.49033359996974,None,380.2569466000423,None,,,,,24,001,2023-05-03_10h33.02.690,uncolored_sorted,2021.2.3,59.99210500680098,
C:\Users\subject\Desktop\SVRT Experiments\SVRT Experiment 3\svrt_images\generated_images\results_problem_21,,,,C:\Users\subject\Desktop\SVRT Experiments\SVRT Experiment 3\svrt_images\generated_images\results_problem_21\sample_0_0013.png,,,,,,,,,,,,,,,,,,,,0,3,3,3,0,9,9,9,,,,,,,,,,,,,,j,21,B,B,6,1,Correct!,0.9307285998947918,381.3569422001019,None,381.3569422001019,None,382.3068934001494,None,,,,,24,001,2023-05-03_10h33.02.690,uncolored_sorted,2021.2.3,59.99210500680098,
C:\Users\subject\Desktop\SVRT Experiments\SVRT Experiment 3\svrt_images\generated_images\results_problem_21,,,,C:\Users\subject\Desktop\SVRT Experiments\SVRT Experiment 3\svrt_images\generated_images\results_problem_21\sample_0_0014.png,,,,,,,,,,,,,,,,,,,,0,3,3,3,0,10,10,10,,,,,,,,,,,,,,j,21,B,B,6,1,Correct!,0.5767417000606656,383.406885900069,None,383.406885900069,None,384.0068157000933,None,,,,,24,001,2023-05-03_10h33.02.690,uncolored_sorted,2021.2.3,59.99210500680098,
C:\Users\subject\Desktop\SVRT Experiments\SVRT Experiment 3\svrt_images\generated_images\results_problem_21,,,,C:\Users\subject\Desktop\SVRT Experiments\SVRT Experiment 3\svrt_images\generated_images\results_problem_21\sample_1_0002.png,,,,,,,,,,,,,,,,,,,,0,3,3,3,0,11,11,11,,,,,,,,,,,,,,f,21,A,A,6,1,Correct!,0.6362597001716495,385.1235301999841,None,385.1235301999841,None,385.80683090002276,None,,,,,24,001,2023-05-03_10h33.02.690,uncolored_sorted,2021.2.3,59.99210500680098,
C:\Users\subject\Desktop\SVRT Experiments\SVRT Experiment 3\svrt_images\generated_images\results_problem_21,,,,C:\Users\subject\Desktop\SVRT Experiments\SVRT Experiment 3\svrt_images\generated_images\results_problem_21\sample_1_0012.png,,,,,,,,,,,,,,,,,,,,0,3,3,3,0,12,12,12,,,,,,,,,,,,,,f,21,A,A,6,1,Correct!,0.6514912000857294,386.9401478001382,None,386.9401478001382,None,387.6234740000218,None,,,,,24,001,2023-05-03_10h33.02.690,uncolored_sorted,2021.2.3,59.99210500680098,
C:\Users\subject\Desktop\SVRT Experiments\SVRT Experiment 3\svrt_images\generated_images\results_problem_21,,,,C:\Users\subject\Desktop\SVRT Experiments\SVRT Experiment 3\svrt_images\generated_images\results_problem_21\sample_1_0016.png,,,,,,,,,,,,,,,,,,,,0,3,3,3,0,13,13,13,,,,,,,,,,,,,,j,21,B,A,6,0,Incorrect!,0.5781686999835074,388.7734575001523,None,388.7734575001523,None,389.39010150008835,None,,,,,24,001,2023-05-03_10h33.02.690,uncolored_sorted,2021.2.3,59.99210500680098,
C:\Users\subject\Desktop\SVRT Experiments\SVRT Experiment 3\svrt_images\generated_images\results_problem_21,,,,C:\Users\subject\Desktop\SVRT Experiments\SVRT Experiment 3\svrt_images\generated_images\results_problem_21\sample_0_0009.png,,,,,,,,,,,,,,,,,,,,0,3,3,3,0,14,14,14,,,,,,,,,,,,,,j,21,B,B,6,1,Correct!,0.5395686000119895,390.54007480014116,None,390.54007480014116,None,391.12339369999245,None,,,,,24,001,2023-05-03_10h33.02.690,uncolored_sorted,2021.2.3,59.99210500680098,
C:\Users\subject\Desktop\SVRT Experiments\SVRT Experiment 3\svrt_images\generated_images\results_problem_21,,,,C:\Users\subject\Desktop\SVRT Experiments\SVRT Experiment 3\svrt_images\generated_images\results_problem_21\sample_1_0005.png,,,,,,,,,,,,,,,,,,,,0,3,3,3,0,15,15,15,,,,,,,,,,,,,,f,21,A,A,6,1,Correct!,1.1496870000846684,392.2899764999747,None,392.2899764999747,None,393.4733460000716,None,,,,,24,001,2023-05-03_10h33.02.690,uncolored_sorted,2021.2.3,59.99210500680098,
C:\Users\subject\Desktop\SVRT Experiments\SVRT Experiment 3\svrt_images\generated_images\results_problem_21,,,,C:\Users\subject\Desktop\SVRT Experiments\SVRT Experiment 3\svrt_images\generated_images\results_problem_21\sample_1_0011.png,,,,,,,,,,,,,,,,,,,,0,3,3,3,0,16,16,16,,,,,,,,,,,,,,f,21,A,A,6,1,Correct!,0.9512193000409752,394.65666800015606,None,394.65666800015606,None,395.63996620010585,None,,,,,24,001,2023-05-03_10h33.02.690,uncolored_sorted,2021.2.3,59.99210500680098,
C:\Users\subject\Desktop\SVRT Experiments\SVRT Experiment 3\svrt_images\generated_images\results_problem_21,,,,C:\Users\subject\Desktop\SVRT Experiments\SVRT Experiment 3\svrt_images\generated_images\results_problem_21\sample_0_0011.png,,,,,,,,,,,,,,,,,,,,0,3,3,3,0,17,17,17,,,,,,,,,,,,,,f,21,A,B,6,0,Incorrect!,0.5917384999338537,396.8399527000729,None,396.8399527000729,None,397.48990470007993,None,,,,,24,001,2023-05-03_10h33.02.690,uncolored_sorted,2021.2.3,59.99210500680098,
C:\Users\subject\Desktop\SVRT Experiments\SVRT Experiment 3\svrt_images\generated_images\results_problem_21,,,,C:\Users\subject\Desktop\SVRT Experiments\SVRT Experiment 3\svrt_images\generated_images\results_problem_21\sample_0_0003.png,,,,,,,,,,,,,,,,,,,,0,3,3,3,0,18,18,18,,,,,,,,,,,,,,j,21,B,B,6,1,Correct!,0.7089378999080509,398.7066937000491,None,398.7066937000491,None,399.4732294001151,None,,,,,24,001,2023-05-03_10h33.02.690,uncolored_sorted,2021.2.3,59.99210500680098,
C:\Users\subject\Desktop\SVRT Experiments\SVRT Experiment 3\svrt_images\generated_images\results_problem_21,,,,C:\Users\subject\Desktop\SVRT Experiments\SVRT Experiment 3\svrt_images\generated_images\results_problem_21\sample_1_0013.png,,,,,,,,,,,,,,,,,,,,0,3,3,3,0,19,19,19,,,,,,,,,,,,,,j,21,B,A,6,0,Incorrect!,0.5258585999254137,400.68985760002397,None,400.68985760002397,None,401.25650890008546,None,,,,,24,001,2023-05-03_10h33.02.690,uncolored_sorted,2021.2.3,59.99210500680098,
C:\Users\subject\Desktop\SVRT Experiments\SVRT Experiment 3\svrt_images\generated_images\results_problem_21,,,,C:\Users\subject\Desktop\SVRT Experiments\SVRT Experiment 3\svrt_images\generated_images\results_problem_21\sample_1_0010.png,,,,,,,,,,,,,,,,,,,,0,3,3,3,0,20,20,20,,,,,,,,,,,,,,f,21,A,A,6,1,Correct!,0.6297071999870241,402.4898936999962,None,402.4898936999962,None,403.15646830014884,None,,,,,24,001,2023-05-03_10h33.02.690,uncolored_sorted,2021.2.3,59.99210500680098,
C:\Users\subject\Desktop\SVRT Experiments\SVRT Experiment 3\svrt_images\generated_images\results_problem_21,,,,C:\Users\subject\Desktop\SVRT Experiments\SVRT Experiment 3\svrt_images\generated_images\results_problem_21\sample_0_0004.png,,,,,,,,,,,,,,,,,,,,0,3,3,3,0,21,21,21,,,,,,,,,,,,,,f,21,A,B,6,0,Incorrect!,0.4811287000775337,404.40646390011534,None,404.40646390011534,None,404.9231233999599,None,,,,,24,001,2023-05-03_10h33.02.690,uncolored_sorted,2021.2.3,59.99210500680098,
C:\Users\subject\Desktop\SVRT Experiments\SVRT Experiment 3\svrt_images\generated_images\results_problem_21,,,,C:\Users\subject\Desktop\SVRT Experiments\SVRT Experiment 3\svrt_images\generated_images\results_problem_21\sample_1_0009.png,,,,,,,,,,,,,,,,,,,,0,3,3,3,0,22,22,22,,,,,,,,,,,,,,f,21,A,A,6,1,Correct!,0.5299113998189569,406.18978550005704,None,406.18978550005704,None,406.7397113000043,None,,,,,24,001,2023-05-03_10h33.02.690,uncolored_sorted,2021.2.3,59.99210500680098,
C:\Users\subject\Desktop\SVRT Experiments\SVRT Experiment 3\svrt_images\generated_images\results_problem_21,,,,C:\Users\subject\Desktop\SVRT Experiments\SVRT Experiment 3\svrt_images\generated_images\results_problem_21\sample_1_0008.png,,,,,,,,,,,,,,,,,,,,0,3,3,3,0,23,23,23,,,,,,,,,,,,,,f,21,A,A,6,1,Correct!,0.6566265001893044,408.0230666999705,None,408.0230666999705,None,408.70639830012806,None,,,,,24,001,2023-05-03_10h33.02.690,uncolored_sorted,2021.2.3,59.99210500680098,
C:\Users\subject\Desktop\SVRT Experiments\SVRT Experiment 3\svrt_images\generated_images\results_problem_21,,,,C:\Users\subject\Desktop\SVRT Experiments\SVRT Experiment 3\svrt_images\generated_images\results_problem_21\sample_1_0003.png,,,,,,,,,,,,,,,,,,,,0,3,3,3,0,24,24,24,,,,,,,,,,,,,,f,21,A,A,6,1,Correct!,0.5852250999305397,410.00633969996125,None,410.00633969996125,None,410.62293060007505,None,,,,,24,001,2023-05-03_10h33.02.690,uncolored_sorted,2021.2.3,59.99210500680098,
C:\Users\subject\Desktop\SVRT Experiments\SVRT Experiment 3\svrt_images\generated_images\results_problem_21,,,,C:\Users\subject\Desktop\SVRT Experiments\SVRT Experiment 3\svrt_images\generated_images\results_problem_21\sample_1_0004.png,,,,,,,,,,,,,,,,,,,,0,3,3,3,0,25,25,25,,,,,,,,,,,,,,j,21,B,A,6,0,Incorrect!,0.7961124998982996,411.93958829995245,None,411.93958829995245,None,412.772949000122,None,,,,,24,001,2023-05-03_10h33.02.690,uncolored_sorted,2021.2.3,59.99210500680098,
C:\Users\subject\Desktop\SVRT Experiments\SVRT Experiment 3\svrt_images\generated_images\results_problem_21,,,,C:\Users\subject\Desktop\SVRT Experiments\SVRT Experiment 3\svrt_images\generated_images\results_problem_21\sample_0_0001.png,,,,,,,,,,,,,,,,,,,,0,3,3,3,0,26,26,26,,,,,,,,,,,,,,j,21,B,B,6,1,Correct!,0.47749219997785985,414.1062577001285,None,414.1062577001285,None,414.62291790009476,None,,,,,24,001,2023-05-03_10h33.02.690,uncolored_sorted,2021.2.3,59.99210500680098,
C:\Users\subject\Desktop\SVRT Experiments\SVRT Experiment 3\svrt_images\generated_images\results_problem_21,,,,C:\Users\subject\Desktop\SVRT Experiments\SVRT Experiment 3\svrt_images\generated_images\results_problem_21\sample_0_0015.png,,,,,,,,,,,,,,,,,,,,0,3,3,3,0,27,27,27,,,,,,,,,,,,,,j,21,B,B,6,1,Correct!,0.5875343000516295,415.95624770014547,None,415.95624770014547,None,416.6395418001339,None,,,,,24,001,2023-05-03_10h33.02.690,uncolored_sorted,2021.2.3,59.99210500680098,
C:\Users\subject\Desktop\SVRT Experiments\SVRT Experiment 3\svrt_images\generated_images\results_problem_21,,,,C:\Users\subject\Desktop\SVRT Experiments\SVRT Experiment 3\svrt_images\generated_images\results_problem_21\sample_0_0002.png,,,,,,,,,,,,,,,,,,,,0,3,3,3,0,28,28,28,,,,,,,,,,,,,,f,21,A,B,6,0,Incorrect!,0.6975837999489158,418.00613380013965,None,418.00613380013965,None,418.77284730016254,None,,,,,24,001,2023-05-03_10h33.02.690,uncolored_sorted,2021.2.3,59.99210500680098,
C:\Users\subject\Desktop\SVRT Experiments\SVRT Experiment 3\svrt_images\generated_images\results_problem_21,,,,C:\Users\subject\Desktop\SVRT Experiments\SVRT Experiment 3\svrt_images\generated_images\results_problem_21\sample_1_0006.png,,,,,,,,,,,,,,,,,,,,0,3,3,3,0,29,29,29,,,,,,,,,,,,,,f,21,A,A,6,1,Correct!,1.3554745998699218,420.15616320003755,None,420.15616320003755,None,421.57272940012626,None,,,,,24,001,2023-05-03_10h33.02.690,uncolored_sorted,2021.2.3,59.99210500680098,
C:\Users\subject\Desktop\SVRT Experiments\SVRT Experiment 3\svrt_images\generated_images\results_problem_21,,,,C:\Users\subject\Desktop\SVRT Experiments\SVRT Experiment 3\svrt_images\generated_images\results_problem_21\sample_0_0007.png,,,,,,,,,,,,,,,,,,,,0,3,3,3,0,30,30,30,,,,,,,,,,,,,,j,21,B,B,6,1,Correct!,0.47547119995579123,422.95630720001645,None,422.95630720001645,None,423.47272099996917,None,,,,,24,001,2023-05-03_10h33.02.690,uncolored_sorted,2021.2.3,59.99210500680098,
C:\Users\subject\Desktop\SVRT Experiments\SVRT Experiment 3\svrt_images\generated_images\results_problem_21,,,,C:\Users\subject\Desktop\SVRT Experiments\SVRT Experiment 3\svrt_images\generated_images\results_problem_21\sample_0_0016.png,,,,,,,,,,,,,,,,,,,,0,3,3,3,0,31,31,31,,,,,,,,,,,,,,f,21,A,B,6,0,Incorrect!,0.48694490012712777,424.8727393001318,None,424.8727393001318,None,425.38936719996855,None,,,,,24,001,2023-05-03_10h33.02.690,uncolored_sorted,2021.2.3,59.99210500680098,
C:\Users\subject\Desktop\SVRT Experiments\SVRT Experiment 3\svrt_images\generated_images\results_problem_21,,,,C:\Users\subject\Desktop\SVRT Experiments\SVRT Experiment 3\svrt_images\generated_images\results_problem_21\sample_0_0010.png,,,,,,,,,,,,,,,,,,,,0,3,3,3,0,32,32,32,,,,,,,,,,,,,,j,21,B,B,6,1,Correct!,2.6968973998446018,426.82271780003794,None,426.82271780003794,None,429.6392858000472,None,,,,,24,001,2023-05-03_10h33.02.690,uncolored_sorted,2021.2.3,59.99210500680098,
C:\Users\subject\Desktop\SVRT Experiments\SVRT Experiment 3\svrt_images\generated_images\results_problem_21,,,,C:\Users\subject\Desktop\SVRT Experiments\SVRT Experiment 3\svrt_images\generated_images\results_problem_21\sample_1_0014.png,,,,,,,,,,,,,,,,,,,,0,3,3,3,0,33,33,33,,,,,,,,,,,,,,j,21,B,A,6,0,Incorrect!,0.6310781000647694,431.0726185000967,None,431.0726185000967,None,431.7892450001091,None,,,,,24,001,2023-05-03_10h33.02.690,uncolored_sorted,2021.2.3,59.99210500680098,
C:\Users\subject\Desktop\SVRT Experiments\SVRT Experiment 3\svrt_images\generated_images\results_problem_21,,,,,,,,,,,,,,,,,,,,,,,,0,3,3,3,,,,,,,,,,,,,,,,,,,,,,,,,,,,,,,,432.7892051001545,432.7892051001545,space,0.7224044997710735,24,001,2023-05-03_10h33.02.690,uncolored_sorted,2021.2.3,59.99210500680098,
C:\Users\subject\Desktop\SVRT Experiments\SVRT Experiment 3\svrt_images\generated_images\results_problem_2,,,,,C:\Users\subject\Desktop\SVRT Experiments\SVRT Experiment 3\svrt_images\generated_images\results_problem_2\sample_0_0006.png,,,,,,,,,,,,,,,,,,,0,4,4,4,0,0,0,0,,,,,,,,,,,,,,f,2,A,B,6,0,Incorrect!,0.8763883002102375,433.53921550000086,None,433.53921550000086,None,434.43922950001433,None,,,,,24,001,2023-05-03_10h33.02.690,uncolored_sorted,2021.2.3,59.99210500680098,
C:\Users\subject\Desktop\SVRT Experiments\SVRT Experiment 3\svrt_images\generated_images\results_problem_2,,,,,C:\Users\subject\Desktop\SVRT Experiments\SVRT Experiment 3\svrt_images\generated_images\results_problem_2\sample_1_0007.png,,,,,,,,,,,,,,,,,,,0,4,4,4,0,1,1,1,,,,,,,,,,,,,,f,2,A,A,6,1,Correct!,0.4958245998714119,435.4558822000399,None,435.4558822000399,None,435.9725266001187,None,,,,,24,001,2023-05-03_10h33.02.690,uncolored_sorted,2021.2.3,59.99210500680098,
C:\Users\subject\Desktop\SVRT Experiments\SVRT Experiment 3\svrt_images\generated_images\results_problem_2,,,,,C:\Users\subject\Desktop\SVRT Experiments\SVRT Experiment 3\svrt_images\generated_images\results_problem_2\sample_0_0013.png,,,,,,,,,,,,,,,,,,,0,4,4,4,0,2,2,2,,,,,,,,,,,,,,j,2,B,B,6,1,Correct!,1.9944941999856383,436.9891663000453,None,436.9891663000453,None,439.0057502000127,None,,,,,24,001,2023-05-03_10h33.02.690,uncolored_sorted,2021.2.3,59.99210500680098,
C:\Users\subject\Desktop\SVRT Experiments\SVRT Experiment 3\svrt_images\generated_images\results_problem_2,,,,,C:\Users\subject\Desktop\SVRT Experiments\SVRT Experiment 3\svrt_images\generated_images\results_problem_2\sample_1_0014.png,,,,,,,,,,,,,,,,,,,0,4,4,4,0,3,3,3,,,,,,,,,,,,,,f,2,A,A,6,1,Correct!,0.8806865999940783,440.0391019999515,None,440.0391019999515,None,440.93907209997997,None,,,,,24,001,2023-05-03_10h33.02.690,uncolored_sorted,2021.2.3,59.99210500680098,
C:\Users\subject\Desktop\SVRT Experiments\SVRT Experiment 3\svrt_images\generated_images\results_problem_2,,,,,C:\Users\subject\Desktop\SVRT Experiments\SVRT Experiment 3\svrt_images\generated_images\results_problem_2\sample_1_0011.png,,,,,,,,,,,,,,,,,,,0,4,4,4,0,4,4,4,,,,,,,,,,,,,,j,2,B,A,6,0,Incorrect!,0.6266284000594169,441.989005099982,None,441.989005099982,None,442.63903270009905,None,,,,,24,001,2023-05-03_10h33.02.690,uncolored_sorted,2021.2.3,59.99210500680098,
C:\Users\subject\Desktop\SVRT Experiments\SVRT Experiment 3\svrt_images\generated_images\results_problem_2,,,,,C:\Users\subject\Desktop\SVRT Experiments\SVRT Experiment 3\svrt_images\generated_images\results_problem_2\sample_1_0010.png,,,,,,,,,,,,,,,,,,,0,4,4,4,0,5,5,5,,,,,,,,,,,,,,j,2,B,A,6,0,Incorrect!,0.5187289998866618,443.6890545000788,None,443.6890545000788,None,444.2390072999988,None,,,,,24,001,2023-05-03_10h33.02.690,uncolored_sorted,2021.2.3,59.99210500680098,
C:\Users\subject\Desktop\SVRT Experiments\SVRT Experiment 3\svrt_images\generated_images\results_problem_2,,,,,C:\Users\subject\Desktop\SVRT Experiments\SVRT Experiment 3\svrt_images\generated_images\results_problem_2\sample_0_0011.png,,,,,,,,,,,,,,,,,,,0,4,4,4,0,6,6,6,,,,,,,,,,,,,,f,2,A,B,6,0,Incorrect!,0.4931179000996053,445.3066416999791,None,445.3066416999791,None,445.8223205001559,None,,,,,24,001,2023-05-03_10h33.02.690,uncolored_sorted,2021.2.3,59.99210500680098,
C:\Users\subject\Desktop\SVRT Experiments\SVRT Experiment 3\svrt_images\generated_images\results_problem_2,,,,,C:\Users\subject\Desktop\SVRT Experiments\SVRT Experiment 3\svrt_images\generated_images\results_problem_2\sample_1_0005.png,,,,,,,,,,,,,,,,,,,0,4,4,4,0,7,7,7,,,,,,,,,,,,,,f,2,A,A,6,1,Correct!,0.4786662000697106,446.8889717001002,None,446.8889717001002,None,447.3889677999541,None,,,,,24,001,2023-05-03_10h33.02.690,uncolored_sorted,2021.2.3,59.99210500680098,
C:\Users\subject\Desktop\SVRT Experiments\SVRT Experiment 3\svrt_images\generated_images\results_problem_2,,,,,C:\Users\subject\Desktop\SVRT Experiments\SVRT Experiment 3\svrt_images\generated_images\results_problem_2\sample_1_0006.png,,,,,,,,,,,,,,,,,,,0,4,4,4,0,8,8,8,,,,,,,,,,,,,,f,2,A,A,6,1,Correct!,4.36738990014419,448.4722674000077,None,448.4722674000077,None,452.8721958999522,None,,,,,24,001,2023-05-03_10h33.02.690,uncolored_sorted,2021.2.3,59.99210500680098,
C:\Users\subject\Desktop\SVRT Experiments\SVRT Experiment 3\svrt_images\generated_images\results_problem_2,,,,,C:\Users\subject\Desktop\SVRT Experiments\SVRT Experiment 3\svrt_images\generated_images\results_problem_2\sample_1_0012.png,,,,,,,,,,,,,,,,,,,0,4,4,4,0,9,9,9,,,,,,,,,,,,,,f,2,A,A,6,1,Correct!,1.5474001998081803,453.97216300014406,None,453.97216300014406,None,455.5387887000106,None,,,,,24,001,2023-05-03_10h33.02.690,uncolored_sorted,2021.2.3,59.99210500680098,
C:\Users\subject\Desktop\SVRT Experiments\SVRT Experiment 3\svrt_images\generated_images\results_problem_2,,,,,C:\Users\subject\Desktop\SVRT Experiments\SVRT Experiment 3\svrt_images\generated_images\results_problem_2\sample_1_0009.png,,,,,,,,,,,,,,,,,,,0,4,4,4,0,10,10,10,,,,,,,,,,,,,,f,2,A,A,6,1,Correct!,1.5683436000254005,456.65544400014915,None,456.65544400014915,None,458.2554057999514,None,,,,,24,001,2023-05-03_10h33.02.690,uncolored_sorted,2021.2.3,59.99210500680098,
C:\Users\subject\Desktop\SVRT Experiments\SVRT Experiment 3\svrt_images\generated_images\results_problem_2,,,,,C:\Users\subject\Desktop\SVRT Experiments\SVRT Experiment 3\svrt_images\generated_images\results_problem_2\sample_0_0002.png,,,,,,,,,,,,,,,,,,,0,4,4,4,0,11,11,11,,,,,,,,,,,,,,j,2,B,B,6,1,Correct!,0.7637038000393659,459.3720464000944,None,459.3720464000944,None,460.15537489997223,None,,,,,24,001,2023-05-03_10h33.02.690,uncolored_sorted,2021.2.3,59.99210500680098,
C:\Users\subject\Desktop\SVRT Experiments\SVRT Experiment 3\svrt_images\generated_images\results_problem_2,,,,,C:\Users\subject\Desktop\SVRT Experiments\SVRT Experiment 3\svrt_images\generated_images\results_problem_2\sample_0_0014.png,,,,,,,,,,,,,,,,,,,0,4,4,4,0,12,12,12,,,,,,,,,,,,,,j,2,B,B,6,1,Correct!,0.5349926000926644,461.28867919999175,None,461.28867919999175,None,461.8720210001338,None,,,,,24,001,2023-05-03_10h33.02.690,uncolored_sorted,2021.2.3,59.99210500680098,
C:\Users\subject\Desktop\SVRT Experiments\SVRT Experiment 3\svrt_images\generated_images\results_problem_2,,,,,C:\Users\subject\Desktop\SVRT Experiments\SVRT Experiment 3\svrt_images\generated_images\results_problem_2\sample_0_0015.png,,,,,,,,,,,,,,,,,,,0,4,4,4,0,13,13,13,,,,,,,,,,,,,,j,2,B,B,6,1,Correct!,1.185639000032097,463.02198750013486,None,463.02198750013486,None,464.23859270010144,None,,,,,24,001,2023-05-03_10h33.02.690,uncolored_sorted,2021.2.3,59.99210500680098,
C:\Users\subject\Desktop\SVRT Experiments\SVRT Experiment 3\svrt_images\generated_images\results_problem_2,,,,,C:\Users\subject\Desktop\SVRT Experiments\SVRT Experiment 3\svrt_images\generated_images\results_problem_2\sample_0_0001.png,,,,,,,,,,,,,,,,,,,0,4,4,4,0,14,14,14,,,,,,,,,,,,,,,,,,,,,,,,,,,,465.23860809998587,465.23860809998587,space,2.3610711998771876,24,001,2023-05-03_10h33.02.690,uncolored_sorted,2021.2.3,59.99210500680098,
C:\Users\subject\Desktop\SVRT Experiments\SVRT Experiment 3\svrt_images\generated_images\results_problem_1,,,,,C:\Users\subject\Desktop\SVRT Experiments\SVRT Experiment 3\svrt_images\generated_images\results_problem_2\sample_0_0001.png,C:\Users\subject\Desktop\SVRT Experiments\SVRT Experiment 3\svrt_images\generated_images\results_problem_1\sample_1_0014.png,,,,,,,,,,,,,,,,,,0,5,5,5,0,0,0,0,,,,,,,,,,,,,,f,1,A,A,6,1,Correct!,2.857787299901247,467.6218697000295,None,467.6218697000295,None,470.50517160003074,None,,,,,24,001,2023-05-03_10h33.02.690,uncolored_sorted,2021.2.3,59.99210500680098,
C:\Users\subject\Desktop\SVRT Experiments\SVRT Experiment 3\svrt_images\generated_images\results_problem_1,,,,,C:\Users\subject\Desktop\SVRT Experiments\SVRT Experiment 3\svrt_images\generated_images\results_problem_2\sample_0_0001.png,C:\Users\subject\Desktop\SVRT Experiments\SVRT Experiment 3\svrt_images\generated_images\results_problem_1\sample_0_0011.png,,,,,,,,,,,,,,,,,,0,5,5,5,0,1,1,1,,,,,,,,,,,,,,j,1,B,B,6,1,Correct!,1.5818427000194788,471.5218171000015,None,471.5218171000015,None,473.12173140002415,None,,,,,24,001,2023-05-03_10h33.02.690,uncolored_sorted,2021.2.3,59.99210500680098,
C:\Users\subject\Desktop\SVRT Experiments\SVRT Experiment 3\svrt_images\generated_images\results_problem_1,,,,,C:\Users\subject\Desktop\SVRT Experiments\SVRT Experiment 3\svrt_images\generated_images\results_problem_2\sample_0_0001.png,C:\Users\subject\Desktop\SVRT Experiments\SVRT Experiment 3\svrt_images\generated_images\results_problem_1\sample_1_0000.png,,,,,,,,,,,,,,,,,,0,5,5,5,0,2,2,2,,,,,,,,,,,,,,f,1,A,A,6,1,Correct!,1.3170789000578225,474.13845110009424,None,474.13845110009424,None,475.48840559995733,None,,,,,24,001,2023-05-03_10h33.02.690,uncolored_sorted,2021.2.3,59.99210500680098,
C:\Users\subject\Desktop\SVRT Experiments\SVRT Experiment 3\svrt_images\generated_images\results_problem_1,,,,,C:\Users\subject\Desktop\SVRT Experiments\SVRT Experiment 3\svrt_images\generated_images\results_problem_2\sample_0_0001.png,C:\Users\subject\Desktop\SVRT Experiments\SVRT Experiment 3\svrt_images\generated_images\results_problem_1\sample_0_0008.png,,,,,,,,,,,,,,,,,,0,5,5,5,0,3,3,3,,,,,,,,,,,,,,j,1,B,B,6,1,Correct!,1.6140287001617253,476.52172590000555,None,476.52172590000555,None,478.1551080001518,None,,,,,24,001,2023-05-03_10h33.02.690,uncolored_sorted,2021.2.3,59.99210500680098,
C:\Users\subject\Desktop\SVRT Experiments\SVRT Experiment 3\svrt_images\generated_images\results_problem_1,,,,,C:\Users\subject\Desktop\SVRT Experiments\SVRT Experiment 3\svrt_images\generated_images\results_problem_2\sample_0_0001.png,C:\Users\subject\Desktop\SVRT Experiments\SVRT Experiment 3\svrt_images\generated_images\results_problem_1\sample_1_0003.png,,,,,,,,,,,,,,,,,,0,5,5,5,0,4,4,4,,,,,,,,,,,,,,f,1,A,A,6,1,Correct!,0.8906221000943333,479.2050078001339,None,479.2050078001339,None,480.1216490000952,None,,,,,24,001,2023-05-03_10h33.02.690,uncolored_sorted,2021.2.3,59.99210500680098,
C:\Users\subject\Desktop\SVRT Experiments\SVRT Experiment 3\svrt_images\generated_images\results_problem_1,,,,,C:\Users\subject\Desktop\SVRT Experiments\SVRT Experiment 3\svrt_images\generated_images\results_problem_2\sample_0_0001.png,C:\Users\subject\Desktop\SVRT Experiments\SVRT Experiment 3\svrt_images\generated_images\results_problem_1\sample_0_0013.png,,,,,,,,,,,,,,,,,,0,5,5,5,0,5,5,5,,,,,,,,,,,,,,j,1,B,B,6,1,Correct!,1.4039881997741759,481.17164180008695,None,481.17164180008695,None,482.6048725999426,None,,,,,24,001,2023-05-03_10h33.02.690,uncolored_sorted,2021.2.3,59.99210500680098,
C:\Users\subject\Desktop\SVRT Experiments\SVRT Experiment 3\svrt_images\generated_images\results_problem_1,,,,,C:\Users\subject\Desktop\SVRT Experiments\SVRT Experiment 3\svrt_images\generated_images\results_problem_2\sample_0_0001.png,C:\Users\subject\Desktop\SVRT Experiments\SVRT Experiment 3\svrt_images\generated_images\results_problem_1\sample_0_0004.png,,,,,,,,,,,,,,,,,,0,5,5,5,0,6,6,6,,,,,,,,,,,,,,j,1,B,B,6,1,Correct!,0.8322306999471039,483.67159160017036,None,483.67159160017036,None,484.52156060002744,None,,,,,24,001,2023-05-03_10h33.02.690,uncolored_sorted,2021.2.3,59.99210500680098,
C:\Users\subject\Desktop\SVRT Experiments\SVRT Experiment 3\svrt_images\generated_images\results_problem_1,,,,,C:\Users\subject\Desktop\SVRT Experiments\SVRT Experiment 3\svrt_images\generated_images\results_problem_2\sample_0_0001.png,C:\Users\subject\Desktop\SVRT Experiments\SVRT Experiment 3\svrt_images\generated_images\results_problem_1\sample_0_0003.png,,,,,,,,,,,,,,,,,,0,5,5,5,0,7,7,7,,,,,,,,,,,,,,,,,,,,,,,,,,,,485.52157610002905,485.52157610002905,space,1.8780575999990106,24,001,2023-05-03_10h33.02.690,uncolored_sorted,2021.2.3,59.99210500680098,
C:\Users\subject\Desktop\SVRT Experiments\SVRT Experiment 3\svrt_images\generated_images\results_problem_11,,,,,C:\Users\subject\Desktop\SVRT Experiments\SVRT Experiment 3\svrt_images\generated_images\results_problem_2\sample_0_0001.png,C:\Users\subject\Desktop\SVRT Experiments\SVRT Experiment 3\svrt_images\generated_images\results_problem_1\sample_0_0003.png,C:\Users\subject\Desktop\SVRT Experiments\SVRT Experiment 3\svrt_images\generated_images\results_problem_11\sample_1_0016.png,,,,,,,,,,,,,,,,,0,6,6,6,0,0,0,0,,,,,,,,,,,,,,f,11,A,A,6,1,Correct!,1.7380536999553442,487.4214888000861,None,487.4214888000861,None,489.1881452000234,None,,,,,24,001,2023-05-03_10h33.02.690,uncolored_sorted,2021.2.3,59.99210500680098,
C:\Users\subject\Desktop\SVRT Experiments\SVRT Experiment 3\svrt_images\generated_images\results_problem_11,,,,,C:\Users\subject\Desktop\SVRT Experiments\SVRT Experiment 3\svrt_images\generated_images\results_problem_2\sample_0_0001.png,C:\Users\subject\Desktop\SVRT Experiments\SVRT Experiment 3\svrt_images\generated_images\results_problem_1\sample_0_0003.png,C:\Users\subject\Desktop\SVRT Experiments\SVRT Experiment 3\svrt_images\generated_images\results_problem_11\sample_1_0008.png,,,,,,,,,,,,,,,,,0,6,6,6,0,1,1,1,,,,,,,,,,,,,,j,11,B,A,6,0,Incorrect!,2.8030400001443923,490.2047429000959,None,490.2047429000959,None,493.0380814000964,None,,,,,24,001,2023-05-03_10h33.02.690,uncolored_sorted,2021.2.3,59.99210500680098,
C:\Users\subject\Desktop\SVRT Experiments\SVRT Experiment 3\svrt_images\generated_images\results_problem_11,,,,,C:\Users\subject\Desktop\SVRT Experiments\SVRT Experiment 3\svrt_images\generated_images\results_problem_2\sample_0_0001.png,C:\Users\subject\Desktop\SVRT Experiments\SVRT Experiment 3\svrt_images\generated_images\results_problem_1\sample_0_0003.png,C:\Users\subject\Desktop\SVRT Experiments\SVRT Experiment 3\svrt_images\generated_images\results_problem_11\sample_1_0001.png,,,,,,,,,,,,,,,,,0,6,6,6,0,2,2,2,,,,,,,,,,,,,,f,11,A,A,6,1,Correct!,1.3681679998990148,494.07138640014455,None,494.07138640014455,None,495.4713495001197,None,,,,,24,001,2023-05-03_10h33.02.690,uncolored_sorted,2021.2.3,59.99210500680098,
C:\Users\subject\Desktop\SVRT Experiments\SVRT Experiment 3\svrt_images\generated_images\results_problem_11,,,,,C:\Users\subject\Desktop\SVRT Experiments\SVRT Experiment 3\svrt_images\generated_images\results_problem_2\sample_0_0001.png,C:\Users\subject\Desktop\SVRT Experiments\SVRT Experiment 3\svrt_images\generated_images\results_problem_1\sample_0_0003.png,C:\Users\subject\Desktop\SVRT Experiments\SVRT Experiment 3\svrt_images\generated_images\results_problem_11\sample_0_0000.png,,,,,,,,,,,,,,,,,0,6,6,6,0,3,3,3,,,,,,,,,,,,,,j,11,B,B,6,1,Correct!,1.055002000182867,496.5046616999898,None,496.5046616999898,None,497.58798080007546,None,,,,,24,001,2023-05-03_10h33.02.690,uncolored_sorted,2021.2.3,59.99210500680098,
C:\Users\subject\Desktop\SVRT Experiments\SVRT Experiment 3\svrt_images\generated_images\results_problem_11,,,,,C:\Users\subject\Desktop\SVRT Experiments\SVRT Experiment 3\svrt_images\generated_images\results_problem_2\sample_0_0001.png,C:\Users\subject\Desktop\SVRT Experiments\SVRT Experiment 3\svrt_images\generated_images\results_problem_1\sample_0_0003.png,C:\Users\subject\Desktop\SVRT Experiments\SVRT Experiment 3\svrt_images\generated_images\results_problem_11\sample_1_0005.png,,,,,,,,,,,,,,,,,0,6,6,6,0,4,4,4,,,,,,,,,,,,,,f,11,A,A,6,1,Correct!,2.1536241001449525,498.6379661001265,None,498.6379661001265,None,500.82125110016204,None,,,,,24,001,2023-05-03_10h33.02.690,uncolored_sorted,2021.2.3,59.99210500680098,
C:\Users\subject\Desktop\SVRT Experiments\SVRT Experiment 3\svrt_images\generated_images\results_problem_11,,,,,C:\Users\subject\Desktop\SVRT Experiments\SVRT Experiment 3\svrt_images\generated_images\results_problem_2\sample_0_0001.png,C:\Users\subject\Desktop\SVRT Experiments\SVRT Experiment 3\svrt_images\generated_images\results_problem_1\sample_0_0003.png,C:\Users\subject\Desktop\SVRT Experiments\SVRT Experiment 3\svrt_images\generated_images\results_problem_11\sample_0_0015.png,,,,,,,,,,,,,,,,,0,6,6,6,0,5,5,5,,,,,,,,,,,,,,j,11,B,B,6,1,Correct!,0.5677832998335361,501.887896399945,None,501.887896399945,None,502.48789380001836,None,,,,,24,001,2023-05-03_10h33.02.690,uncolored_sorted,2021.2.3,59.99210500680098,
C:\Users\subject\Desktop\SVRT Experiments\SVRT Experiment 3\svrt_images\generated_images\results_problem_11,,,,,C:\Users\subject\Desktop\SVRT Experiments\SVRT Experiment 3\svrt_images\generated_images\results_problem_2\sample_0_0001.png,C:\Users\subject\Desktop\SVRT Experiments\SVRT Experiment 3\svrt_images\generated_images\results_problem_1\sample_0_0003.png,C:\Users\subject\Desktop\SVRT Experiments\SVRT Experiment 3\svrt_images\generated_images\results_problem_11\sample_0_0002.png,,,,,,,,,,,,,,,,,0,6,6,6,0,6,6,6,,,,,,,,,,,,,,j,11,B,B,6,1,Correct!,0.43709230003878474,503.55453640013,None,503.55453640013,None,504.02119060000405,None,,,,,24,001,2023-05-03_10h33.02.690,uncolored_sorted,2021.2.3,59.99210500680098,
C:\Users\subject\Desktop\SVRT Experiments\SVRT Experiment 3\svrt_images\generated_images\results_problem_11,,,,,C:\Users\subject\Desktop\SVRT Experiments\SVRT Experiment 3\svrt_images\generated_images\results_problem_2\sample_0_0001.png,C:\Users\subject\Desktop\SVRT Experiments\SVRT Experiment 3\svrt_images\generated_images\results_problem_1\sample_0_0003.png,C:\Users\subject\Desktop\SVRT Experiments\SVRT Experiment 3\svrt_images\generated_images\results_problem_11\sample_0_0016.png,,,,,,,,,,,,,,,,,0,6,6,6,0,7,7,7,,,,,,,,,,,,,,j,11,B,B,6,1,Correct!,0.5191614998038858,505.1045050001703,None,505.1045050001703,None,505.6544840999413,None,,,,,24,001,2023-05-03_10h33.02.690,uncolored_sorted,2021.2.3,59.99210500680098,
C:\Users\subject\Desktop\SVRT Experiments\SVRT Experiment 3\svrt_images\generated_images\results_problem_11,,,,,C:\Users\subject\Desktop\SVRT Experiments\SVRT Experiment 3\svrt_images\generated_images\results_problem_2\sample_0_0001.png,C:\Users\subject\Desktop\SVRT Experiments\SVRT Experiment 3\svrt_images\generated_images\results_problem_1\sample_0_0003.png,C:\Users\subject\Desktop\SVRT Experiments\SVRT Experiment 3\svrt_images\generated_images\results_problem_11\sample_1_0013.png,,,,,,,,,,,,,,,,,0,6,6,6,0,8,8,8,,,,,,,,,,,,,,f,11,A,A,6,1,Correct!,0.9258326999843121,506.7377847000025,None,506.7377847000025,None,507.6877321000211,None,,,,,24,001,2023-05-03_10h33.02.690,uncolored_sorted,2021.2.3,59.99210500680098,
C:\Users\subject\Desktop\SVRT Experiments\SVRT Experiment 3\svrt_images\generated_images\results_problem_11,,,,,C:\Users\subject\Desktop\SVRT Experiments\SVRT Experiment 3\svrt_images\generated_images\results_problem_2\sample_0_0001.png,C:\Users\subject\Desktop\SVRT Experiments\SVRT Experiment 3\svrt_images\generated_images\results_problem_1\sample_0_0003.png,C:\Users\subject\Desktop\SVRT Experiments\SVRT Experiment 3\svrt_images\generated_images\results_problem_11\sample_0_0011.png,,,,,,,,,,,,,,,,,0,6,6,6,0,9,9,9,,,,,,,,,,,,,,,,,,,,,,,,,,,,508.6877578999847,508.6877578999847,space,1.6478687000926584,24,001,2023-05-03_10h33.02.690,uncolored_sorted,2021.2.3,59.99210500680098,
C:\Users\subject\Desktop\SVRT Experiments\SVRT Experiment 3\svrt_images\generated_images\results_problem_20,,,,,C:\Users\subject\Desktop\SVRT Experiments\SVRT Experiment 3\svrt_images\generated_images\results_problem_2\sample_0_0001.png,C:\Users\subject\Desktop\SVRT Experiments\SVRT Experiment 3\svrt_images\generated_images\results_problem_1\sample_0_0003.png,C:\Users\subject\Desktop\SVRT Experiments\SVRT Experiment 3\svrt_images\generated_images\results_problem_11\sample_0_0011.png,C:\Users\subject\Desktop\SVRT Experiments\SVRT Experiment 3\svrt_images\generated_images\results_problem_20\sample_0_0004.png,,,,,,,,,,,,,,,,0,7,7,7,0,0,0,0,,,,,,,,,,,,,,f,20,A,B,6,0,Incorrect!,3.5572319999337196,510.35441260016523,None,510.35441260016523,None,513.9376648999751,None,,,,,24,001,2023-05-03_10h33.02.690,uncolored_sorted,2021.2.3,59.99210500680098,
C:\Users\subject\Desktop\SVRT Experiments\SVRT Experiment 3\svrt_images\generated_images\results_problem_20,,,,,C:\Users\subject\Desktop\SVRT Experiments\SVRT Experiment 3\svrt_images\generated_images\results_problem_2\sample_0_0001.png,C:\Users\subject\Desktop\SVRT Experiments\SVRT Experiment 3\svrt_images\generated_images\results_problem_1\sample_0_0003.png,C:\Users\subject\Desktop\SVRT Experiments\SVRT Experiment 3\svrt_images\generated_images\results_problem_11\sample_0_0011.png,C:\Users\subject\Desktop\SVRT Experiments\SVRT Experiment 3\svrt_images\generated_images\results_problem_20\sample_0_0005.png,,,,,,,,,,,,,,,,0,7,7,7,0,1,1,1,,,,,,,,,,,,,,j,20,B,B,6,1,Correct!,0.725217399885878,514.9543471001089,None,514.9543471001089,None,515.7043276999611,None,,,,,24,001,2023-05-03_10h33.02.690,uncolored_sorted,2021.2.3,59.99210500680098,
C:\Users\subject\Desktop\SVRT Experiments\SVRT Experiment 3\svrt_images\generated_images\results_problem_20,,,,,C:\Users\subject\Desktop\SVRT Experiments\SVRT Experiment 3\svrt_images\generated_images\results_problem_2\sample_0_0001.png,C:\Users\subject\Desktop\SVRT Experiments\SVRT Experiment 3\svrt_images\generated_images\results_problem_1\sample_0_0003.png,C:\Users\subject\Desktop\SVRT Experiments\SVRT Experiment 3\svrt_images\generated_images\results_problem_11\sample_0_0011.png,C:\Users\subject\Desktop\SVRT Experiments\SVRT Experiment 3\svrt_images\generated_images\results_problem_20\sample_1_0016.png,,,,,,,,,,,,,,,,0,7,7,7,0,2,2,2,,,,,,,,,,,,,,f,20,A,A,6,1,Correct!,1.135024999966845,516.7209475999698,None,516.7209475999698,None,517.8875847000163,None,,,,,24,001,2023-05-03_10h33.02.690,uncolored_sorted,2021.2.3,59.99210500680098,
C:\Users\subject\Desktop\SVRT Experiments\SVRT Experiment 3\svrt_images\generated_images\results_problem_20,,,,,C:\Users\subject\Desktop\SVRT Experiments\SVRT Experiment 3\svrt_images\generated_images\results_problem_2\sample_0_0001.png,C:\Users\subject\Desktop\SVRT Experiments\SVRT Experiment 3\svrt_images\generated_images\results_problem_1\sample_0_0003.png,C:\Users\subject\Desktop\SVRT Experiments\SVRT Experiment 3\svrt_images\generated_images\results_problem_11\sample_0_0011.png,C:\Users\subject\Desktop\SVRT Experiments\SVRT Experiment 3\svrt_images\generated_images\results_problem_20\sample_1_0000.png,,,,,,,,,,,,,,,,0,7,7,7,0,3,3,3,,,,,,,,,,,,,,f,20,A,A,6,1,Correct!,1.4706433000974357,518.9209021001589,None,518.9209021001589,None,520.4208865000401,None,,,,,24,001,2023-05-03_10h33.02.690,uncolored_sorted,2021.2.3,59.99210500680098,
C:\Users\subject\Desktop\SVRT Experiments\SVRT Experiment 3\svrt_images\generated_images\results_problem_20,,,,,C:\Users\subject\Desktop\SVRT Experiments\SVRT Experiment 3\svrt_images\generated_images\results_problem_2\sample_0_0001.png,C:\Users\subject\Desktop\SVRT Experiments\SVRT Experiment 3\svrt_images\generated_images\results_problem_1\sample_0_0003.png,C:\Users\subject\Desktop\SVRT Experiments\SVRT Experiment 3\svrt_images\generated_images\results_problem_11\sample_0_0011.png,C:\Users\subject\Desktop\SVRT Experiments\SVRT Experiment 3\svrt_images\generated_images\results_problem_20\sample_1_0005.png,,,,,,,,,,,,,,,,0,7,7,7,0,4,4,4,,,,,,,,,,,,,,j,20,B,A,6,0,Incorrect!,1.0095381001010537,521.4541130999569,None,521.4541130999569,None,522.4875000000466,None,,,,,24,001,2023-05-03_10h33.02.690,uncolored_sorted,2021.2.3,59.99210500680098,
C:\Users\subject\Desktop\SVRT Experiments\SVRT Experiment 3\svrt_images\generated_images\results_problem_20,,,,,C:\Users\subject\Desktop\SVRT Experiments\SVRT Experiment 3\svrt_images\generated_images\results_problem_2\sample_0_0001.png,C:\Users\subject\Desktop\SVRT Experiments\SVRT Experiment 3\svrt_images\generated_images\results_problem_1\sample_0_0003.png,C:\Users\subject\Desktop\SVRT Experiments\SVRT Experiment 3\svrt_images\generated_images\results_problem_11\sample_0_0011.png,C:\Users\subject\Desktop\SVRT Experiments\SVRT Experiment 3\svrt_images\generated_images\results_problem_20\sample_0_0000.png,,,,,,,,,,,,,,,,0,7,7,7,0,5,5,5,,,,,,,,,,,,,,f,20,A,B,6,0,Incorrect!,2.8461246001534164,523.537499899976,None,523.537499899976,None,526.4051797001157,None,,,,,24,001,2023-05-03_10h33.02.690,uncolored_sorted,2021.2.3,59.99210500680098,
C:\Users\subject\Desktop\SVRT Experiments\SVRT Experiment 3\svrt_images\generated_images\results_problem_20,,,,,C:\Users\subject\Desktop\SVRT Experiments\SVRT Experiment 3\svrt_images\generated_images\results_problem_2\sample_0_0001.png,C:\Users\subject\Desktop\SVRT Experiments\SVRT Experiment 3\svrt_images\generated_images\results_problem_1\sample_0_0003.png,C:\Users\subject\Desktop\SVRT Experiments\SVRT Experiment 3\svrt_images\generated_images\results_problem_11\sample_0_0011.png,C:\Users\subject\Desktop\SVRT Experiments\SVRT Experiment 3\svrt_images\generated_images\results_problem_20\sample_1_0013.png,,,,,,,,,,,,,,,,0,7,7,7,0,6,6,6,,,,,,,,,,,,,,j,20,B,A,6,0,Incorrect!,1.2401324999518692,527.4874087001663,None,527.4874087001663,None,528.754043500172,None,,,,,24,001,2023-05-03_10h33.02.690,uncolored_sorted,2021.2.3,59.99210500680098,
C:\Users\subject\Desktop\SVRT Experiments\SVRT Experiment 3\svrt_images\generated_images\results_problem_20,,,,,C:\Users\subject\Desktop\SVRT Experiments\SVRT Experiment 3\svrt_images\generated_images\results_problem_2\sample_0_0001.png,C:\Users\subject\Desktop\SVRT Experiments\SVRT Experiment 3\svrt_images\generated_images\results_problem_1\sample_0_0003.png,C:\Users\subject\Desktop\SVRT Experiments\SVRT Experiment 3\svrt_images\generated_images\results_problem_11\sample_0_0011.png,C:\Users\subject\Desktop\SVRT Experiments\SVRT Experiment 3\svrt_images\generated_images\results_problem_20\sample_0_0006.png,,,,,,,,,,,,,,,,0,7,7,7,0,7,7,7,,,,,,,,,,,,,,j,20,B,B,6,1,Correct!,0.8109457001555711,529.8206953001209,None,529.8206953001209,None,530.6540067000315,None,,,,,24,001,2023-05-03_10h33.02.690,uncolored_sorted,2021.2.3,59.99210500680098,
C:\Users\subject\Desktop\SVRT Experiments\SVRT Experiment 3\svrt_images\generated_images\results_problem_20,,,,,C:\Users\subject\Desktop\SVRT Experiments\SVRT Experiment 3\svrt_images\generated_images\results_problem_2\sample_0_0001.png,C:\Users\subject\Desktop\SVRT Experiments\SVRT Experiment 3\svrt_images\generated_images\results_problem_1\sample_0_0003.png,C:\Users\subject\Desktop\SVRT Experiments\SVRT Experiment 3\svrt_images\generated_images\results_problem_11\sample_0_0011.png,C:\Users\subject\Desktop\SVRT Experiments\SVRT Experiment 3\svrt_images\generated_images\results_problem_20\sample_1_0011.png,,,,,,,,,,,,,,,,0,7,7,7,0,8,8,8,,,,,,,,,,,,,,j,20,B,A,6,0,Incorrect!,3.9743168000131845,531.7373220999725,None,531.7373220999725,None,535.737245199969,None,,,,,24,001,2023-05-03_10h33.02.690,uncolored_sorted,2021.2.3,59.99210500680098,
C:\Users\subject\Desktop\SVRT Experiments\SVRT Experiment 3\svrt_images\generated_images\results_problem_20,,,,,C:\Users\subject\Desktop\SVRT Experiments\SVRT Experiment 3\svrt_images\generated_images\results_problem_2\sample_0_0001.png,C:\Users\subject\Desktop\SVRT Experiments\SVRT Experiment 3\svrt_images\generated_images\results_problem_1\sample_0_0003.png,C:\Users\subject\Desktop\SVRT Experiments\SVRT Experiment 3\svrt_images\generated_images\results_problem_11\sample_0_0011.png,C:\Users\subject\Desktop\SVRT Experiments\SVRT Experiment 3\svrt_images\generated_images\results_problem_20\sample_1_0003.png,,,,,,,,,,,,,,,,0,7,7,7,0,9,9,9,,,,,,,,,,,,,,j,20,B,A,6,0,Incorrect!,0.7543857998680323,536.837252000114,None,536.837252000114,None,537.6205538001377,None,,,,,24,001,2023-05-03_10h33.02.690,uncolored_sorted,2021.2.3,59.99210500680098,
C:\Users\subject\Desktop\SVRT Experiments\SVRT Experiment 3\svrt_images\generated_images\results_problem_20,,,,,C:\Users\subject\Desktop\SVRT Experiments\SVRT Experiment 3\svrt_images\generated_images\results_problem_2\sample_0_0001.png,C:\Users\subject\Desktop\SVRT Experiments\SVRT Experiment 3\svrt_images\generated_images\results_problem_1\sample_0_0003.png,C:\Users\subject\Desktop\SVRT Experiments\SVRT Experiment 3\svrt_images\generated_images\results_problem_11\sample_0_0011.png,C:\Users\subject\Desktop\SVRT Experiments\SVRT Experiment 3\svrt_images\generated_images\results_problem_20\sample_1_0004.png,,,,,,,,,,,,,,,,0,7,7,7,0,10,10,10,,,,,,,,,,,,,,f,20,A,A,6,1,Correct!,0.42305209999904037,538.7205270000268,None,538.7205270000268,None,539.1705255000852,None,,,,,24,001,2023-05-03_10h33.02.690,uncolored_sorted,2021.2.3,59.99210500680098,
C:\Users\subject\Desktop\SVRT Experiments\SVRT Experiment 3\svrt_images\generated_images\results_problem_20,,,,,C:\Users\subject\Desktop\SVRT Experiments\SVRT Experiment 3\svrt_images\generated_images\results_problem_2\sample_0_0001.png,C:\Users\subject\Desktop\SVRT Experiments\SVRT Experiment 3\svrt_images\generated_images\results_problem_1\sample_0_0003.png,C:\Users\subject\Desktop\SVRT Experiments\SVRT Experiment 3\svrt_images\generated_images\results_problem_11\sample_0_0011.png,C:\Users\subject\Desktop\SVRT Experiments\SVRT Experiment 3\svrt_images\generated_images\results_problem_20\sample_0_0001.png,,,,,,,,,,,,,,,,0,7,7,7,0,11,11,11,,,,,,,,,,,,,,f,20,A,B,6,0,Incorrect!,0.8324685997795314,540.2871614999603,None,540.2871614999603,None,541.1371438000351,None,,,,,24,001,2023-05-03_10h33.02.690,uncolored_sorted,2021.2.3,59.99210500680098,
C:\Users\subject\Desktop\SVRT Experiments\SVRT Experiment 3\svrt_images\generated_images\results_problem_20,,,,,C:\Users\subject\Desktop\SVRT Experiments\SVRT Experiment 3\svrt_images\generated_images\results_problem_2\sample_0_0001.png,C:\Users\subject\Desktop\SVRT Experiments\SVRT Experiment 3\svrt_images\generated_images\results_problem_1\sample_0_0003.png,C:\Users\subject\Desktop\SVRT Experiments\SVRT Experiment 3\svrt_images\generated_images\results_problem_11\sample_0_0011.png,C:\Users\subject\Desktop\SVRT Experiments\SVRT Experiment 3\svrt_images\generated_images\results_problem_20\sample_0_0014.png,,,,,,,,,,,,,,,,0,7,7,7,0,12,12,12,,,,,,,,,,,,,,j,20,B,B,6,1,Correct!,0.8811678001657128,542.2704563001171,None,542.2704563001171,None,543.1871075001545,None,,,,,24,001,2023-05-03_10h33.02.690,uncolored_sorted,2021.2.3,59.99210500680098,
C:\Users\subject\Desktop\SVRT Experiments\SVRT Experiment 3\svrt_images\generated_images\results_problem_20,,,,,C:\Users\subject\Desktop\SVRT Experiments\SVRT Experiment 3\svrt_images\generated_images\results_problem_2\sample_0_0001.png,C:\Users\subject\Desktop\SVRT Experiments\SVRT Experiment 3\svrt_images\generated_images\results_problem_1\sample_0_0003.png,C:\Users\subject\Desktop\SVRT Experiments\SVRT Experiment 3\svrt_images\generated_images\results_problem_11\sample_0_0011.png,C:\Users\subject\Desktop\SVRT Experiments\SVRT Experiment 3\svrt_images\generated_images\results_problem_20\sample_0_0007.png,,,,,,,,,,,,,,,,0,7,7,7,0,13,13,13,,,,,,,,,,,,,,j,20,B,B,6,1,Correct!,0.7425534001085907,544.3370684999973,None,544.3370684999973,None,545.1203775999602,None,,,,,24,001,2023-05-03_10h33.02.690,uncolored_sorted,2021.2.3,59.99210500680098,
C:\Users\subject\Desktop\SVRT Experiments\SVRT Experiment 3\svrt_images\generated_images\results_problem_20,,,,,C:\Users\subject\Desktop\SVRT Experiments\SVRT Experiment 3\svrt_images\generated_images\results_problem_2\sample_0_0001.png,C:\Users\subject\Desktop\SVRT Experiments\SVRT Experiment 3\svrt_images\generated_images\results_problem_1\sample_0_0003.png,C:\Users\subject\Desktop\SVRT Experiments\SVRT Experiment 3\svrt_images\generated_images\results_problem_11\sample_0_0011.png,C:\Users\subject\Desktop\SVRT Experiments\SVRT Experiment 3\svrt_images\generated_images\results_problem_20\sample_1_0014.png,,,,,,,,,,,,,,,,0,7,7,7,0,14,14,14,,,,,,,,,,,,,,j,20,B,A,6,0,Incorrect!,0.4333185001742095,546.2703677001409,None,546.2703677001409,None,546.7537027001381,None,,,,,24,001,2023-05-03_10h33.02.690,uncolored_sorted,2021.2.3,59.99210500680098,
