folder,results_problem_5,results_problem_1,results_problem_7,results_problem_10,results_problem_22,results_problem_17,results_problem_16,results_problem_14,results_problem_8,results_problem_4,results_problem_15,results_problem_9,results_problem_18,results_problem_19,results_problem_20,results_problem_3,results_problem_12,results_problem_13,results_problem_11,results_problem_23,results_problem_2,results_problem_6,results_problem_21,categories.thisRepN,categories.thisTrialN,categories.thisN,categories.thisIndex,trials.thisRepN,trials.thisTrialN,trials.thisN,trials.thisIndex,consent_text.started,consent_kb.started,consent_kb.keys,consent_kb.rt,Gender.keys,Gender.rt,Age,instructions_text.started,instructions_text.stopped,instructions_kb.keys,instructions_kb.rt,instructions_kb.started,instructions_kb.stopped,trial_kb.keys,current_problem_num,category_resp,answer,seed,accuracy,feedback,trial_kb.rt,trial_kb.started,trial_kb.stopped,trial_image.started,trial_image.stopped,feedback_text.started,feedback_text.stopped,new_problem_kb.started,new_problem_text.started,new_problem_kb.keys,new_problem_kb.rt,Participant #,session,date,expName,psychopyVersion,frameRate,
,,,,,,,,,,,,,,,,,,,,,,,,,,,,,,,,25.061486499995226,25.061486499995226,y,83.16653410000436,,,,,,,,,,,,,,,,,,,,,,,,,,,,35,001,2023-05-05_15h05.47.275,uncolored_shuffled,2021.2.3,59.95070852550692,
,,,,,,,,,,,,,,,,,,,,,,,,,,,,,,,,,,,,w,15.458937700008391,,,,,,,,,,,,,,,,,,,,,,,,,,35,001,2023-05-05_15h05.47.275,uncolored_shuffled,2021.2.3,59.95070852550692,
,,,,,,,,,,,,,,,,,,,,,,,,,,,,,,,,,,,,,,30,132.69172460000846,None,space,54.11926130000211,132.69172460000846,None,,,,,,,,,,,,,,,,,,,35,001,2023-05-05_15h05.47.275,uncolored_shuffled,2021.2.3,59.95070852550692,
C:\Users\subject\Desktop\SVRT Experiments\SVRT Experiment 3\svrt_images\generated_images\results_problem_5,C:\Users\subject\Desktop\SVRT Experiments\SVRT Experiment 3\svrt_images\generated_images\results_problem_5\sample_0_0015.png,,,,,,,,,,,,,,,,,,,,,,,0,0,0,0,0,0,0,0,,,,,,,,,,,,,,f,5,A,B,9,0,Incorrect!,22.090345999997226,186.83231850000448,None,186.83231850000448,None,208.94885559999966,None,,,,,35,001,2023-05-05_15h05.47.275,uncolored_shuffled,2021.2.3,59.95070852550692,
C:\Users\subject\Desktop\SVRT Experiments\SVRT Experiment 3\svrt_images\generated_images\results_problem_5,C:\Users\subject\Desktop\SVRT Experiments\SVRT Experiment 3\svrt_images\generated_images\results_problem_5\sample_0_0000.png,,,,,,,,,,,,,,,,,,,,,,,0,0,0,0,0,1,1,1,,,,,,,,,,,,,,j,5,B,B,9,1,Correct!,6.612955599994166,209.9496220000001,None,209.9496220000001,None,216.58790220000083,None,,,,,35,001,2023-05-05_15h05.47.275,uncolored_shuffled,2021.2.3,59.95070852550692,
C:\Users\subject\Desktop\SVRT Experiments\SVRT Experiment 3\svrt_images\generated_images\results_problem_5,C:\Users\subject\Desktop\SVRT Experiments\SVRT Experiment 3\svrt_images\generated_images\results_problem_5\sample_1_0002.png,,,,,,,,,,,,,,,,,,,,,,,0,0,0,0,0,2,2,2,,,,,,,,,,,,,,j,5,B,A,9,0,Incorrect!,9.97312840000086,217.60534049999842,None,217.60534049999842,None,227.5961690999975,None,,,,,35,001,2023-05-05_15h05.47.275,uncolored_shuffled,2021.2.3,59.95070852550692,
C:\Users\subject\Desktop\SVRT Experiments\SVRT Experiment 3\svrt_images\generated_images\results_problem_5,C:\Users\subject\Desktop\SVRT Experiments\SVRT Experiment 3\svrt_images\generated_images\results_problem_5\sample_1_0015.png,,,,,,,,,,,,,,,,,,,,,,,0,0,0,0,0,3,3,3,,,,,,,,,,,,,,f,5,A,A,9,1,Correct!,3.4927965000097174,228.613591500005,None,228.613591500005,None,232.1328974000062,None,,,,,35,001,2023-05-05_15h05.47.275,uncolored_shuffled,2021.2.3,59.95070852550692,
C:\Users\subject\Desktop\SVRT Experiments\SVRT Experiment 3\svrt_images\generated_images\results_problem_5,C:\Users\subject\Desktop\SVRT Experiments\SVRT Experiment 3\svrt_images\generated_images\results_problem_5\sample_1_0009.png,,,,,,,,,,,,,,,,,,,,,,,0,0,0,0,0,4,4,4,,,,,,,,,,,,,,f,5,A,A,9,1,Correct!,2.387379799998598,233.16701060000923,None,233.16701060000923,None,235.58548180000798,None,,,,,35,001,2023-05-05_15h05.47.275,uncolored_shuffled,2021.2.3,59.95070852550692,
C:\Users\subject\Desktop\SVRT Experiments\SVRT Experiment 3\svrt_images\generated_images\results_problem_5,C:\Users\subject\Desktop\SVRT Experiments\SVRT Experiment 3\svrt_images\generated_images\results_problem_5\sample_0_0002.png,,,,,,,,,,,,,,,,,,,,,,,0,0,0,0,0,5,5,5,,,,,,,,,,,,,,j,5,B,B,9,1,Correct!,7.438736300013261,236.61955149999994,None,236.61955149999994,None,244.07516989999567,None,,,,,35,001,2023-05-05_15h05.47.275,uncolored_shuffled,2021.2.3,59.95070852550692,
C:\Users\subject\Desktop\SVRT Experiments\SVRT Experiment 3\svrt_images\generated_images\results_problem_5,C:\Users\subject\Desktop\SVRT Experiments\SVRT Experiment 3\svrt_images\generated_images\results_problem_5\sample_1_0007.png,,,,,,,,,,,,,,,,,,,,,,,0,0,0,0,0,6,6,6,,,,,,,,,,,,,,j,5,B,A,9,0,Incorrect!,4.180213299987372,245.12596479999775,None,245.12596479999775,None,249.329109600003,None,,,,,35,001,2023-05-05_15h05.47.275,uncolored_shuffled,2021.2.3,59.95070852550692,
C:\Users\subject\Desktop\SVRT Experiments\SVRT Experiment 3\svrt_images\generated_images\results_problem_5,C:\Users\subject\Desktop\SVRT Experiments\SVRT Experiment 3\svrt_images\generated_images\results_problem_5\sample_1_0011.png,,,,,,,,,,,,,,,,,,,,,,,0,0,0,0,0,7,7,7,,,,,,,,,,,,,,f,5,A,A,9,1,Correct!,7.58221959999355,250.37987770000473,None,250.37987770000473,None,257.9855532000074,None,,,,,35,001,2023-05-05_15h05.47.275,uncolored_shuffled,2021.2.3,59.95070852550692,
C:\Users\subject\Desktop\SVRT Experiments\SVRT Experiment 3\svrt_images\generated_images\results_problem_5,C:\Users\subject\Desktop\SVRT Experiments\SVRT Experiment 3\svrt_images\generated_images\results_problem_5\sample_0_0010.png,,,,,,,,,,,,,,,,,,,,,,,0,0,0,0,0,8,8,8,,,,,,,,,,,,,,f,5,A,B,9,0,Incorrect!,2.501022800002829,259.0530502000038,None,259.0530502000038,None,261.5716054000077,None,,,,,35,001,2023-05-05_15h05.47.275,uncolored_shuffled,2021.2.3,59.95070852550692,
C:\Users\subject\Desktop\SVRT Experiments\SVRT Experiment 3\svrt_images\generated_images\results_problem_5,C:\Users\subject\Desktop\SVRT Experiments\SVRT Experiment 3\svrt_images\generated_images\results_problem_5\sample_0_0001.png,,,,,,,,,,,,,,,,,,,,,,,0,0,0,0,0,9,9,9,,,,,,,,,,,,,,j,5,B,B,9,1,Correct!,4.49893040000461,262.63906529999804,None,262.63906529999804,None,267.1591003000067,None,,,,,35,001,2023-05-05_15h05.47.275,uncolored_shuffled,2021.2.3,59.95070852550692,
C:\Users\subject\Desktop\SVRT Experiments\SVRT Experiment 3\svrt_images\generated_images\results_problem_5,C:\Users\subject\Desktop\SVRT Experiments\SVRT Experiment 3\svrt_images\generated_images\results_problem_5\sample_0_0003.png,,,,,,,,,,,,,,,,,,,,,,,0,0,0,0,0,10,10,10,,,,,,,,,,,,,,j,5,B,B,9,1,Correct!,7.853913700004341,268.25993500000914,None,268.25993500000914,None,276.13250400000834,None,,,,,35,001,2023-05-05_15h05.47.275,uncolored_shuffled,2021.2.3,59.95070852550692,
C:\Users\subject\Desktop\SVRT Experiments\SVRT Experiment 3\svrt_images\generated_images\results_problem_5,C:\Users\subject\Desktop\SVRT Experiments\SVRT Experiment 3\svrt_images\generated_images\results_problem_5\sample_1_0013.png,,,,,,,,,,,,,,,,,,,,,,,0,0,0,0,0,11,11,11,,,,,,,,,,,,,,f,5,A,A,9,1,Correct!,7.78508800000418,277.2166505000059,None,277.2166505000059,None,285.0224967999966,None,,,,,35,001,2023-05-05_15h05.47.275,uncolored_shuffled,2021.2.3,59.95070852550692,
C:\Users\subject\Desktop\SVRT Experiments\SVRT Experiment 3\svrt_images\generated_images\results_problem_5,C:\Users\subject\Desktop\SVRT Experiments\SVRT Experiment 3\svrt_images\generated_images\results_problem_5\sample_1_0010.png,,,,,,,,,,,,,,,,,,,,,,,0,0,0,0,0,12,12,12,,,,,,,,,,,,,,f,5,A,A,9,1,Correct!,1.790383399988059,286.1233199999988,None,286.1233199999988,None,287.94135259999894,None,,,,,35,001,2023-05-05_15h05.47.275,uncolored_shuffled,2021.2.3,59.95070852550692,
C:\Users\subject\Desktop\SVRT Experiments\SVRT Experiment 3\svrt_images\generated_images\results_problem_5,C:\Users\subject\Desktop\SVRT Experiments\SVRT Experiment 3\svrt_images\generated_images\results_problem_5\sample_1_0001.png,,,,,,,,,,,,,,,,,,,,,,,0,0,0,0,0,13,13,13,,,,,,,,,,,,,,f,5,A,A,9,1,Correct!,4.743516199989244,289.04217329999665,None,289.04217329999665,None,293.81243469999754,None,,,,,35,001,2023-05-05_15h05.47.275,uncolored_shuffled,2021.2.3,59.95070852550692,
C:\Users\subject\Desktop\SVRT Experiments\SVRT Experiment 3\svrt_images\generated_images\results_problem_5,C:\Users\subject\Desktop\SVRT Experiments\SVRT Experiment 3\svrt_images\generated_images\results_problem_5\sample_0_0011.png,,,,,,,,,,,,,,,,,,,,,,,0,0,0,0,0,14,14,14,,,,,,,,,,,,,,f,5,A,B,9,0,Incorrect!,1.3917629000061424,294.9298867000034,None,294.9298867000034,None,296.3476509000029,None,,,,,35,001,2023-05-05_15h05.47.275,uncolored_shuffled,2021.2.3,59.95070852550692,
C:\Users\subject\Desktop\SVRT Experiments\SVRT Experiment 3\svrt_images\generated_images\results_problem_5,C:\Users\subject\Desktop\SVRT Experiments\SVRT Experiment 3\svrt_images\generated_images\results_problem_5\sample_0_0009.png,,,,,,,,,,,,,,,,,,,,,,,0,0,0,0,0,15,15,15,,,,,,,,,,,,,,f,5,A,B,9,0,Incorrect!,1.471772900011274,297.4818371000001,None,297.4818371000001,None,298.98295320000034,None,,,,,35,001,2023-05-05_15h05.47.275,uncolored_shuffled,2021.2.3,59.95070852550692,
C:\Users\subject\Desktop\SVRT Experiments\SVRT Experiment 3\svrt_images\generated_images\results_problem_5,C:\Users\subject\Desktop\SVRT Experiments\SVRT Experiment 3\svrt_images\generated_images\results_problem_5\sample_1_0004.png,,,,,,,,,,,,,,,,,,,,,,,0,0,0,0,0,16,16,16,,,,,,,,,,,,,,j,5,B,A,9,0,Incorrect!,2.3244239000050584,300.11714709999796,None,300.11714709999796,None,302.46886890000314,None,,,,,35,001,2023-05-05_15h05.47.275,uncolored_shuffled,2021.2.3,59.95070852550692,
C:\Users\subject\Desktop\SVRT Experiments\SVRT Experiment 3\svrt_images\generated_images\results_problem_5,C:\Users\subject\Desktop\SVRT Experiments\SVRT Experiment 3\svrt_images\generated_images\results_problem_5\sample_1_0008.png,,,,,,,,,,,,,,,,,,,,,,,0,0,0,0,0,17,17,17,,,,,,,,,,,,,,j,5,B,A,9,0,Incorrect!,2.2777659999992466,303.61977040000784,None,303.61977040000784,None,305.93815610000456,None,,,,,35,001,2023-05-05_15h05.47.275,uncolored_shuffled,2021.2.3,59.95070852550692,
C:\Users\subject\Desktop\SVRT Experiments\SVRT Experiment 3\svrt_images\generated_images\results_problem_5,C:\Users\subject\Desktop\SVRT Experiments\SVRT Experiment 3\svrt_images\generated_images\results_problem_5\sample_0_0016.png,,,,,,,,,,,,,,,,,,,,,,,0,0,0,0,0,18,18,18,,,,,,,,,,,,,,f,5,A,B,9,0,Incorrect!,3.1204395000095246,307.08902990000206,None,307.08902990000206,None,310.24138649999804,None,,,,,35,001,2023-05-05_15h05.47.275,uncolored_shuffled,2021.2.3,59.95070852550692,
C:\Users\subject\Desktop\SVRT Experiments\SVRT Experiment 3\svrt_images\generated_images\results_problem_5,C:\Users\subject\Desktop\SVRT Experiments\SVRT Experiment 3\svrt_images\generated_images\results_problem_5\sample_0_0005.png,,,,,,,,,,,,,,,,,,,,,,,0,0,0,0,0,19,19,19,,,,,,,,,,,,,,f,5,A,B,9,0,Incorrect!,1.6085144999960903,311.408932300008,None,311.408932300008,None,313.06016680000175,None,,,,,35,001,2023-05-05_15h05.47.275,uncolored_shuffled,2021.2.3,59.95070852550692,
C:\Users\subject\Desktop\SVRT Experiments\SVRT Experiment 3\svrt_images\generated_images\results_problem_5,C:\Users\subject\Desktop\SVRT Experiments\SVRT Experiment 3\svrt_images\generated_images\results_problem_5\sample_0_0007.png,,,,,,,,,,,,,,,,,,,,,,,0,0,0,0,0,20,20,20,,,,,,,,,,,,,,f,5,A,B,9,0,Incorrect!,1.1256981999904383,314.2277082000073,None,314.2277082000073,None,315.37856610000017,None,,,,,35,001,2023-05-05_15h05.47.275,uncolored_shuffled,2021.2.3,59.95070852550692,
C:\Users\subject\Desktop\SVRT Experiments\SVRT Experiment 3\svrt_images\generated_images\results_problem_5,C:\Users\subject\Desktop\SVRT Experiments\SVRT Experiment 3\svrt_images\generated_images\results_problem_5\sample_0_0008.png,,,,,,,,,,,,,,,,,,,,,,,0,0,0,0,0,21,21,21,,,,,,,,,,,,,,f,5,A,B,9,0,Incorrect!,0.9825800999969942,316.562797999999,None,316.562797999999,None,317.58021230000304,None,,,,,35,001,2023-05-05_15h05.47.275,uncolored_shuffled,2021.2.3,59.95070852550692,
C:\Users\subject\Desktop\SVRT Experiments\SVRT Experiment 3\svrt_images\generated_images\results_problem_5,C:\Users\subject\Desktop\SVRT Experiments\SVRT Experiment 3\svrt_images\generated_images\results_problem_5\sample_1_0016.png,,,,,,,,,,,,,,,,,,,,,,,0,0,0,0,0,22,22,22,,,,,,,,,,,,,,f,5,A,A,9,1,Correct!,0.6202339000010397,318.78112050000345,None,318.78112050000345,None,319.43160189999617,None,,,,,35,001,2023-05-05_15h05.47.275,uncolored_shuffled,2021.2.3,59.95070852550692,
C:\Users\subject\Desktop\SVRT Experiments\SVRT Experiment 3\svrt_images\generated_images\results_problem_5,C:\Users\subject\Desktop\SVRT Experiments\SVRT Experiment 3\svrt_images\generated_images\results_problem_5\sample_0_0004.png,,,,,,,,,,,,,,,,,,,,,,,0,0,0,0,0,23,23,23,,,,,,,,,,,,,,j,5,B,B,9,1,Correct!,1.1361547999986215,320.6491839000082,None,320.6491839000082,None,321.8334027000092,None,,,,,35,001,2023-05-05_15h05.47.275,uncolored_shuffled,2021.2.3,59.95070852550692,
C:\Users\subject\Desktop\SVRT Experiments\SVRT Experiment 3\svrt_images\generated_images\results_problem_5,C:\Users\subject\Desktop\SVRT Experiments\SVRT Experiment 3\svrt_images\generated_images\results_problem_5\sample_1_0003.png,,,,,,,,,,,,,,,,,,,,,,,0,0,0,0,0,24,24,24,,,,,,,,,,,,,,j,5,B,A,9,0,Incorrect!,1.3743248999962816,323.05098179999914,None,323.05098179999914,None,324.46870739999576,None,,,,,35,001,2023-05-05_15h05.47.275,uncolored_shuffled,2021.2.3,59.95070852550692,
C:\Users\subject\Desktop\SVRT Experiments\SVRT Experiment 3\svrt_images\generated_images\results_problem_5,C:\Users\subject\Desktop\SVRT Experiments\SVRT Experiment 3\svrt_images\generated_images\results_problem_5\sample_0_0014.png,,,,,,,,,,,,,,,,,,,,,,,0,0,0,0,0,25,25,25,,,,,,,,,,,,,,f,5,A,B,9,0,Incorrect!,0.650384499997017,325.7029446000088,None,325.7029446000088,None,326.4034898999962,None,,,,,35,001,2023-05-05_15h05.47.275,uncolored_shuffled,2021.2.3,59.95070852550692,
C:\Users\subject\Desktop\SVRT Experiments\SVRT Experiment 3\svrt_images\generated_images\results_problem_5,C:\Users\subject\Desktop\SVRT Experiments\SVRT Experiment 3\svrt_images\generated_images\results_problem_5\sample_0_0013.png,,,,,,,,,,,,,,,,,,,,,,,0,0,0,0,0,26,26,26,,,,,,,,,,,,,,j,5,B,B,9,1,Correct!,1.251590900006704,327.6377588000032,None,327.6377588000032,None,328.9387263999961,None,,,,,35,001,2023-05-05_15h05.47.275,uncolored_shuffled,2021.2.3,59.95070852550692,
C:\Users\subject\Desktop\SVRT Experiments\SVRT Experiment 3\svrt_images\generated_images\results_problem_5,C:\Users\subject\Desktop\SVRT Experiments\SVRT Experiment 3\svrt_images\generated_images\results_problem_5\sample_1_0005.png,,,,,,,,,,,,,,,,,,,,,,,0,0,0,0,0,27,27,27,,,,,,,,,,,,,,f,5,A,A,9,1,Correct!,1.355528600004618,330.18966329999967,None,330.18966329999967,None,331.6073539000063,None,,,,,35,001,2023-05-05_15h05.47.275,uncolored_shuffled,2021.2.3,59.95070852550692,
C:\Users\subject\Desktop\SVRT Experiments\SVRT Experiment 3\svrt_images\generated_images\results_problem_5,C:\Users\subject\Desktop\SVRT Experiments\SVRT Experiment 3\svrt_images\generated_images\results_problem_5\sample_1_0000.png,,,,,,,,,,,,,,,,,,,,,,,0,0,0,0,0,28,28,28,,,,,,,,,,,,,,f,5,A,A,9,1,Correct!,0.9581435000000056,332.87500739999814,None,332.87500739999814,None,333.89242849999573,None,,,,,35,001,2023-05-05_15h05.47.275,uncolored_shuffled,2021.2.3,59.95070852550692,
C:\Users\subject\Desktop\SVRT Experiments\SVRT Experiment 3\svrt_images\generated_images\results_problem_5,C:\Users\subject\Desktop\SVRT Experiments\SVRT Experiment 3\svrt_images\generated_images\results_problem_5\sample_1_0014.png,,,,,,,,,,,,,,,,,,,,,,,0,0,0,0,0,29,29,29,,,,,,,,,,,,,,f,5,A,A,9,1,Correct!,1.0004296999977669,335.17673130000185,None,335.17673130000185,None,336.1941519999964,None,,,,,35,001,2023-05-05_15h05.47.275,uncolored_shuffled,2021.2.3,59.95070852550692,
C:\Users\subject\Desktop\SVRT Experiments\SVRT Experiment 3\svrt_images\generated_images\results_problem_5,C:\Users\subject\Desktop\SVRT Experiments\SVRT Experiment 3\svrt_images\generated_images\results_problem_5\sample_0_0012.png,,,,,,,,,,,,,,,,,,,,,,,0,0,0,0,0,30,30,30,,,,,,,,,,,,,,f,5,A,B,9,0,Incorrect!,0.9706808000046294,337.47845720000623,None,337.47845720000623,None,338.49587870000687,None,,,,,35,001,2023-05-05_15h05.47.275,uncolored_shuffled,2021.2.3,59.95070852550692,
C:\Users\subject\Desktop\SVRT Experiments\SVRT Experiment 3\svrt_images\generated_images\results_problem_5,C:\Users\subject\Desktop\SVRT Experiments\SVRT Experiment 3\svrt_images\generated_images\results_problem_5\sample_1_0006.png,,,,,,,,,,,,,,,,,,,,,,,0,0,0,0,0,31,31,31,,,,,,,,,,,,,,j,5,B,A,9,0,Incorrect!,1.3882402000017464,339.7968566000054,None,339.7968566000054,None,341.2479391000088,None,,,,,35,001,2023-05-05_15h05.47.275,uncolored_shuffled,2021.2.3,59.95070852550692,
C:\Users\subject\Desktop\SVRT Experiments\SVRT Experiment 3\svrt_images\generated_images\results_problem_5,C:\Users\subject\Desktop\SVRT Experiments\SVRT Experiment 3\svrt_images\generated_images\results_problem_5\sample_1_0012.png,,,,,,,,,,,,,,,,,,,,,,,0,0,0,0,0,32,32,32,,,,,,,,,,,,,,f,5,A,A,9,1,Correct!,0.8515150000021094,342.5655606000073,None,342.5655606000073,None,343.4495931999991,None,,,,,35,001,2023-05-05_15h05.47.275,uncolored_shuffled,2021.2.3,59.95070852550692,
C:\Users\subject\Desktop\SVRT Experiments\SVRT Experiment 3\svrt_images\generated_images\results_problem_5,C:\Users\subject\Desktop\SVRT Experiments\SVRT Experiment 3\svrt_images\generated_images\results_problem_5\sample_0_0006.png,,,,,,,,,,,,,,,,,,,,,,,0,0,0,0,0,33,33,33,,,,,,,,,,,,,,j,5,B,B,9,1,Correct!,3.0337635000032606,344.7672540000058,None,344.7672540000058,None,347.8528839000064,None,,,,,35,001,2023-05-05_15h05.47.275,uncolored_shuffled,2021.2.3,59.95070852550692,
C:\Users\subject\Desktop\SVRT Experiments\SVRT Experiment 3\svrt_images\generated_images\results_problem_5,,,,,,,,,,,,,,,,,,,,,,,,0,0,0,0,,,,,,,,,,,,,,,,,,,,,,,,,,,,,,,,348.8536910999974,348.8536910999974,space,3.651221299995086,35,001,2023-05-05_15h05.47.275,uncolored_shuffled,2021.2.3,59.95070852550692,
C:\Users\subject\Desktop\SVRT Experiments\SVRT Experiment 3\svrt_images\generated_images\results_problem_1,,C:\Users\subject\Desktop\SVRT Experiments\SVRT Experiment 3\svrt_images\generated_images\results_problem_1\sample_0_0009.png,,,,,,,,,,,,,,,,,,,,,,0,1,1,1,0,0,0,0,,,,,,,,,,,,,,j,1,B,B,9,1,Correct!,3.6219060000003083,352.5230297000089,None,352.5230297000089,None,356.17578750000393,None,,,,,35,001,2023-05-05_15h05.47.275,uncolored_shuffled,2021.2.3,59.95070852550692,
C:\Users\subject\Desktop\SVRT Experiments\SVRT Experiment 3\svrt_images\generated_images\results_problem_1,,C:\Users\subject\Desktop\SVRT Experiments\SVRT Experiment 3\svrt_images\generated_images\results_problem_1\sample_0_0011.png,,,,,,,,,,,,,,,,,,,,,,0,1,1,1,0,1,1,1,,,,,,,,,,,,,,f,1,A,B,9,0,Incorrect!,0.7923340000124881,357.17652950000775,None,357.17652950000775,None,357.99378889999934,None,,,,,35,001,2023-05-05_15h05.47.275,uncolored_shuffled,2021.2.3,59.95070852550692,
C:\Users\subject\Desktop\SVRT Experiments\SVRT Experiment 3\svrt_images\generated_images\results_problem_1,,C:\Users\subject\Desktop\SVRT Experiments\SVRT Experiment 3\svrt_images\generated_images\results_problem_1\sample_1_0016.png,,,,,,,,,,,,,,,,,,,,,,0,1,1,1,0,2,2,2,,,,,,,,,,,,,,j,1,B,A,9,0,Incorrect!,1.43756370000483,359.01126240000303,None,359.01126240000303,None,360.4789835999982,None,,,,,35,001,2023-05-05_15h05.47.275,uncolored_shuffled,2021.2.3,59.95070852550692,
C:\Users\subject\Desktop\SVRT Experiments\SVRT Experiment 3\svrt_images\generated_images\results_problem_1,,C:\Users\subject\Desktop\SVRT Experiments\SVRT Experiment 3\svrt_images\generated_images\results_problem_1\sample_0_0004.png,,,,,,,,,,,,,,,,,,,,,,0,1,1,1,0,3,3,3,,,,,,,,,,,,,,f,1,A,B,9,0,Incorrect!,0.7683897999959299,361.49643050000304,None,361.49643050000304,None,362.29699170000094,None,,,,,35,001,2023-05-05_15h05.47.275,uncolored_shuffled,2021.2.3,59.95070852550692,
C:\Users\subject\Desktop\SVRT Experiments\SVRT Experiment 3\svrt_images\generated_images\results_problem_1,,C:\Users\subject\Desktop\SVRT Experiments\SVRT Experiment 3\svrt_images\generated_images\results_problem_1\sample_0_0000.png,,,,,,,,,,,,,,,,,,,,,,0,1,1,1,0,4,4,4,,,,,,,,,,,,,,j,1,B,B,9,1,Correct!,0.43769190000602975,363.33110720000695,None,363.33110720000695,None,363.79815850000887,None,,,,,35,001,2023-05-05_15h05.47.275,uncolored_shuffled,2021.2.3,59.95070852550692,
C:\Users\subject\Desktop\SVRT Experiments\SVRT Experiment 3\svrt_images\generated_images\results_problem_1,,C:\Users\subject\Desktop\SVRT Experiments\SVRT Experiment 3\svrt_images\generated_images\results_problem_1\sample_0_0001.png,,,,,,,,,,,,,,,,,,,,,,0,1,1,1,0,5,5,5,,,,,,,,,,,,,,j,1,B,B,9,1,Correct!,3.5684767000057036,364.8322638999962,None,364.8322638999962,None,368.41825889999745,None,,,,,35,001,2023-05-05_15h05.47.275,uncolored_shuffled,2021.2.3,59.95070852550692,
C:\Users\subject\Desktop\SVRT Experiments\SVRT Experiment 3\svrt_images\generated_images\results_problem_1,,C:\Users\subject\Desktop\SVRT Experiments\SVRT Experiment 3\svrt_images\generated_images\results_problem_1\sample_1_0004.png,,,,,,,,,,,,,,,,,,,,,,0,1,1,1,0,6,6,6,,,,,,,,,,,,,,f,1,A,A,9,1,Correct!,0.7476568999991287,369.4690685000096,None,369.4690685000096,None,370.2362911999953,None,,,,,35,001,2023-05-05_15h05.47.275,uncolored_shuffled,2021.2.3,59.95070852550692,
C:\Users\subject\Desktop\SVRT Experiments\SVRT Experiment 3\svrt_images\generated_images\results_problem_1,,C:\Users\subject\Desktop\SVRT Experiments\SVRT Experiment 3\svrt_images\generated_images\results_problem_1\sample_1_0013.png,,,,,,,,,,,,,,,,,,,,,,0,1,1,1,0,7,7,7,,,,,,,,,,,,,,j,1,B,A,9,0,Incorrect!,1.0976229999942007,371.2871132,None,371.2871132,None,372.40461250000226,None,,,,,35,001,2023-05-05_15h05.47.275,uncolored_shuffled,2021.2.3,59.95070852550692,
C:\Users\subject\Desktop\SVRT Experiments\SVRT Experiment 3\svrt_images\generated_images\results_problem_1,,C:\Users\subject\Desktop\SVRT Experiments\SVRT Experiment 3\svrt_images\generated_images\results_problem_1\sample_1_0006.png,,,,,,,,,,,,,,,,,,,,,,0,1,1,1,0,8,8,8,,,,,,,,,,,,,,j,1,B,A,9,0,Incorrect!,0.9446375999978045,373.47207050000725,None,373.47207050000725,None,374.43945790000726,None,,,,,35,001,2023-05-05_15h05.47.275,uncolored_shuffled,2021.2.3,59.95070852550692,
C:\Users\subject\Desktop\SVRT Experiments\SVRT Experiment 3\svrt_images\generated_images\results_problem_1,,C:\Users\subject\Desktop\SVRT Experiments\SVRT Experiment 3\svrt_images\generated_images\results_problem_1\sample_1_0007.png,,,,,,,,,,,,,,,,,,,,,,0,1,1,1,0,9,9,9,,,,,,,,,,,,,,f,1,A,A,9,1,Correct!,0.3017639000026975,375.50691730000835,None,375.50691730000835,None,375.84051409999665,None,,,,,35,001,2023-05-05_15h05.47.275,uncolored_shuffled,2021.2.3,59.95070852550692,
C:\Users\subject\Desktop\SVRT Experiments\SVRT Experiment 3\svrt_images\generated_images\results_problem_1,,C:\Users\subject\Desktop\SVRT Experiments\SVRT Experiment 3\svrt_images\generated_images\results_problem_1\sample_0_0003.png,,,,,,,,,,,,,,,,,,,,,,0,1,1,1,0,10,10,10,,,,,,,,,,,,,,j,1,B,B,9,1,Correct!,0.5799454000080004,376.9246600000042,None,376.9246600000042,None,377.5250795000029,None,,,,,35,001,2023-05-05_15h05.47.275,uncolored_shuffled,2021.2.3,59.95070852550692,
C:\Users\subject\Desktop\SVRT Experiments\SVRT Experiment 3\svrt_images\generated_images\results_problem_1,,C:\Users\subject\Desktop\SVRT Experiments\SVRT Experiment 3\svrt_images\generated_images\results_problem_1\sample_1_0000.png,,,,,,,,,,,,,,,,,,,,,,0,1,1,1,0,11,11,11,,,,,,,,,,,,,,j,1,B,A,9,0,Incorrect!,1.2313677999918582,378.6092561999976,None,378.6092561999976,None,379.8601849999977,None,,,,,35,001,2023-05-05_15h05.47.275,uncolored_shuffled,2021.2.3,59.95070852550692,
C:\Users\subject\Desktop\SVRT Experiments\SVRT Experiment 3\svrt_images\generated_images\results_problem_1,,C:\Users\subject\Desktop\SVRT Experiments\SVRT Experiment 3\svrt_images\generated_images\results_problem_1\sample_0_0014.png,,,,,,,,,,,,,,,,,,,,,,0,1,1,1,0,12,12,12,,,,,,,,,,,,,,f,1,A,B,9,0,Incorrect!,0.32757419999688864,380.961017499998,None,380.961017499998,None,381.31126990000485,None,,,,,35,001,2023-05-05_15h05.47.275,uncolored_shuffled,2021.2.3,59.95070852550692,
C:\Users\subject\Desktop\SVRT Experiments\SVRT Experiment 3\svrt_images\generated_images\results_problem_1,,C:\Users\subject\Desktop\SVRT Experiments\SVRT Experiment 3\svrt_images\generated_images\results_problem_1\sample_0_0005.png,,,,,,,,,,,,,,,,,,,,,,0,1,1,1,0,13,13,13,,,,,,,,,,,,,,f,1,A,B,9,0,Incorrect!,0.7724929999967571,382.4121027000074,None,382.4121027000074,None,383.212692400004,None,,,,,35,001,2023-05-05_15h05.47.275,uncolored_shuffled,2021.2.3,59.95070852550692,
C:\Users\subject\Desktop\SVRT Experiments\SVRT Experiment 3\svrt_images\generated_images\results_problem_1,,C:\Users\subject\Desktop\SVRT Experiments\SVRT Experiment 3\svrt_images\generated_images\results_problem_1\sample_1_0015.png,,,,,,,,,,,,,,,,,,,,,,0,1,1,1,0,14,14,14,,,,,,,,,,,,,,f,1,A,A,9,1,Correct!,0.4462978999945335,384.3302107000054,None,384.3302107000054,None,384.7972279000096,None,,,,,35,001,2023-05-05_15h05.47.275,uncolored_shuffled,2021.2.3,59.95070852550692,
C:\Users\subject\Desktop\SVRT Experiments\SVRT Experiment 3\svrt_images\generated_images\results_problem_1,,C:\Users\subject\Desktop\SVRT Experiments\SVRT Experiment 3\svrt_images\generated_images\results_problem_1\sample_0_0002.png,,,,,,,,,,,,,,,,,,,,,,0,1,1,1,0,15,15,15,,,,,,,,,,,,,,j,1,B,B,9,1,Correct!,0.477154000007431,385.9314025000058,None,385.9314025000058,None,386.43176890000177,None,,,,,35,001,2023-05-05_15h05.47.275,uncolored_shuffled,2021.2.3,59.95070852550692,
C:\Users\subject\Desktop\SVRT Experiments\SVRT Experiment 3\svrt_images\generated_images\results_problem_1,,C:\Users\subject\Desktop\SVRT Experiments\SVRT Experiment 3\svrt_images\generated_images\results_problem_1\sample_0_0008.png,,,,,,,,,,,,,,,,,,,,,,0,1,1,1,0,16,16,16,,,,,,,,,,,,,,j,1,B,B,9,1,Correct!,4.8905362999939825,387.5659621000086,None,387.5659621000086,None,392.48628779999854,None,,,,,35,001,2023-05-05_15h05.47.275,uncolored_shuffled,2021.2.3,59.95070852550692,
C:\Users\subject\Desktop\SVRT Experiments\SVRT Experiment 3\svrt_images\generated_images\results_problem_1,,C:\Users\subject\Desktop\SVRT Experiments\SVRT Experiment 3\svrt_images\generated_images\results_problem_1\sample_1_0011.png,,,,,,,,,,,,,,,,,,,,,,0,1,1,1,0,17,17,17,,,,,,,,,,,,,,f,1,A,A,9,1,Correct!,0.6346721000008984,393.6538523000054,None,393.6538523000054,None,394.3376993999991,None,,,,,35,001,2023-05-05_15h05.47.275,uncolored_shuffled,2021.2.3,59.95070852550692,
C:\Users\subject\Desktop\SVRT Experiments\SVRT Experiment 3\svrt_images\generated_images\results_problem_1,,C:\Users\subject\Desktop\SVRT Experiments\SVRT Experiment 3\svrt_images\generated_images\results_problem_1\sample_1_0002.png,,,,,,,,,,,,,,,,,,,,,,0,1,1,1,0,18,18,18,,,,,,,,,,,,,,j,1,B,A,9,0,Incorrect!,0.583814399986295,395.4886206000083,None,395.4886206000083,None,396.10568940000667,None,,,,,35,001,2023-05-05_15h05.47.275,uncolored_shuffled,2021.2.3,59.95070852550692,
C:\Users\subject\Desktop\SVRT Experiments\SVRT Experiment 3\svrt_images\generated_images\results_problem_1,,C:\Users\subject\Desktop\SVRT Experiments\SVRT Experiment 3\svrt_images\generated_images\results_problem_1\sample_1_0010.png,,,,,,,,,,,,,,,,,,,,,,0,1,1,1,0,19,19,19,,,,,,,,,,,,,,j,1,B,A,9,0,Incorrect!,0.5431646000070032,397.27324789999693,None,397.27324789999693,None,397.8569900000002,None,,,,,35,001,2023-05-05_15h05.47.275,uncolored_shuffled,2021.2.3,59.95070852550692,
C:\Users\subject\Desktop\SVRT Experiments\SVRT Experiment 3\svrt_images\generated_images\results_problem_1,,C:\Users\subject\Desktop\SVRT Experiments\SVRT Experiment 3\svrt_images\generated_images\results_problem_1\sample_0_0015.png,,,,,,,,,,,,,,,,,,,,,,0,1,1,1,0,20,20,20,,,,,,,,,,,,,,f,1,A,B,9,0,Incorrect!,0.7591203000047244,399.0412202000007,None,399.0412202000007,None,399.82513219999964,None,,,,,35,001,2023-05-05_15h05.47.275,uncolored_shuffled,2021.2.3,59.95070852550692,
C:\Users\subject\Desktop\SVRT Experiments\SVRT Experiment 3\svrt_images\generated_images\results_problem_1,,C:\Users\subject\Desktop\SVRT Experiments\SVRT Experiment 3\svrt_images\generated_images\results_problem_1\sample_1_0003.png,,,,,,,,,,,,,,,,,,,,,,0,1,1,1,0,21,21,21,,,,,,,,,,,,,,f,1,A,A,9,1,Correct!,0.8149537999997847,401.0093659999984,None,401.0093659999984,None,401.85999280000397,None,,,,,35,001,2023-05-05_15h05.47.275,uncolored_shuffled,2021.2.3,59.95070852550692,
C:\Users\subject\Desktop\SVRT Experiments\SVRT Experiment 3\svrt_images\generated_images\results_problem_1,,C:\Users\subject\Desktop\SVRT Experiments\SVRT Experiment 3\svrt_images\generated_images\results_problem_1\sample_0_0006.png,,,,,,,,,,,,,,,,,,,,,,0,1,1,1,0,22,22,22,,,,,,,,,,,,,,j,1,B,B,9,1,Correct!,0.68342990000383,403.0609001999983,None,403.0609001999983,None,403.7780943999969,None,,,,,35,001,2023-05-05_15h05.47.275,uncolored_shuffled,2021.2.3,59.95070852550692,
C:\Users\subject\Desktop\SVRT Experiments\SVRT Experiment 3\svrt_images\generated_images\results_problem_1,,C:\Users\subject\Desktop\SVRT Experiments\SVRT Experiment 3\svrt_images\generated_images\results_problem_1\sample_1_0014.png,,,,,,,,,,,,,,,,,,,,,,0,1,1,1,0,23,23,23,,,,,,,,,,,,,,f,1,A,A,9,1,Correct!,0.8852908999979263,404.97901160000765,None,404.97901160000765,None,405.8963483999978,None,,,,,35,001,2023-05-05_15h05.47.275,uncolored_shuffled,2021.2.3,59.95070852550692,
C:\Users\subject\Desktop\SVRT Experiments\SVRT Experiment 3\svrt_images\generated_images\results_problem_1,,C:\Users\subject\Desktop\SVRT Experiments\SVRT Experiment 3\svrt_images\generated_images\results_problem_1\sample_1_0012.png,,,,,,,,,,,,,,,,,,,,,,0,1,1,1,0,24,24,24,,,,,,,,,,,,,,f,1,A,A,9,1,Correct!,0.9583415999950375,407.1139350000012,None,407.1139350000012,None,408.1146785000019,None,,,,,35,001,2023-05-05_15h05.47.275,uncolored_shuffled,2021.2.3,59.95070852550692,
C:\Users\subject\Desktop\SVRT Experiments\SVRT Experiment 3\svrt_images\generated_images\results_problem_1,,C:\Users\subject\Desktop\SVRT Experiments\SVRT Experiment 3\svrt_images\generated_images\results_problem_1\sample_0_0012.png,,,,,,,,,,,,,,,,,,,,,,0,1,1,1,0,25,25,25,,,,,,,,,,,,,,f,1,A,B,9,0,Incorrect!,0.963292200001888,409.3489439999976,None,409.3489439999976,None,410.3496498000022,None,,,,,35,001,2023-05-05_15h05.47.275,uncolored_shuffled,2021.2.3,59.95070852550692,
C:\Users\subject\Desktop\SVRT Experiments\SVRT Experiment 3\svrt_images\generated_images\results_problem_1,,C:\Users\subject\Desktop\SVRT Experiments\SVRT Experiment 3\svrt_images\generated_images\results_problem_1\sample_0_0013.png,,,,,,,,,,,,,,,,,,,,,,0,1,1,1,0,26,26,26,,,,,,,,,,,,,,j,1,B,B,9,1,Correct!,1.184249899990391,411.58394810000027,None,411.58394810000027,None,412.801501199996,None,,,,,35,001,2023-05-05_15h05.47.275,uncolored_shuffled,2021.2.3,59.95070852550692,
C:\Users\subject\Desktop\SVRT Experiments\SVRT Experiment 3\svrt_images\generated_images\results_problem_1,,C:\Users\subject\Desktop\SVRT Experiments\SVRT Experiment 3\svrt_images\generated_images\results_problem_1\sample_0_0007.png,,,,,,,,,,,,,,,,,,,,,,0,1,1,1,0,27,27,27,,,,,,,,,,,,,,f,1,A,B,9,0,Incorrect!,0.7316962000040803,414.05245920000016,None,414.05245920000016,None,414.8197005999973,None,,,,,35,001,2023-05-05_15h05.47.275,uncolored_shuffled,2021.2.3,59.95070852550692,
C:\Users\subject\Desktop\SVRT Experiments\SVRT Experiment 3\svrt_images\generated_images\results_problem_1,,C:\Users\subject\Desktop\SVRT Experiments\SVRT Experiment 3\svrt_images\generated_images\results_problem_1\sample_1_0009.png,,,,,,,,,,,,,,,,,,,,,,0,1,1,1,0,28,28,28,,,,,,,,,,,,,,j,1,B,A,9,0,Incorrect!,0.7128280000033556,416.08730769999966,None,416.08730769999966,None,416.85453009999765,None,,,,,35,001,2023-05-05_15h05.47.275,uncolored_shuffled,2021.2.3,59.95070852550692,
C:\Users\subject\Desktop\SVRT Experiments\SVRT Experiment 3\svrt_images\generated_images\results_problem_1,,C:\Users\subject\Desktop\SVRT Experiments\SVRT Experiment 3\svrt_images\generated_images\results_problem_1\sample_0_0016.png,,,,,,,,,,,,,,,,,,,,,,0,1,1,1,0,29,29,29,,,,,,,,,,,,,,f,1,A,B,9,0,Incorrect!,0.325984499999322,418.12217899999814,None,418.12217899999814,None,418.48911450000014,None,,,,,35,001,2023-05-05_15h05.47.275,uncolored_shuffled,2021.2.3,59.95070852550692,
C:\Users\subject\Desktop\SVRT Experiments\SVRT Experiment 3\svrt_images\generated_images\results_problem_1,,C:\Users\subject\Desktop\SVRT Experiments\SVRT Experiment 3\svrt_images\generated_images\results_problem_1\sample_1_0005.png,,,,,,,,,,,,,,,,,,,,,,0,1,1,1,0,30,30,30,,,,,,,,,,,,,,j,1,B,A,9,0,Incorrect!,0.2507066000107443,419.77341460000025,None,419.77341460000025,None,420.0736314000096,None,,,,,35,001,2023-05-05_15h05.47.275,uncolored_shuffled,2021.2.3,59.95070852550692,
C:\Users\subject\Desktop\SVRT Experiments\SVRT Experiment 3\svrt_images\generated_images\results_problem_1,,C:\Users\subject\Desktop\SVRT Experiments\SVRT Experiment 3\svrt_images\generated_images\results_problem_1\sample_1_0001.png,,,,,,,,,,,,,,,,,,,,,,0,1,1,1,0,31,31,31,,,,,,,,,,,,,,f,1,A,A,9,1,Correct!,0.24150960000406485,421.3746170000086,None,421.3746170000086,None,421.65815329999896,None,,,,,35,001,2023-05-05_15h05.47.275,uncolored_shuffled,2021.2.3,59.95070852550692,
C:\Users\subject\Desktop\SVRT Experiments\SVRT Experiment 3\svrt_images\generated_images\results_problem_1,,C:\Users\subject\Desktop\SVRT Experiments\SVRT Experiment 3\svrt_images\generated_images\results_problem_1\sample_1_0008.png,,,,,,,,,,,,,,,,,,,,,,0,1,1,1,0,32,32,32,,,,,,,,,,,,,,f,1,A,A,9,1,Correct!,0.5369631000066875,422.9591466999991,None,422.9591466999991,None,423.5762575999979,None,,,,,35,001,2023-05-05_15h05.47.275,uncolored_shuffled,2021.2.3,59.95070852550692,
C:\Users\subject\Desktop\SVRT Experiments\SVRT Experiment 3\svrt_images\generated_images\results_problem_1,,C:\Users\subject\Desktop\SVRT Experiments\SVRT Experiment 3\svrt_images\generated_images\results_problem_1\sample_0_0010.png,,,,,,,,,,,,,,,,,,,,,,0,1,1,1,0,33,33,33,,,,,,,,,,,,,,j,1,B,B,9,1,Correct!,0.5301581999956397,424.8939190000092,None,424.8939190000092,None,425.4443226000003,None,,,,,35,001,2023-05-05_15h05.47.275,uncolored_shuffled,2021.2.3,59.95070852550692,
C:\Users\subject\Desktop\SVRT Experiments\SVRT Experiment 3\svrt_images\generated_images\results_problem_1,,,,,,,,,,,,,,,,,,,,,,,,0,1,1,1,,,,,,,,,,,,,,,,,,,,,,,,,,,,,,,,426.4450722000038,426.4450722000038,space,1.41105900000548,35,001,2023-05-05_15h05.47.275,uncolored_shuffled,2021.2.3,59.95070852550692,
C:\Users\subject\Desktop\SVRT Experiments\SVRT Experiment 3\svrt_images\generated_images\results_problem_7,,,C:\Users\subject\Desktop\SVRT Experiments\SVRT Experiment 3\svrt_images\generated_images\results_problem_7\sample_0_0000.png,,,,,,,,,,,,,,,,,,,,,0,2,2,2,0,0,0,0,,,,,,,,,,,,,,j,7,B,B,9,1,Correct!,5.248507500000414,427.8794804000063,None,427.8794804000063,None,433.1500922999985,None,,,,,35,001,2023-05-05_15h05.47.275,uncolored_shuffled,2021.2.3,59.95070852550692,
C:\Users\subject\Desktop\SVRT Experiments\SVRT Experiment 3\svrt_images\generated_images\results_problem_7,,,C:\Users\subject\Desktop\SVRT Experiments\SVRT Experiment 3\svrt_images\generated_images\results_problem_7\sample_0_0001.png,,,,,,,,,,,,,,,,,,,,,0,2,2,2,0,1,1,1,,,,,,,,,,,,,,f,7,A,B,9,0,Incorrect!,0.5931266999978106,434.15084560000105,None,434.15084560000105,None,434.7679719000007,None,,,,,35,001,2023-05-05_15h05.47.275,uncolored_shuffled,2021.2.3,59.95070852550692,
C:\Users\subject\Desktop\SVRT Experiments\SVRT Experiment 3\svrt_images\generated_images\results_problem_7,,,C:\Users\subject\Desktop\SVRT Experiments\SVRT Experiment 3\svrt_images\generated_images\results_problem_7\sample_1_0006.png,,,,,,,,,,,,,,,,,,,,,0,2,2,2,0,2,2,2,,,,,,,,,,,,,,j,7,B,A,9,0,Incorrect!,0.5825423000060255,435.78540000000794,None,435.78540000000794,None,436.3858503000083,None,,,,,35,001,2023-05-05_15h05.47.275,uncolored_shuffled,2021.2.3,59.95070852550692,
C:\Users\subject\Desktop\SVRT Experiments\SVRT Experiment 3\svrt_images\generated_images\results_problem_7,,,C:\Users\subject\Desktop\SVRT Experiments\SVRT Experiment 3\svrt_images\generated_images\results_problem_7\sample_1_0002.png,,,,,,,,,,,,,,,,,,,,,0,2,2,2,0,3,3,3,,,,,,,,,,,,,,j,7,B,A,9,0,Incorrect!,0.6687375999899814,437.4032301999978,None,437.4032301999978,None,438.10381260000577,None,,,,,35,001,2023-05-05_15h05.47.275,uncolored_shuffled,2021.2.3,59.95070852550692,
C:\Users\subject\Desktop\SVRT Experiments\SVRT Experiment 3\svrt_images\generated_images\results_problem_7,,,C:\Users\subject\Desktop\SVRT Experiments\SVRT Experiment 3\svrt_images\generated_images\results_problem_7\sample_0_0016.png,,,,,,,,,,,,,,,,,,,,,0,2,2,2,0,4,4,4,,,,,,,,,,,,,,f,7,A,B,9,0,Incorrect!,0.29398799999034964,439.1379181000084,None,439.1379181000084,None,439.4548125000001,None,,,,,35,001,2023-05-05_15h05.47.275,uncolored_shuffled,2021.2.3,59.95070852550692,
C:\Users\subject\Desktop\SVRT Experiments\SVRT Experiment 3\svrt_images\generated_images\results_problem_7,,,C:\Users\subject\Desktop\SVRT Experiments\SVRT Experiment 3\svrt_images\generated_images\results_problem_7\sample_0_0002.png,,,,,,,,,,,,,,,,,,,,,0,2,2,2,0,5,5,5,,,,,,,,,,,,,,j,7,B,B,9,1,Correct!,0.550984299989068,440.4889253000001,None,440.4889253000001,None,441.07268620000104,None,,,,,35,001,2023-05-05_15h05.47.275,uncolored_shuffled,2021.2.3,59.95070852550692,
C:\Users\subject\Desktop\SVRT Experiments\SVRT Experiment 3\svrt_images\generated_images\results_problem_7,,,C:\Users\subject\Desktop\SVRT Experiments\SVRT Experiment 3\svrt_images\generated_images\results_problem_7\sample_1_0013.png,,,,,,,,,,,,,,,,,,,,,0,2,2,2,0,6,6,6,,,,,,,,,,,,,,f,7,A,A,9,1,Correct!,2.3403602999896975,442.1234828000015,None,442.1234828000015,None,444.4919177999982,None,,,,,35,001,2023-05-05_15h05.47.275,uncolored_shuffled,2021.2.3,59.95070852550692,
C:\Users\subject\Desktop\SVRT Experiments\SVRT Experiment 3\svrt_images\generated_images\results_problem_7,,,C:\Users\subject\Desktop\SVRT Experiments\SVRT Experiment 3\svrt_images\generated_images\results_problem_7\sample_0_0005.png,,,,,,,,,,,,,,,,,,,,,0,2,2,2,0,7,7,7,,,,,,,,,,,,,,j,7,B,B,9,1,Correct!,1.3051184000069043,445.5427097000065,None,445.5427097000065,None,446.87700649999897,None,,,,,35,001,2023-05-05_15h05.47.275,uncolored_shuffled,2021.2.3,59.95070852550692,
C:\Users\subject\Desktop\SVRT Experiments\SVRT Experiment 3\svrt_images\generated_images\results_problem_7,,,C:\Users\subject\Desktop\SVRT Experiments\SVRT Experiment 3\svrt_images\generated_images\results_problem_7\sample_0_0007.png,,,,,,,,,,,,,,,,,,,,,0,2,2,2,0,8,8,8,,,,,,,,,,,,,,f,7,A,B,9,0,Incorrect!,0.863249400004861,447.94450700000743,None,447.94450700000743,None,448.8284948000073,None,,,,,35,001,2023-05-05_15h05.47.275,uncolored_shuffled,2021.2.3,59.95070852550692,
C:\Users\subject\Desktop\SVRT Experiments\SVRT Experiment 3\svrt_images\generated_images\results_problem_7,,,C:\Users\subject\Desktop\SVRT Experiments\SVRT Experiment 3\svrt_images\generated_images\results_problem_7\sample_1_0012.png,,,,,,,,,,,,,,,,,,,,,0,2,2,2,0,9,9,9,,,,,,,,,,,,,,f,7,A,A,9,1,Correct!,1.2478768000000855,449.89593140000943,None,449.89593140000943,None,451.16357830000925,None,,,,,35,001,2023-05-05_15h05.47.275,uncolored_shuffled,2021.2.3,59.95070852550692,
C:\Users\subject\Desktop\SVRT Experiments\SVRT Experiment 3\svrt_images\generated_images\results_problem_7,,,C:\Users\subject\Desktop\SVRT Experiments\SVRT Experiment 3\svrt_images\generated_images\results_problem_7\sample_0_0010.png,,,,,,,,,,,,,,,,,,,,,0,2,2,2,0,10,10,10,,,,,,,,,,,,,,j,7,B,B,9,1,Correct!,0.8800220999983139,452.2477186000033,None,452.2477186000033,None,453.1483986000094,None,,,,,35,001,2023-05-05_15h05.47.275,uncolored_shuffled,2021.2.3,59.95070852550692,
C:\Users\subject\Desktop\SVRT Experiments\SVRT Experiment 3\svrt_images\generated_images\results_problem_7,,,C:\Users\subject\Desktop\SVRT Experiments\SVRT Experiment 3\svrt_images\generated_images\results_problem_7\sample_0_0013.png,,,,,,,,,,,,,,,,,,,,,0,2,2,2,0,11,11,11,,,,,,,,,,,,,,j,7,B,B,9,1,Correct!,1.1191539999999804,454.2325378000096,None,454.2325378000096,None,455.3833814999962,None,,,,,35,001,2023-05-05_15h05.47.275,uncolored_shuffled,2021.2.3,59.95070852550692,
C:\Users\subject\Desktop\SVRT Experiments\SVRT Experiment 3\svrt_images\generated_images\results_problem_7,,,C:\Users\subject\Desktop\SVRT Experiments\SVRT Experiment 3\svrt_images\generated_images\results_problem_7\sample_1_0008.png,,,,,,,,,,,,,,,,,,,,,0,2,2,2,0,12,12,12,,,,,,,,,,,,,,f,7,A,A,9,1,Correct!,1.2994011999981012,456.484234500007,None,456.484234500007,None,457.80188230000203,None,,,,,35,001,2023-05-05_15h05.47.275,uncolored_shuffled,2021.2.3,59.95070852550692,
C:\Users\subject\Desktop\SVRT Experiments\SVRT Experiment 3\svrt_images\generated_images\results_problem_7,,,C:\Users\subject\Desktop\SVRT Experiments\SVRT Experiment 3\svrt_images\generated_images\results_problem_7\sample_1_0014.png,,,,,,,,,,,,,,,,,,,,,0,2,2,2,0,13,13,13,,,,,,,,,,,,,,j,7,B,A,9,0,Incorrect!,0.9282394999900134,458.9194095999992,None,458.9194095999992,None,459.8700843999977,None,,,,,35,001,2023-05-05_15h05.47.275,uncolored_shuffled,2021.2.3,59.95070852550692,
C:\Users\subject\Desktop\SVRT Experiments\SVRT Experiment 3\svrt_images\generated_images\results_problem_7,,,C:\Users\subject\Desktop\SVRT Experiments\SVRT Experiment 3\svrt_images\generated_images\results_problem_7\sample_0_0003.png,,,,,,,,,,,,,,,,,,,,,0,2,2,2,0,14,14,14,,,,,,,,,,,,,,j,7,B,B,9,1,Correct!,0.5640377999952761,460.98759869999776,None,460.98759869999776,None,461.5713717000035,None,,,,,35,001,2023-05-05_15h05.47.275,uncolored_shuffled,2021.2.3,59.95070852550692,
C:\Users\subject\Desktop\SVRT Experiments\SVRT Experiment 3\svrt_images\generated_images\results_problem_7,,,C:\Users\subject\Desktop\SVRT Experiments\SVRT Experiment 3\svrt_images\generated_images\results_problem_7\sample_1_0015.png,,,,,,,,,,,,,,,,,,,,,0,2,2,2,0,15,15,15,,,,,,,,,,,,,,j,7,B,A,9,0,Incorrect!,0.7980479000107152,462.7055624000059,None,462.7055624000059,None,463.5228383000067,None,,,,,35,001,2023-05-05_15h05.47.275,uncolored_shuffled,2021.2.3,59.95070852550692,
C:\Users\subject\Desktop\SVRT Experiments\SVRT Experiment 3\svrt_images\generated_images\results_problem_7,,,C:\Users\subject\Desktop\SVRT Experiments\SVRT Experiment 3\svrt_images\generated_images\results_problem_7\sample_0_0011.png,,,,,,,,,,,,,,,,,,,,,0,2,2,2,0,16,16,16,,,,,,,,,,,,,,f,7,A,B,9,0,Incorrect!,0.5825899000046775,464.65702389999933,None,464.65702389999933,None,465.2574619000079,None,,,,,35,001,2023-05-05_15h05.47.275,uncolored_shuffled,2021.2.3,59.95070852550692,
C:\Users\subject\Desktop\SVRT Experiments\SVRT Experiment 3\svrt_images\generated_images\results_problem_7,,,C:\Users\subject\Desktop\SVRT Experiments\SVRT Experiment 3\svrt_images\generated_images\results_problem_7\sample_0_0014.png,,,,,,,,,,,,,,,,,,,,,0,2,2,2,0,17,17,17,,,,,,,,,,,,,,f,7,A,B,9,0,Incorrect!,0.4187385999975959,466.5248040000006,None,466.5248040000006,None,466.9753980999958,None,,,,,35,001,2023-05-05_15h05.47.275,uncolored_shuffled,2021.2.3,59.95070852550692,
C:\Users\subject\Desktop\SVRT Experiments\SVRT Experiment 3\svrt_images\generated_images\results_problem_7,,,C:\Users\subject\Desktop\SVRT Experiments\SVRT Experiment 3\svrt_images\generated_images\results_problem_7\sample_1_0001.png,,,,,,,,,,,,,,,,,,,,,0,2,2,2,0,18,18,18,,,,,,,,,,,,,,j,7,B,A,9,0,Incorrect!,0.38524420000612736,468.1262846000027,None,468.1262846000027,None,468.5432402000006,None,,,,,35,001,2023-05-05_15h05.47.275,uncolored_shuffled,2021.2.3,59.95070852550692,
C:\Users\subject\Desktop\SVRT Experiments\SVRT Experiment 3\svrt_images\generated_images\results_problem_7,,,C:\Users\subject\Desktop\SVRT Experiments\SVRT Experiment 3\svrt_images\generated_images\results_problem_7\sample_1_0009.png,,,,,,,,,,,,,,,,,,,,,0,2,2,2,0,19,19,19,,,,,,,,,,,,,,j,7,B,A,9,0,Incorrect!,0.28073339999536984,469.7108073999989,None,469.7108073999989,None,470.02769600000465,None,,,,,35,001,2023-05-05_15h05.47.275,uncolored_shuffled,2021.2.3,59.95070852550692,
C:\Users\subject\Desktop\SVRT Experiments\SVRT Experiment 3\svrt_images\generated_images\results_problem_7,,,C:\Users\subject\Desktop\SVRT Experiments\SVRT Experiment 3\svrt_images\generated_images\results_problem_7\sample_0_0009.png,,,,,,,,,,,,,,,,,,,,,0,2,2,2,0,20,20,20,,,,,,,,,,,,,,f,7,A,B,9,0,Incorrect!,0.37958930000604596,471.21193089999724,None,471.21193089999724,None,471.6288943999971,None,,,,,35,001,2023-05-05_15h05.47.275,uncolored_shuffled,2021.2.3,59.95070852550692,
C:\Users\subject\Desktop\SVRT Experiments\SVRT Experiment 3\svrt_images\generated_images\results_problem_7,,,C:\Users\subject\Desktop\SVRT Experiments\SVRT Experiment 3\svrt_images\generated_images\results_problem_7\sample_1_0010.png,,,,,,,,,,,,,,,,,,,,,0,2,2,2,0,21,21,21,,,,,,,,,,,,,,f,7,A,A,9,1,Correct!,0.3936746999970637,472.8297998000053,None,472.8297998000053,None,473.24678319999657,None,,,,,35,001,2023-05-05_15h05.47.275,uncolored_shuffled,2021.2.3,59.95070852550692,
C:\Users\subject\Desktop\SVRT Experiments\SVRT Experiment 3\svrt_images\generated_images\results_problem_7,,,C:\Users\subject\Desktop\SVRT Experiments\SVRT Experiment 3\svrt_images\generated_images\results_problem_7\sample_1_0011.png,,,,,,,,,,,,,,,,,,,,,0,2,2,2,0,22,22,22,,,,,,,,,,,,,,j,7,B,A,9,0,Incorrect!,0.4077864999999292,474.44770390000485,None,474.44770390000485,None,474.898022399997,None,,,,,35,001,2023-05-05_15h05.47.275,uncolored_shuffled,2021.2.3,59.95070852550692,
C:\Users\subject\Desktop\SVRT Experiments\SVRT Experiment 3\svrt_images\generated_images\results_problem_7,,,C:\Users\subject\Desktop\SVRT Experiments\SVRT Experiment 3\svrt_images\generated_images\results_problem_7\sample_0_0012.png,,,,,,,,,,,,,,,,,,,,,0,2,2,2,0,23,23,23,,,,,,,,,,,,,,f,7,A,B,9,0,Incorrect!,0.2838251999928616,476.11560449999524,None,476.11560449999524,None,476.43250049999915,None,,,,,35,001,2023-05-05_15h05.47.275,uncolored_shuffled,2021.2.3,59.95070852550692,
C:\Users\subject\Desktop\SVRT Experiments\SVRT Experiment 3\svrt_images\generated_images\results_problem_7,,,C:\Users\subject\Desktop\SVRT Experiments\SVRT Experiment 3\svrt_images\generated_images\results_problem_7\sample_0_0015.png,,,,,,,,,,,,,,,,,,,,,0,2,2,2,0,24,24,24,,,,,,,,,,,,,,f,7,A,B,9,0,Incorrect!,0.29265710001345724,477.6667657000071,None,477.6667657000071,None,478.00033979999716,None,,,,,35,001,2023-05-05_15h05.47.275,uncolored_shuffled,2021.2.3,59.95070852550692,
C:\Users\subject\Desktop\SVRT Experiments\SVRT Experiment 3\svrt_images\generated_images\results_problem_7,,,C:\Users\subject\Desktop\SVRT Experiments\SVRT Experiment 3\svrt_images\generated_images\results_problem_7\sample_1_0016.png,,,,,,,,,,,,,,,,,,,,,0,2,2,2,0,25,25,25,,,,,,,,,,,,,,j,7,B,A,9,0,Incorrect!,0.36481139999523293,479.2346080999996,None,479.2346080999996,None,479.65157960000215,None,,,,,35,001,2023-05-05_15h05.47.275,uncolored_shuffled,2021.2.3,59.95070852550692,
C:\Users\subject\Desktop\SVRT Experiments\SVRT Experiment 3\svrt_images\generated_images\results_problem_7,,,C:\Users\subject\Desktop\SVRT Experiments\SVRT Experiment 3\svrt_images\generated_images\results_problem_7\sample_1_0005.png,,,,,,,,,,,,,,,,,,,,,0,2,2,2,0,26,26,26,,,,,,,,,,,,,,j,7,B,A,9,0,Incorrect!,0.27356719999806955,480.88584250000713,None,480.88584250000713,None,481.20274300000165,None,,,,,35,001,2023-05-05_15h05.47.275,uncolored_shuffled,2021.2.3,59.95070852550692,
C:\Users\subject\Desktop\SVRT Experiments\SVRT Experiment 3\svrt_images\generated_images\results_problem_7,,,C:\Users\subject\Desktop\SVRT Experiments\SVRT Experiment 3\svrt_images\generated_images\results_problem_7\sample_1_0007.png,,,,,,,,,,,,,,,,,,,,,0,2,2,2,0,27,27,27,,,,,,,,,,,,,,j,7,B,A,9,0,Incorrect!,0.35369709999940824,482.45368620000954,None,482.45368620000954,None,482.87065430000075,None,,,,,35,001,2023-05-05_15h05.47.275,uncolored_shuffled,2021.2.3,59.95070852550692,
C:\Users\subject\Desktop\SVRT Experiments\SVRT Experiment 3\svrt_images\generated_images\results_problem_7,,,C:\Users\subject\Desktop\SVRT Experiments\SVRT Experiment 3\svrt_images\generated_images\results_problem_7\sample_0_0006.png,,,,,,,,,,,,,,,,,,,,,0,2,2,2,0,28,28,28,,,,,,,,,,,,,,j,7,B,B,9,1,Correct!,0.22908089999691583,484.13828410000133,None,484.13828410000133,None,484.4051351000089,None,,,,,35,001,2023-05-05_15h05.47.275,uncolored_shuffled,2021.2.3,59.95070852550692,
C:\Users\subject\Desktop\SVRT Experiments\SVRT Experiment 3\svrt_images\generated_images\results_problem_7,,,C:\Users\subject\Desktop\SVRT Experiments\SVRT Experiment 3\svrt_images\generated_images\results_problem_7\sample_0_0008.png,,,,,,,,,,,,,,,,,,,,,0,2,2,2,0,29,29,29,,,,,,,,,,,,,,f,7,A,B,9,0,Incorrect!,0.2459967000031611,485.68944210000336,None,485.68944210000336,None,485.9563044999959,None,,,,,35,001,2023-05-05_15h05.47.275,uncolored_shuffled,2021.2.3,59.95070852550692,
C:\Users\subject\Desktop\SVRT Experiments\SVRT Experiment 3\svrt_images\generated_images\results_problem_7,,,C:\Users\subject\Desktop\SVRT Experiments\SVRT Experiment 3\svrt_images\generated_images\results_problem_7\sample_1_0004.png,,,,,,,,,,,,,,,,,,,,,0,2,2,2,0,30,30,30,,,,,,,,,,,,,,j,7,B,A,9,0,Incorrect!,0.3587258000043221,487.2406057000044,None,487.2406057000044,None,487.6575736000086,None,,,,,35,001,2023-05-05_15h05.47.275,uncolored_shuffled,2021.2.3,59.95070852550692,
C:\Users\subject\Desktop\SVRT Experiments\SVRT Experiment 3\svrt_images\generated_images\results_problem_7,,,C:\Users\subject\Desktop\SVRT Experiments\SVRT Experiment 3\svrt_images\generated_images\results_problem_7\sample_0_0004.png,,,,,,,,,,,,,,,,,,,,,0,2,2,2,0,31,31,31,,,,,,,,,,,,,,f,7,A,B,9,0,Incorrect!,0.40000500000314787,488.9752409000066,None,488.9752409000066,None,489.39218809999875,None,,,,,35,001,2023-05-05_15h05.47.275,uncolored_shuffled,2021.2.3,59.95070852550692,
C:\Users\subject\Desktop\SVRT Experiments\SVRT Experiment 3\svrt_images\generated_images\results_problem_7,,,C:\Users\subject\Desktop\SVRT Experiments\SVRT Experiment 3\svrt_images\generated_images\results_problem_7\sample_1_0000.png,,,,,,,,,,,,,,,,,,,,,0,2,2,2,0,32,32,32,,,,,,,,,,,,,,j,7,B,A,9,0,Incorrect!,0.2560660999879474,490.7432273000013,None,490.7432273000013,None,491.02676280000014,None,,,,,35,001,2023-05-05_15h05.47.275,uncolored_shuffled,2021.2.3,59.95070852550692,
C:\Users\subject\Desktop\SVRT Experiments\SVRT Experiment 3\svrt_images\generated_images\results_problem_7,,,C:\Users\subject\Desktop\SVRT Experiments\SVRT Experiment 3\svrt_images\generated_images\results_problem_7\sample_1_0003.png,,,,,,,,,,,,,,,,,,,,,0,2,2,2,0,33,33,33,,,,,,,,,,,,,,j,7,B,A,9,0,Incorrect!,0.2388319000019692,492.3444340999995,None,492.3444340999995,None,492.6279635999963,None,,,,,35,001,2023-05-05_15h05.47.275,uncolored_shuffled,2021.2.3,59.95070852550692,
C:\Users\subject\Desktop\SVRT Experiments\SVRT Experiment 3\svrt_images\generated_images\results_problem_7,,,,,,,,,,,,,,,,,,,,,,,,0,2,2,2,,,,,,,,,,,,,,,,,,,,,,,,,,,,,,,,493.62868880000315,493.62868880000315,space,1.0585270000010496,35,001,2023-05-05_15h05.47.275,uncolored_shuffled,2021.2.3,59.95070852550692,
C:\Users\subject\Desktop\SVRT Experiments\SVRT Experiment 3\svrt_images\generated_images\results_problem_10,,,,C:\Users\subject\Desktop\SVRT Experiments\SVRT Experiment 3\svrt_images\generated_images\results_problem_10\sample_1_0007.png,,,,,,,,,,,,,,,,,,,,0,3,3,3,0,0,0,0,,,,,,,,,,,,,,j,10,B,A,9,0,Incorrect!,2.910343499999726,494.71282250000513,None,494.71282250000513,None,497.6483668000001,None,,,,,35,001,2023-05-05_15h05.47.275,uncolored_shuffled,2021.2.3,59.95070852550692,
C:\Users\subject\Desktop\SVRT Experiments\SVRT Experiment 3\svrt_images\generated_images\results_problem_10,,,,C:\Users\subject\Desktop\SVRT Experiments\SVRT Experiment 3\svrt_images\generated_images\results_problem_10\sample_0_0016.png,,,,,,,,,,,,,,,,,,,,0,3,3,3,0,1,1,1,,,,,,,,,,,,,,f,10,A,B,9,0,Incorrect!,0.7813232000044081,498.6658127999981,None,498.6658127999981,None,499.46639709999727,None,,,,,35,001,2023-05-05_15h05.47.275,uncolored_shuffled,2021.2.3,59.95070852550692,
C:\Users\subject\Desktop\SVRT Experiments\SVRT Experiment 3\svrt_images\generated_images\results_problem_10,,,,C:\Users\subject\Desktop\SVRT Experiments\SVRT Experiment 3\svrt_images\generated_images\results_problem_10\sample_0_0007.png,,,,,,,,,,,,,,,,,,,,0,3,3,3,0,2,2,2,,,,,,,,,,,,,,f,10,A,B,9,0,Incorrect!,0.643242599995574,500.48386410000967,None,500.48386410000967,None,501.1510096999991,None,,,,,35,001,2023-05-05_15h05.47.275,uncolored_shuffled,2021.2.3,59.95070852550692,
C:\Users\subject\Desktop\SVRT Experiments\SVRT Experiment 3\svrt_images\generated_images\results_problem_10,,,,C:\Users\subject\Desktop\SVRT Experiments\SVRT Experiment 3\svrt_images\generated_images\results_problem_10\sample_1_0011.png,,,,,,,,,,,,,,,,,,,,0,3,3,3,0,3,3,3,,,,,,,,,,,,,,j,10,B,A,9,0,Incorrect!,0.39071330000297166,502.1684016000072,None,502.1684016000072,None,502.5853905999975,None,,,,,35,001,2023-05-05_15h05.47.275,uncolored_shuffled,2021.2.3,59.95070852550692,
C:\Users\subject\Desktop\SVRT Experiments\SVRT Experiment 3\svrt_images\generated_images\results_problem_10,,,,C:\Users\subject\Desktop\SVRT Experiments\SVRT Experiment 3\svrt_images\generated_images\results_problem_10\sample_0_0015.png,,,,,,,,,,,,,,,,,,,,0,3,3,3,0,4,4,4,,,,,,,,,,,,,,j,10,B,B,9,1,Correct!,0.7390843000030145,503.62005549999594,None,503.62005549999594,None,504.38676160000614,None,,,,,35,001,2023-05-05_15h05.47.275,uncolored_shuffled,2021.2.3,59.95070852550692,
C:\Users\subject\Desktop\SVRT Experiments\SVRT Experiment 3\svrt_images\generated_images\results_problem_10,,,,C:\Users\subject\Desktop\SVRT Experiments\SVRT Experiment 3\svrt_images\generated_images\results_problem_10\sample_0_0012.png,,,,,,,,,,,,,,,,,,,,0,3,3,3,0,5,5,5,,,,,,,,,,,,,,f,10,A,B,9,0,Incorrect!,0.6655137999914587,505.4376468999981,None,505.4376468999981,None,506.12137609999627,None,,,,,35,001,2023-05-05_15h05.47.275,uncolored_shuffled,2021.2.3,59.95070852550692,
C:\Users\subject\Desktop\SVRT Experiments\SVRT Experiment 3\svrt_images\generated_images\results_problem_10,,,,C:\Users\subject\Desktop\SVRT Experiments\SVRT Experiment 3\svrt_images\generated_images\results_problem_10\sample_1_0003.png,,,,,,,,,,,,,,,,,,,,0,3,3,3,0,6,6,6,,,,,,,,,,,,,,j,10,B,A,9,0,Incorrect!,0.4988749000040116,507.172201399997,None,507.172201399997,None,507.6892394000024,None,,,,,35,001,2023-05-05_15h05.47.275,uncolored_shuffled,2021.2.3,59.95070852550692,
C:\Users\subject\Desktop\SVRT Experiments\SVRT Experiment 3\svrt_images\generated_images\results_problem_10,,,,C:\Users\subject\Desktop\SVRT Experiments\SVRT Experiment 3\svrt_images\generated_images\results_problem_10\sample_0_0014.png,,,,,,,,,,,,,,,,,,,,0,3,3,3,0,7,7,7,,,,,,,,,,,,,,j,10,B,B,9,1,Correct!,0.7870545000041602,508.74003440000524,None,508.74003440000524,None,509.557272200007,None,,,,,35,001,2023-05-05_15h05.47.275,uncolored_shuffled,2021.2.3,59.95070852550692,
C:\Users\subject\Desktop\SVRT Experiments\SVRT Experiment 3\svrt_images\generated_images\results_problem_10,,,,C:\Users\subject\Desktop\SVRT Experiments\SVRT Experiment 3\svrt_images\generated_images\results_problem_10\sample_0_0004.png,,,,,,,,,,,,,,,,,,,,0,3,3,3,0,8,8,8,,,,,,,,,,,,,,j,10,B,B,9,1,Correct!,0.9662188999936916,510.6247713000048,None,510.6247713000048,None,511.6088052999985,None,,,,,35,001,2023-05-05_15h05.47.275,uncolored_shuffled,2021.2.3,59.95070852550692,
C:\Users\subject\Desktop\SVRT Experiments\SVRT Experiment 3\svrt_images\generated_images\results_problem_10,,,,C:\Users\subject\Desktop\SVRT Experiments\SVRT Experiment 3\svrt_images\generated_images\results_problem_10\sample_1_0014.png,,,,,,,,,,,,,,,,,,,,0,3,3,3,0,9,9,9,,,,,,,,,,,,,,f,10,A,A,9,1,Correct!,0.6260388999944553,512.6929928000027,None,512.6929928000027,None,513.3434734000039,None,,,,,35,001,2023-05-05_15h05.47.275,uncolored_shuffled,2021.2.3,59.95070852550692,
C:\Users\subject\Desktop\SVRT Experiments\SVRT Experiment 3\svrt_images\generated_images\results_problem_10,,,,C:\Users\subject\Desktop\SVRT Experiments\SVRT Experiment 3\svrt_images\generated_images\results_problem_10\sample_1_0009.png,,,,,,,,,,,,,,,,,,,,0,3,3,3,0,10,10,10,,,,,,,,,,,,,,f,10,A,A,9,1,Correct!,0.8192944000038551,514.4276298000041,None,514.4276298000041,None,515.2782565000089,None,,,,,35,001,2023-05-05_15h05.47.275,uncolored_shuffled,2021.2.3,59.95070852550692,
C:\Users\subject\Desktop\SVRT Experiments\SVRT Experiment 3\svrt_images\generated_images\results_problem_10,,,,C:\Users\subject\Desktop\SVRT Experiments\SVRT Experiment 3\svrt_images\generated_images\results_problem_10\sample_1_0005.png,,,,,,,,,,,,,,,,,,,,0,3,3,3,0,11,11,11,,,,,,,,,,,,,,f,10,A,A,9,1,Correct!,0.7478256000031251,516.3790900000022,None,516.3790900000022,None,517.1463218999997,None,,,,,35,001,2023-05-05_15h05.47.275,uncolored_shuffled,2021.2.3,59.95070852550692,
C:\Users\subject\Desktop\SVRT Experiments\SVRT Experiment 3\svrt_images\generated_images\results_problem_10,,,,C:\Users\subject\Desktop\SVRT Experiments\SVRT Experiment 3\svrt_images\generated_images\results_problem_10\sample_0_0002.png,,,,,,,,,,,,,,,,,,,,0,3,3,3,0,12,12,12,,,,,,,,,,,,,,j,10,B,B,9,1,Correct!,0.7277873999992153,518.2471537000092,None,518.2471537000092,None,518.9977092000045,None,,,,,35,001,2023-05-05_15h05.47.275,uncolored_shuffled,2021.2.3,59.95070852550692,
C:\Users\subject\Desktop\SVRT Experiments\SVRT Experiment 3\svrt_images\generated_images\results_problem_10,,,,C:\Users\subject\Desktop\SVRT Experiments\SVRT Experiment 3\svrt_images\generated_images\results_problem_10\sample_1_0006.png,,,,,,,,,,,,,,,,,,,,0,3,3,3,0,13,13,13,,,,,,,,,,,,,,f,10,A,A,9,1,Correct!,0.5803917999874102,520.0985374000011,None,520.0985374000011,None,520.6989849000092,None,,,,,35,001,2023-05-05_15h05.47.275,uncolored_shuffled,2021.2.3,59.95070852550692,
C:\Users\subject\Desktop\SVRT Experiments\SVRT Experiment 3\svrt_images\generated_images\results_problem_10,,,,C:\Users\subject\Desktop\SVRT Experiments\SVRT Experiment 3\svrt_images\generated_images\results_problem_10\sample_1_0010.png,,,,,,,,,,,,,,,,,,,,0,3,3,3,0,14,14,14,,,,,,,,,,,,,,,,,,,,,,,,,,,,521.6997269999993,521.6997269999993,space,2.051170099992305,35,001,2023-05-05_15h05.47.275,uncolored_shuffled,2021.2.3,59.95070852550692,
C:\Users\subject\Desktop\SVRT Experiments\SVRT Experiment 3\svrt_images\generated_images\results_problem_22,,,,C:\Users\subject\Desktop\SVRT Experiments\SVRT Experiment 3\svrt_images\generated_images\results_problem_10\sample_1_0010.png,C:\Users\subject\Desktop\SVRT Experiments\SVRT Experiment 3\svrt_images\generated_images\results_problem_22\sample_1_0009.png,,,,,,,,,,,,,,,,,,,0,4,4,4,0,0,0,0,,,,,,,,,,,,,,j,22,B,A,9,0,Incorrect!,1.8228631999954814,523.7679560999968,None,523.7679560999968,None,525.6193359000026,None,,,,,35,001,2023-05-05_15h05.47.275,uncolored_shuffled,2021.2.3,59.95070852550692,
C:\Users\subject\Desktop\SVRT Experiments\SVRT Experiment 3\svrt_images\generated_images\results_problem_22,,,,C:\Users\subject\Desktop\SVRT Experiments\SVRT Experiment 3\svrt_images\generated_images\results_problem_10\sample_1_0010.png,C:\Users\subject\Desktop\SVRT Experiments\SVRT Experiment 3\svrt_images\generated_images\results_problem_22\sample_0_0005.png,,,,,,,,,,,,,,,,,,,0,4,4,4,0,1,1,1,,,,,,,,,,,,,,j,22,B,B,9,1,Correct!,2.1307359999918845,526.620087000003,None,526.620087000003,None,528.7716985000006,None,,,,,35,001,2023-05-05_15h05.47.275,uncolored_shuffled,2021.2.3,59.95070852550692,
C:\Users\subject\Desktop\SVRT Experiments\SVRT Experiment 3\svrt_images\generated_images\results_problem_22,,,,C:\Users\subject\Desktop\SVRT Experiments\SVRT Experiment 3\svrt_images\generated_images\results_problem_10\sample_1_0010.png,C:\Users\subject\Desktop\SVRT Experiments\SVRT Experiment 3\svrt_images\generated_images\results_problem_22\sample_0_0008.png,,,,,,,,,,,,,,,,,,,0,4,4,4,0,2,2,2,,,,,,,,,,,,,,j,22,B,B,9,1,Correct!,1.8336551999964286,529.7891288999963,None,529.7891288999963,None,531.6405058999953,None,,,,,35,001,2023-05-05_15h05.47.275,uncolored_shuffled,2021.2.3,59.95070852550692,
C:\Users\subject\Desktop\SVRT Experiments\SVRT Experiment 3\svrt_images\generated_images\results_problem_22,,,,C:\Users\subject\Desktop\SVRT Experiments\SVRT Experiment 3\svrt_images\generated_images\results_problem_10\sample_1_0010.png,C:\Users\subject\Desktop\SVRT Experiments\SVRT Experiment 3\svrt_images\generated_images\results_problem_22\sample_0_0013.png,,,,,,,,,,,,,,,,,,,0,4,4,4,0,3,3,3,,,,,,,,,,,,,,f,22,A,B,9,0,Incorrect!,0.7889163999934681,532.6579447999975,None,532.6579447999975,None,533.4752029000083,None,,,,,35,001,2023-05-05_15h05.47.275,uncolored_shuffled,2021.2.3,59.95070852550692,
C:\Users\subject\Desktop\SVRT Experiments\SVRT Experiment 3\svrt_images\generated_images\results_problem_22,,,,C:\Users\subject\Desktop\SVRT Experiments\SVRT Experiment 3\svrt_images\generated_images\results_problem_10\sample_1_0010.png,C:\Users\subject\Desktop\SVRT Experiments\SVRT Experiment 3\svrt_images\generated_images\results_problem_22\sample_0_0000.png,,,,,,,,,,,,,,,,,,,0,4,4,4,0,4,4,4,,,,,,,,,,,,,,j,22,B,B,9,1,Correct!,0.6495291000028374,534.5093341000029,None,534.5093341000029,None,535.176492700004,None,,,,,35,001,2023-05-05_15h05.47.275,uncolored_shuffled,2021.2.3,59.95070852550692,
C:\Users\subject\Desktop\SVRT Experiments\SVRT Experiment 3\svrt_images\generated_images\results_problem_22,,,,C:\Users\subject\Desktop\SVRT Experiments\SVRT Experiment 3\svrt_images\generated_images\results_problem_10\sample_1_0010.png,C:\Users\subject\Desktop\SVRT Experiments\SVRT Experiment 3\svrt_images\generated_images\results_problem_22\sample_1_0000.png,,,,,,,,,,,,,,,,,,,0,4,4,4,0,5,5,5,,,,,,,,,,,,,,f,22,A,A,9,1,Correct!,1.2663554000027943,536.2123475999979,None,536.2123475999979,None,537.5115632000088,None,,,,,35,001,2023-05-05_15h05.47.275,uncolored_shuffled,2021.2.3,59.95070852550692,
C:\Users\subject\Desktop\SVRT Experiments\SVRT Experiment 3\svrt_images\generated_images\results_problem_22,,,,C:\Users\subject\Desktop\SVRT Experiments\SVRT Experiment 3\svrt_images\generated_images\results_problem_10\sample_1_0010.png,C:\Users\subject\Desktop\SVRT Experiments\SVRT Experiment 3\svrt_images\generated_images\results_problem_22\sample_1_0006.png,,,,,,,,,,,,,,,,,,,0,4,4,4,0,6,6,6,,,,,,,,,,,,,,f,22,A,A,9,1,Correct!,1.3883486999984598,538.562330700006,None,538.562330700006,None,539.9800892000058,None,,,,,35,001,2023-05-05_15h05.47.275,uncolored_shuffled,2021.2.3,59.95070852550692,
C:\Users\subject\Desktop\SVRT Experiments\SVRT Experiment 3\svrt_images\generated_images\results_problem_22,,,,C:\Users\subject\Desktop\SVRT Experiments\SVRT Experiment 3\svrt_images\generated_images\results_problem_10\sample_1_0010.png,C:\Users\subject\Desktop\SVRT Experiments\SVRT Experiment 3\svrt_images\generated_images\results_problem_22\sample_1_0008.png,,,,,,,,,,,,,,,,,,,0,4,4,4,0,7,7,7,,,,,,,,,,,,,,j,22,B,A,9,0,Incorrect!,0.8237540999980411,541.0308744000067,None,541.0308744000067,None,541.8814757000073,None,,,,,35,001,2023-05-05_15h05.47.275,uncolored_shuffled,2021.2.3,59.95070852550692,
C:\Users\subject\Desktop\SVRT Experiments\SVRT Experiment 3\svrt_images\generated_images\results_problem_22,,,,C:\Users\subject\Desktop\SVRT Experiments\SVRT Experiment 3\svrt_images\generated_images\results_problem_10\sample_1_0010.png,C:\Users\subject\Desktop\SVRT Experiments\SVRT Experiment 3\svrt_images\generated_images\results_problem_22\sample_0_0014.png,,,,,,,,,,,,,,,,,,,0,4,4,4,0,8,8,8,,,,,,,,,,,,,,f,22,A,B,9,0,Incorrect!,0.8336390999902505,542.948985199997,None,542.948985199997,None,543.7995938999957,None,,,,,35,001,2023-05-05_15h05.47.275,uncolored_shuffled,2021.2.3,59.95070852550692,
C:\Users\subject\Desktop\SVRT Experiments\SVRT Experiment 3\svrt_images\generated_images\results_problem_22,,,,C:\Users\subject\Desktop\SVRT Experiments\SVRT Experiment 3\svrt_images\generated_images\results_problem_10\sample_1_0010.png,C:\Users\subject\Desktop\SVRT Experiments\SVRT Experiment 3\svrt_images\generated_images\results_problem_22\sample_0_0001.png,,,,,,,,,,,,,,,,,,,0,4,4,4,0,9,9,9,,,,,,,,,,,,,,j,22,B,B,9,1,Correct!,1.419528900005389,544.8670834000077,None,544.8670834000077,None,546.3181659999973,None,,,,,35,001,2023-05-05_15h05.47.275,uncolored_shuffled,2021.2.3,59.95070852550692,
C:\Users\subject\Desktop\SVRT Experiments\SVRT Experiment 3\svrt_images\generated_images\results_problem_22,,,,C:\Users\subject\Desktop\SVRT Experiments\SVRT Experiment 3\svrt_images\generated_images\results_problem_10\sample_1_0010.png,C:\Users\subject\Desktop\SVRT Experiments\SVRT Experiment 3\svrt_images\generated_images\results_problem_22\sample_0_0009.png,,,,,,,,,,,,,,,,,,,0,4,4,4,0,10,10,10,,,,,,,,,,,,,,j,22,B,B,9,1,Correct!,0.9962835000042105,547.4023175000038,None,547.4023175000038,None,548.4197527000069,None,,,,,35,001,2023-05-05_15h05.47.275,uncolored_shuffled,2021.2.3,59.95070852550692,
C:\Users\subject\Desktop\SVRT Experiments\SVRT Experiment 3\svrt_images\generated_images\results_problem_22,,,,C:\Users\subject\Desktop\SVRT Experiments\SVRT Experiment 3\svrt_images\generated_images\results_problem_10\sample_1_0010.png,C:\Users\subject\Desktop\SVRT Experiments\SVRT Experiment 3\svrt_images\generated_images\results_problem_22\sample_0_0007.png,,,,,,,,,,,,,,,,,,,0,4,4,4,0,11,11,11,,,,,,,,,,,,,,j,22,B,B,9,1,Correct!,1.2699953999981517,549.5205653000012,None,549.5205653000012,None,550.8215431999997,None,,,,,35,001,2023-05-05_15h05.47.275,uncolored_shuffled,2021.2.3,59.95070852550692,
C:\Users\subject\Desktop\SVRT Experiments\SVRT Experiment 3\svrt_images\generated_images\results_problem_22,,,,C:\Users\subject\Desktop\SVRT Experiments\SVRT Experiment 3\svrt_images\generated_images\results_problem_10\sample_1_0010.png,C:\Users\subject\Desktop\SVRT Experiments\SVRT Experiment 3\svrt_images\generated_images\results_problem_22\sample_1_0010.png,,,,,,,,,,,,,,,,,,,0,4,4,4,0,12,12,12,,,,,,,,,,,,,,j,22,B,A,9,0,Incorrect!,0.9561702999926638,551.9223716999986,None,551.9223716999986,None,552.906435900004,None,,,,,35,001,2023-05-05_15h05.47.275,uncolored_shuffled,2021.2.3,59.95070852550692,
C:\Users\subject\Desktop\SVRT Experiments\SVRT Experiment 3\svrt_images\generated_images\results_problem_22,,,,C:\Users\subject\Desktop\SVRT Experiments\SVRT Experiment 3\svrt_images\generated_images\results_problem_10\sample_1_0010.png,C:\Users\subject\Desktop\SVRT Experiments\SVRT Experiment 3\svrt_images\generated_images\results_problem_22\sample_0_0002.png,,,,,,,,,,,,,,,,,,,0,4,4,4,0,13,13,13,,,,,,,,,,,,,,j,22,B,B,9,1,Correct!,0.6712581000028877,554.0072585000016,None,554.0072585000016,None,554.7077841999999,None,,,,,35,001,2023-05-05_15h05.47.275,uncolored_shuffled,2021.2.3,59.95070852550692,
C:\Users\subject\Desktop\SVRT Experiments\SVRT Experiment 3\svrt_images\generated_images\results_problem_22,,,,C:\Users\subject\Desktop\SVRT Experiments\SVRT Experiment 3\svrt_images\generated_images\results_problem_10\sample_1_0010.png,C:\Users\subject\Desktop\SVRT Experiments\SVRT Experiment 3\svrt_images\generated_images\results_problem_22\sample_0_0011.png,,,,,,,,,,,,,,,,,,,0,4,4,4,0,14,14,14,,,,,,,,,,,,,,j,22,B,B,9,1,Correct!,0.7811948000016855,555.8252909000003,None,555.8252909000003,None,556.6258989000053,None,,,,,35,001,2023-05-05_15h05.47.275,uncolored_shuffled,2021.2.3,59.95070852550692,
C:\Users\subject\Desktop\SVRT Experiments\SVRT Experiment 3\svrt_images\generated_images\results_problem_22,,,,C:\Users\subject\Desktop\SVRT Experiments\SVRT Experiment 3\svrt_images\generated_images\results_problem_10\sample_1_0010.png,C:\Users\subject\Desktop\SVRT Experiments\SVRT Experiment 3\svrt_images\generated_images\results_problem_22\sample_0_0015.png,,,,,,,,,,,,,,,,,,,0,4,4,4,0,15,15,15,,,,,,,,,,,,,,j,22,B,B,9,1,Correct!,0.7343957999983104,557.7600762000075,None,557.7600762000075,None,558.5273118000041,None,,,,,35,001,2023-05-05_15h05.47.275,uncolored_shuffled,2021.2.3,59.95070852550692,
C:\Users\subject\Desktop\SVRT Experiments\SVRT Experiment 3\svrt_images\generated_images\results_problem_22,,,,C:\Users\subject\Desktop\SVRT Experiments\SVRT Experiment 3\svrt_images\generated_images\results_problem_10\sample_1_0010.png,C:\Users\subject\Desktop\SVRT Experiments\SVRT Experiment 3\svrt_images\generated_images\results_problem_22\sample_0_0012.png,,,,,,,,,,,,,,,,,,,0,4,4,4,0,16,16,16,,,,,,,,,,,,,,f,22,A,B,9,0,Incorrect!,0.7515726999990875,559.6948754000041,None,559.6948754000041,None,560.4788046000031,None,,,,,35,001,2023-05-05_15h05.47.275,uncolored_shuffled,2021.2.3,59.95070852550692,
C:\Users\subject\Desktop\SVRT Experiments\SVRT Experiment 3\svrt_images\generated_images\results_problem_22,,,,C:\Users\subject\Desktop\SVRT Experiments\SVRT Experiment 3\svrt_images\generated_images\results_problem_10\sample_1_0010.png,C:\Users\subject\Desktop\SVRT Experiments\SVRT Experiment 3\svrt_images\generated_images\results_problem_22\sample_1_0014.png,,,,,,,,,,,,,,,,,,,0,4,4,4,0,17,17,17,,,,,,,,,,,,,,j,22,B,A,9,0,Incorrect!,0.5358356000069762,561.6466305000067,None,561.6466305000067,None,562.230083900009,None,,,,,35,001,2023-05-05_15h05.47.275,uncolored_shuffled,2021.2.3,59.95070852550692,
C:\Users\subject\Desktop\SVRT Experiments\SVRT Experiment 3\svrt_images\generated_images\results_problem_22,,,,C:\Users\subject\Desktop\SVRT Experiments\SVRT Experiment 3\svrt_images\generated_images\results_problem_10\sample_1_0010.png,C:\Users\subject\Desktop\SVRT Experiments\SVRT Experiment 3\svrt_images\generated_images\results_problem_22\sample_1_0015.png,,,,,,,,,,,,,,,,,,,0,4,4,4,0,18,18,18,,,,,,,,,,,,,,j,22,B,A,9,0,Incorrect!,1.1934485999954632,563.3809488999977,None,563.3809488999977,None,564.5985256999993,None,,,,,35,001,2023-05-05_15h05.47.275,uncolored_shuffled,2021.2.3,59.95070852550692,
C:\Users\subject\Desktop\SVRT Experiments\SVRT Experiment 3\svrt_images\generated_images\results_problem_22,,,,C:\Users\subject\Desktop\SVRT Experiments\SVRT Experiment 3\svrt_images\generated_images\results_problem_10\sample_1_0010.png,C:\Users\subject\Desktop\SVRT Experiments\SVRT Experiment 3\svrt_images\generated_images\results_problem_22\sample_1_0007.png,,,,,,,,,,,,,,,,,,,0,4,4,4,0,19,19,19,,,,,,,,,,,,,,j,22,B,A,9,0,Incorrect!,1.0162915999972029,565.7660706000024,None,565.7660706000024,None,566.8168494999991,None,,,,,35,001,2023-05-05_15h05.47.275,uncolored_shuffled,2021.2.3,59.95070852550692,
C:\Users\subject\Desktop\SVRT Experiments\SVRT Experiment 3\svrt_images\generated_images\results_problem_22,,,,C:\Users\subject\Desktop\SVRT Experiments\SVRT Experiment 3\svrt_images\generated_images\results_problem_10\sample_1_0010.png,C:\Users\subject\Desktop\SVRT Experiments\SVRT Experiment 3\svrt_images\generated_images\results_problem_22\sample_1_0003.png,,,,,,,,,,,,,,,,,,,0,4,4,4,0,20,20,20,,,,,,,,,,,,,,j,22,B,A,9,0,Incorrect!,0.8532643999933498,568.0010770000081,None,568.0010770000081,None,568.885062100002,None,,,,,35,001,2023-05-05_15h05.47.275,uncolored_shuffled,2021.2.3,59.95070852550692,
C:\Users\subject\Desktop\SVRT Experiments\SVRT Experiment 3\svrt_images\generated_images\results_problem_22,,,,C:\Users\subject\Desktop\SVRT Experiments\SVRT Experiment 3\svrt_images\generated_images\results_problem_10\sample_1_0010.png,C:\Users\subject\Desktop\SVRT Experiments\SVRT Experiment 3\svrt_images\generated_images\results_problem_22\sample_0_0003.png,,,,,,,,,,,,,,,,,,,0,4,4,4,0,21,21,21,,,,,,,,,,,,,,f,22,A,B,9,0,Incorrect!,0.35233000000880565,570.0859981999965,None,570.0859981999965,None,570.4696336000052,None,,,,,35,001,2023-05-05_15h05.47.275,uncolored_shuffled,2021.2.3,59.95070852550692,
C:\Users\subject\Desktop\SVRT Experiments\SVRT Experiment 3\svrt_images\generated_images\results_problem_22,,,,C:\Users\subject\Desktop\SVRT Experiments\SVRT Experiment 3\svrt_images\generated_images\results_problem_10\sample_1_0010.png,C:\Users\subject\Desktop\SVRT Experiments\SVRT Experiment 3\svrt_images\generated_images\results_problem_22\sample_1_0013.png,,,,,,,,,,,,,,,,,,,0,4,4,4,0,22,22,22,,,,,,,,,,,,,,f,22,A,A,9,1,Correct!,0.6397665999975288,571.670492899997,None,571.670492899997,None,572.3543351999979,None,,,,,35,001,2023-05-05_15h05.47.275,uncolored_shuffled,2021.2.3,59.95070852550692,
C:\Users\subject\Desktop\SVRT Experiments\SVRT Experiment 3\svrt_images\generated_images\results_problem_22,,,,C:\Users\subject\Desktop\SVRT Experiments\SVRT Experiment 3\svrt_images\generated_images\results_problem_10\sample_1_0010.png,C:\Users\subject\Desktop\SVRT Experiments\SVRT Experiment 3\svrt_images\generated_images\results_problem_22\sample_1_0011.png,,,,,,,,,,,,,,,,,,,0,4,4,4,0,23,23,23,,,,,,,,,,,,,,j,22,B,A,9,0,Incorrect!,0.899046399994404,573.5552387000062,None,573.5552387000062,None,574.4725880000042,None,,,,,35,001,2023-05-05_15h05.47.275,uncolored_shuffled,2021.2.3,59.95070852550692,
C:\Users\subject\Desktop\SVRT Experiments\SVRT Experiment 3\svrt_images\generated_images\results_problem_22,,,,C:\Users\subject\Desktop\SVRT Experiments\SVRT Experiment 3\svrt_images\generated_images\results_problem_10\sample_1_0010.png,C:\Users\subject\Desktop\SVRT Experiments\SVRT Experiment 3\svrt_images\generated_images\results_problem_22\sample_0_0016.png,,,,,,,,,,,,,,,,,,,0,4,4,4,0,24,24,24,,,,,,,,,,,,,,j,22,B,B,9,1,Correct!,0.5560793000040576,575.690159699996,None,575.690159699996,None,576.2906112000055,None,,,,,35,001,2023-05-05_15h05.47.275,uncolored_shuffled,2021.2.3,59.95070852550692,
C:\Users\subject\Desktop\SVRT Experiments\SVRT Experiment 3\svrt_images\generated_images\results_problem_22,,,,C:\Users\subject\Desktop\SVRT Experiments\SVRT Experiment 3\svrt_images\generated_images\results_problem_10\sample_1_0010.png,C:\Users\subject\Desktop\SVRT Experiments\SVRT Experiment 3\svrt_images\generated_images\results_problem_22\sample_0_0010.png,,,,,,,,,,,,,,,,,,,0,4,4,4,0,25,25,25,,,,,,,,,,,,,,j,22,B,B,9,1,Correct!,0.7293598999967799,577.5248802999995,None,577.5248802999995,None,578.2754297000065,None,,,,,35,001,2023-05-05_15h05.47.275,uncolored_shuffled,2021.2.3,59.95070852550692,
C:\Users\subject\Desktop\SVRT Experiments\SVRT Experiment 3\svrt_images\generated_images\results_problem_22,,,,C:\Users\subject\Desktop\SVRT Experiments\SVRT Experiment 3\svrt_images\generated_images\results_problem_10\sample_1_0010.png,C:\Users\subject\Desktop\SVRT Experiments\SVRT Experiment 3\svrt_images\generated_images\results_problem_22\sample_1_0002.png,,,,,,,,,,,,,,,,,,,0,4,4,4,0,26,26,26,,,,,,,,,,,,,,f,22,A,A,9,1,Correct!,0.6325188000046182,579.509693400003,None,579.509693400003,None,580.1768577000039,None,,,,,35,001,2023-05-05_15h05.47.275,uncolored_shuffled,2021.2.3,59.95070852550692,
C:\Users\subject\Desktop\SVRT Experiments\SVRT Experiment 3\svrt_images\generated_images\results_problem_22,,,,C:\Users\subject\Desktop\SVRT Experiments\SVRT Experiment 3\svrt_images\generated_images\results_problem_10\sample_1_0010.png,C:\Users\subject\Desktop\SVRT Experiments\SVRT Experiment 3\svrt_images\generated_images\results_problem_22\sample_1_0016.png,,,,,,,,,,,,,,,,,,,0,4,4,4,0,27,27,27,,,,,,,,,,,,,,j,22,B,A,9,0,Incorrect!,0.7943827999988571,581.4278015000018,None,581.4278015000018,None,582.2450699000037,None,,,,,35,001,2023-05-05_15h05.47.275,uncolored_shuffled,2021.2.3,59.95070852550692,
C:\Users\subject\Desktop\SVRT Experiments\SVRT Experiment 3\svrt_images\generated_images\results_problem_22,,,,C:\Users\subject\Desktop\SVRT Experiments\SVRT Experiment 3\svrt_images\generated_images\results_problem_10\sample_1_0010.png,C:\Users\subject\Desktop\SVRT Experiments\SVRT Experiment 3\svrt_images\generated_images\results_problem_22\sample_1_0012.png,,,,,,,,,,,,,,,,,,,0,4,4,4,0,28,28,28,,,,,,,,,,,,,,j,22,B,A,9,0,Incorrect!,0.6687926999875344,583.5293665000063,None,583.5293665000063,None,584.2465659000009,None,,,,,35,001,2023-05-05_15h05.47.275,uncolored_shuffled,2021.2.3,59.95070852550692,
C:\Users\subject\Desktop\SVRT Experiments\SVRT Experiment 3\svrt_images\generated_images\results_problem_22,,,,C:\Users\subject\Desktop\SVRT Experiments\SVRT Experiment 3\svrt_images\generated_images\results_problem_10\sample_1_0010.png,C:\Users\subject\Desktop\SVRT Experiments\SVRT Experiment 3\svrt_images\generated_images\results_problem_22\sample_0_0004.png,,,,,,,,,,,,,,,,,,,0,4,4,4,0,29,29,29,,,,,,,,,,,,,,f,22,A,B,9,0,Incorrect!,0.6039077000023099,585.5141983000067,None,585.5141983000067,None,586.1813451000053,None,,,,,35,001,2023-05-05_15h05.47.275,uncolored_shuffled,2021.2.3,59.95070852550692,
C:\Users\subject\Desktop\SVRT Experiments\SVRT Experiment 3\svrt_images\generated_images\results_problem_22,,,,C:\Users\subject\Desktop\SVRT Experiments\SVRT Experiment 3\svrt_images\generated_images\results_problem_10\sample_1_0010.png,C:\Users\subject\Desktop\SVRT Experiments\SVRT Experiment 3\svrt_images\generated_images\results_problem_22\sample_1_0004.png,,,,,,,,,,,,,,,,,,,0,4,4,4,0,30,30,30,,,,,,,,,,,,,,j,22,B,A,9,0,Incorrect!,0.9644390000030398,587.4656410000025,None,587.4656410000025,None,588.4496744000062,None,,,,,35,001,2023-05-05_15h05.47.275,uncolored_shuffled,2021.2.3,59.95070852550692,
C:\Users\subject\Desktop\SVRT Experiments\SVRT Experiment 3\svrt_images\generated_images\results_problem_22,,,,C:\Users\subject\Desktop\SVRT Experiments\SVRT Experiment 3\svrt_images\generated_images\results_problem_10\sample_1_0010.png,C:\Users\subject\Desktop\SVRT Experiments\SVRT Experiment 3\svrt_images\generated_images\results_problem_22\sample_0_0006.png,,,,,,,,,,,,,,,,,,,0,4,4,4,0,31,31,31,,,,,,,,,,,,,,f,22,A,B,9,0,Incorrect!,0.5833877999975812,589.7506973999989,None,589.7506973999989,None,590.3678138999967,None,,,,,35,001,2023-05-05_15h05.47.275,uncolored_shuffled,2021.2.3,59.95070852550692,
C:\Users\subject\Desktop\SVRT Experiments\SVRT Experiment 3\svrt_images\generated_images\results_problem_22,,,,C:\Users\subject\Desktop\SVRT Experiments\SVRT Experiment 3\svrt_images\generated_images\results_problem_10\sample_1_0010.png,C:\Users\subject\Desktop\SVRT Experiments\SVRT Experiment 3\svrt_images\generated_images\results_problem_22\sample_1_0001.png,,,,,,,,,,,,,,,,,,,0,4,4,4,0,32,32,32,,,,,,,,,,,,,,j,22,B,A,9,0,Incorrect!,0.4325557999982266,591.6854700999975,None,591.6854700999975,None,592.1691482000024,None,,,,,35,001,2023-05-05_15h05.47.275,uncolored_shuffled,2021.2.3,59.95070852550692,
C:\Users\subject\Desktop\SVRT Experiments\SVRT Experiment 3\svrt_images\generated_images\results_problem_22,,,,C:\Users\subject\Desktop\SVRT Experiments\SVRT Experiment 3\svrt_images\generated_images\results_problem_10\sample_1_0010.png,C:\Users\subject\Desktop\SVRT Experiments\SVRT Experiment 3\svrt_images\generated_images\results_problem_22\sample_1_0005.png,,,,,,,,,,,,,,,,,,,0,4,4,4,0,33,33,33,,,,,,,,,,,,,,j,22,B,A,9,0,Incorrect!,0.2392011000047205,593.4868341999972,None,593.4868341999972,None,593.7703685000015,None,,,,,35,001,2023-05-05_15h05.47.275,uncolored_shuffled,2021.2.3,59.95070852550692,
C:\Users\subject\Desktop\SVRT Experiments\SVRT Experiment 3\svrt_images\generated_images\results_problem_22,,,,C:\Users\subject\Desktop\SVRT Experiments\SVRT Experiment 3\svrt_images\generated_images\results_problem_10\sample_1_0010.png,,,,,,,,,,,,,,,,,,,,0,4,4,4,0,14,14,14,,,,,,,,,,,,,,,,,,,,,,,,,,,,594.7711300000083,594.7711300000083,space,1.4028830000024755,35,001,2023-05-05_15h05.47.275,uncolored_shuffled,2021.2.3,59.95070852550692,
C:\Users\subject\Desktop\SVRT Experiments\SVRT Experiment 3\svrt_images\generated_images\results_problem_17,,,,C:\Users\subject\Desktop\SVRT Experiments\SVRT Experiment 3\svrt_images\generated_images\results_problem_10\sample_1_0010.png,,C:\Users\subject\Desktop\SVRT Experiments\SVRT Experiment 3\svrt_images\generated_images\results_problem_17\sample_0_0004.png,,,,,,,,,,,,,,,,,,0,5,5,5,0,0,0,0,,,,,,,,,,,,,,j,17,B,B,9,1,Correct!,1.3924816000071587,596.2054833000002,None,596.2054833000002,None,597.6232519000041,None,,,,,35,001,2023-05-05_15h05.47.275,uncolored_shuffled,2021.2.3,59.95070852550692,
C:\Users\subject\Desktop\SVRT Experiments\SVRT Experiment 3\svrt_images\generated_images\results_problem_17,,,,C:\Users\subject\Desktop\SVRT Experiments\SVRT Experiment 3\svrt_images\generated_images\results_problem_10\sample_1_0010.png,,C:\Users\subject\Desktop\SVRT Experiments\SVRT Experiment 3\svrt_images\generated_images\results_problem_17\sample_0_0009.png,,,,,,,,,,,,,,,,,,0,5,5,5,0,1,1,1,,,,,,,,,,,,,,f,17,A,B,9,0,Incorrect!,0.6939517999999225,598.6239921000088,None,598.6239921000088,None,599.3411830999976,None,,,,,35,001,2023-05-05_15h05.47.275,uncolored_shuffled,2021.2.3,59.95070852550692,
C:\Users\subject\Desktop\SVRT Experiments\SVRT Experiment 3\svrt_images\generated_images\results_problem_17,,,,C:\Users\subject\Desktop\SVRT Experiments\SVRT Experiment 3\svrt_images\generated_images\results_problem_10\sample_1_0010.png,,C:\Users\subject\Desktop\SVRT Experiments\SVRT Experiment 3\svrt_images\generated_images\results_problem_17\sample_0_0011.png,,,,,,,,,,,,,,,,,,0,5,5,5,0,2,2,2,,,,,,,,,,,,,,j,17,B,B,9,1,Correct!,0.47146699999575503,600.3585965999955,None,600.3585965999955,None,600.8590093000093,None,,,,,35,001,2023-05-05_15h05.47.275,uncolored_shuffled,2021.2.3,59.95070852550692,
C:\Users\subject\Desktop\SVRT Experiments\SVRT Experiment 3\svrt_images\generated_images\results_problem_17,,,,C:\Users\subject\Desktop\SVRT Experiments\SVRT Experiment 3\svrt_images\generated_images\results_problem_10\sample_1_0010.png,,C:\Users\subject\Desktop\SVRT Experiments\SVRT Experiment 3\svrt_images\generated_images\results_problem_17\sample_0_0008.png,,,,,,,,,,,,,,,,,,0,5,5,5,0,3,3,3,,,,,,,,,,,,,,f,17,A,B,9,0,Incorrect!,0.9934841000067536,601.8764384000096,None,601.8764384000096,None,602.8938707000052,None,,,,,35,001,2023-05-05_15h05.47.275,uncolored_shuffled,2021.2.3,59.95070852550692,
C:\Users\subject\Desktop\SVRT Experiments\SVRT Experiment 3\svrt_images\generated_images\results_problem_17,,,,C:\Users\subject\Desktop\SVRT Experiments\SVRT Experiment 3\svrt_images\generated_images\results_problem_10\sample_1_0010.png,,C:\Users\subject\Desktop\SVRT Experiments\SVRT Experiment 3\svrt_images\generated_images\results_problem_17\sample_1_0009.png,,,,,,,,,,,,,,,,,,0,5,5,5,0,4,4,4,,,,,,,,,,,,,,f,17,A,A,9,1,Correct!,0.5739673000061885,603.9279424999986,None,603.9279424999986,None,604.528423900003,None,,,,,35,001,2023-05-05_15h05.47.275,uncolored_shuffled,2021.2.3,59.95070852550692,
C:\Users\subject\Desktop\SVRT Experiments\SVRT Experiment 3\svrt_images\generated_images\results_problem_17,,,,C:\Users\subject\Desktop\SVRT Experiments\SVRT Experiment 3\svrt_images\generated_images\results_problem_10\sample_1_0010.png,,C:\Users\subject\Desktop\SVRT Experiments\SVRT Experiment 3\svrt_images\generated_images\results_problem_17\sample_0_0013.png,,,,,,,,,,,,,,,,,,0,5,5,5,0,5,5,5,,,,,,,,,,,,,,j,17,B,B,9,1,Correct!,0.6753195999917807,605.5625375000091,None,605.5625375000091,None,606.2630561999977,None,,,,,35,001,2023-05-05_15h05.47.275,uncolored_shuffled,2021.2.3,59.95070852550692,
C:\Users\subject\Desktop\SVRT Experiments\SVRT Experiment 3\svrt_images\generated_images\results_problem_17,,,,C:\Users\subject\Desktop\SVRT Experiments\SVRT Experiment 3\svrt_images\generated_images\results_problem_10\sample_1_0010.png,,C:\Users\subject\Desktop\SVRT Experiments\SVRT Experiment 3\svrt_images\generated_images\results_problem_17\sample_1_0002.png,,,,,,,,,,,,,,,,,,0,5,5,5,0,6,6,6,,,,,,,,,,,,,,j,17,B,A,9,0,Incorrect!,0.7800076000130503,607.3138457000023,None,607.3138457000023,None,608.1144419000047,None,,,,,35,001,2023-05-05_15h05.47.275,uncolored_shuffled,2021.2.3,59.95070852550692,
C:\Users\subject\Desktop\SVRT Experiments\SVRT Experiment 3\svrt_images\generated_images\results_problem_17,,,,C:\Users\subject\Desktop\SVRT Experiments\SVRT Experiment 3\svrt_images\generated_images\results_problem_10\sample_1_0010.png,,C:\Users\subject\Desktop\SVRT Experiments\SVRT Experiment 3\svrt_images\generated_images\results_problem_17\sample_0_0001.png,,,,,,,,,,,,,,,,,,0,5,5,5,0,7,7,7,,,,,,,,,,,,,,j,17,B,B,9,1,Correct!,0.8246170999918832,609.1652367000061,None,609.1652367000061,None,610.0158781000064,None,,,,,35,001,2023-05-05_15h05.47.275,uncolored_shuffled,2021.2.3,59.95070852550692,
C:\Users\subject\Desktop\SVRT Experiments\SVRT Experiment 3\svrt_images\generated_images\results_problem_17,,,,C:\Users\subject\Desktop\SVRT Experiments\SVRT Experiment 3\svrt_images\generated_images\results_problem_10\sample_1_0010.png,,C:\Users\subject\Desktop\SVRT Experiments\SVRT Experiment 3\svrt_images\generated_images\results_problem_17\sample_1_0003.png,,,,,,,,,,,,,,,,,,0,5,5,5,0,8,8,8,,,,,,,,,,,,,,f,17,A,A,9,1,Correct!,0.6024458000028972,611.0833377999952,None,611.0833377999952,None,611.7171220000018,None,,,,,35,001,2023-05-05_15h05.47.275,uncolored_shuffled,2021.2.3,59.95070852550692,
C:\Users\subject\Desktop\SVRT Experiments\SVRT Experiment 3\svrt_images\generated_images\results_problem_17,,,,C:\Users\subject\Desktop\SVRT Experiments\SVRT Experiment 3\svrt_images\generated_images\results_problem_10\sample_1_0010.png,,C:\Users\subject\Desktop\SVRT Experiments\SVRT Experiment 3\svrt_images\generated_images\results_problem_17\sample_1_0007.png,,,,,,,,,,,,,,,,,,0,5,5,5,0,9,9,9,,,,,,,,,,,,,,j,17,B,A,9,0,Incorrect!,0.5173905999981798,612.7845577999979,None,612.7845577999979,None,613.3350177999964,None,,,,,35,001,2023-05-05_15h05.47.275,uncolored_shuffled,2021.2.3,59.95070852550692,
C:\Users\subject\Desktop\SVRT Experiments\SVRT Experiment 3\svrt_images\generated_images\results_problem_17,,,,C:\Users\subject\Desktop\SVRT Experiments\SVRT Experiment 3\svrt_images\generated_images\results_problem_10\sample_1_0010.png,,C:\Users\subject\Desktop\SVRT Experiments\SVRT Experiment 3\svrt_images\generated_images\results_problem_17\sample_1_0010.png,,,,,,,,,,,,,,,,,,0,5,5,5,0,10,10,10,,,,,,,,,,,,,,j,17,B,A,9,0,Incorrect!,0.5466254000057233,614.419164100007,None,614.419164100007,None,614.9862525000062,None,,,,,35,001,2023-05-05_15h05.47.275,uncolored_shuffled,2021.2.3,59.95070852550692,
C:\Users\subject\Desktop\SVRT Experiments\SVRT Experiment 3\svrt_images\generated_images\results_problem_17,,,,C:\Users\subject\Desktop\SVRT Experiments\SVRT Experiment 3\svrt_images\generated_images\results_problem_10\sample_1_0010.png,,C:\Users\subject\Desktop\SVRT Experiments\SVRT Experiment 3\svrt_images\generated_images\results_problem_17\sample_0_0010.png,,,,,,,,,,,,,,,,,,0,5,5,5,0,11,11,11,,,,,,,,,,,,,,f,17,A,B,9,0,Incorrect!,1.4792967999965185,616.070403699996,None,616.070403699996,None,617.5714978000033,None,,,,,35,001,2023-05-05_15h05.47.275,uncolored_shuffled,2021.2.3,59.95070852550692,
C:\Users\subject\Desktop\SVRT Experiments\SVRT Experiment 3\svrt_images\generated_images\results_problem_17,,,,C:\Users\subject\Desktop\SVRT Experiments\SVRT Experiment 3\svrt_images\generated_images\results_problem_10\sample_1_0010.png,,C:\Users\subject\Desktop\SVRT Experiments\SVRT Experiment 3\svrt_images\generated_images\results_problem_17\sample_1_0000.png,,,,,,,,,,,,,,,,,,0,5,5,5,0,12,12,12,,,,,,,,,,,,,,f,17,A,A,9,1,Correct!,0.941299899990554,618.6723540000094,None,618.6723540000094,None,619.6397642000084,None,,,,,35,001,2023-05-05_15h05.47.275,uncolored_shuffled,2021.2.3,59.95070852550692,
C:\Users\subject\Desktop\SVRT Experiments\SVRT Experiment 3\svrt_images\generated_images\results_problem_17,,,,C:\Users\subject\Desktop\SVRT Experiments\SVRT Experiment 3\svrt_images\generated_images\results_problem_10\sample_1_0010.png,,C:\Users\subject\Desktop\SVRT Experiments\SVRT Experiment 3\svrt_images\generated_images\results_problem_17\sample_1_0016.png,,,,,,,,,,,,,,,,,,0,5,5,5,0,13,13,13,,,,,,,,,,,,,,f,17,A,A,9,1,Correct!,0.8811344999994617,620.7405670000007,None,620.7405670000007,None,621.6412377000088,None,,,,,35,001,2023-05-05_15h05.47.275,uncolored_shuffled,2021.2.3,59.95070852550692,
C:\Users\subject\Desktop\SVRT Experiments\SVRT Experiment 3\svrt_images\generated_images\results_problem_17,,,,C:\Users\subject\Desktop\SVRT Experiments\SVRT Experiment 3\svrt_images\generated_images\results_problem_10\sample_1_0010.png,,C:\Users\subject\Desktop\SVRT Experiments\SVRT Experiment 3\svrt_images\generated_images\results_problem_17\sample_0_0000.png,,,,,,,,,,,,,,,,,,0,5,5,5,0,14,14,14,,,,,,,,,,,,,,f,17,A,B,9,0,Incorrect!,0.8629528000019491,622.758748799999,None,622.758748799999,None,623.6427425000002,None,,,,,35,001,2023-05-05_15h05.47.275,uncolored_shuffled,2021.2.3,59.95070852550692,
C:\Users\subject\Desktop\SVRT Experiments\SVRT Experiment 3\svrt_images\generated_images\results_problem_17,,,,C:\Users\subject\Desktop\SVRT Experiments\SVRT Experiment 3\svrt_images\generated_images\results_problem_10\sample_1_0010.png,,C:\Users\subject\Desktop\SVRT Experiments\SVRT Experiment 3\svrt_images\generated_images\results_problem_17\sample_1_0014.png,,,,,,,,,,,,,,,,,,0,5,5,5,0,15,15,15,,,,,,,,,,,,,,j,17,B,A,9,0,Incorrect!,0.7573954999970738,624.7602467999968,None,624.7602467999968,None,625.5441644000093,None,,,,,35,001,2023-05-05_15h05.47.275,uncolored_shuffled,2021.2.3,59.95070852550692,
C:\Users\subject\Desktop\SVRT Experiments\SVRT Experiment 3\svrt_images\generated_images\results_problem_17,,,,C:\Users\subject\Desktop\SVRT Experiments\SVRT Experiment 3\svrt_images\generated_images\results_problem_10\sample_1_0010.png,,C:\Users\subject\Desktop\SVRT Experiments\SVRT Experiment 3\svrt_images\generated_images\results_problem_17\sample_0_0005.png,,,,,,,,,,,,,,,,,,0,5,5,5,0,16,16,16,,,,,,,,,,,,,,j,17,B,B,9,1,Correct!,0.8552523999969708,626.6783690000011,None,626.6783690000011,None,627.5623497000051,None,,,,,35,001,2023-05-05_15h05.47.275,uncolored_shuffled,2021.2.3,59.95070852550692,
C:\Users\subject\Desktop\SVRT Experiments\SVRT Experiment 3\svrt_images\generated_images\results_problem_17,,,,C:\Users\subject\Desktop\SVRT Experiments\SVRT Experiment 3\svrt_images\generated_images\results_problem_10\sample_1_0010.png,,C:\Users\subject\Desktop\SVRT Experiments\SVRT Experiment 3\svrt_images\generated_images\results_problem_17\sample_0_0003.png,,,,,,,,,,,,,,,,,,0,5,5,5,0,17,17,17,,,,,,,,,,,,,,j,17,B,B,9,1,Correct!,0.7404064999864204,628.7132092999964,None,628.7132092999964,None,629.4971213999961,None,,,,,35,001,2023-05-05_15h05.47.275,uncolored_shuffled,2021.2.3,59.95070852550692,
C:\Users\subject\Desktop\SVRT Experiments\SVRT Experiment 3\svrt_images\generated_images\results_problem_17,,,,C:\Users\subject\Desktop\SVRT Experiments\SVRT Experiment 3\svrt_images\generated_images\results_problem_10\sample_1_0010.png,,C:\Users\subject\Desktop\SVRT Experiments\SVRT Experiment 3\svrt_images\generated_images\results_problem_17\sample_0_0007.png,,,,,,,,,,,,,,,,,,0,5,5,5,0,18,18,18,,,,,,,,,,,,,,f,17,A,B,9,0,Incorrect!,0.8055900000035763,630.6479934999952,None,630.6479934999952,None,631.4986219999992,None,,,,,35,001,2023-05-05_15h05.47.275,uncolored_shuffled,2021.2.3,59.95070852550692,
C:\Users\subject\Desktop\SVRT Experiments\SVRT Experiment 3\svrt_images\generated_images\results_problem_17,,,,C:\Users\subject\Desktop\SVRT Experiments\SVRT Experiment 3\svrt_images\generated_images\results_problem_10\sample_1_0010.png,,C:\Users\subject\Desktop\SVRT Experiments\SVRT Experiment 3\svrt_images\generated_images\results_problem_17\sample_1_0006.png,,,,,,,,,,,,,,,,,,0,5,5,5,0,19,19,19,,,,,,,,,,,,,,j,17,B,A,9,0,Incorrect!,0.6513642000063555,632.6661686000007,None,632.6661686000007,None,633.3500005999958,None,,,,,35,001,2023-05-05_15h05.47.275,uncolored_shuffled,2021.2.3,59.95070852550692,
C:\Users\subject\Desktop\SVRT Experiments\SVRT Experiment 3\svrt_images\generated_images\results_problem_17,,,,C:\Users\subject\Desktop\SVRT Experiments\SVRT Experiment 3\svrt_images\generated_images\results_problem_10\sample_1_0010.png,,C:\Users\subject\Desktop\SVRT Experiments\SVRT Experiment 3\svrt_images\generated_images\results_problem_17\sample_0_0006.png,,,,,,,,,,,,,,,,,,0,5,5,5,0,20,20,20,,,,,,,,,,,,,,j,17,B,B,9,1,Correct!,0.6639308000012534,634.5175706000009,None,634.5175706000009,None,635.2013703999983,None,,,,,35,001,2023-05-05_15h05.47.275,uncolored_shuffled,2021.2.3,59.95070852550692,
C:\Users\subject\Desktop\SVRT Experiments\SVRT Experiment 3\svrt_images\generated_images\results_problem_17,,,,C:\Users\subject\Desktop\SVRT Experiments\SVRT Experiment 3\svrt_images\generated_images\results_problem_10\sample_1_0010.png,,C:\Users\subject\Desktop\SVRT Experiments\SVRT Experiment 3\svrt_images\generated_images\results_problem_17\sample_1_0013.png,,,,,,,,,,,,,,,,,,0,5,5,5,0,21,21,21,,,,,,,,,,,,,,j,17,B,A,9,0,Incorrect!,0.4198918999900343,636.3856203000032,None,636.3856203000032,None,636.8359492000018,None,,,,,35,001,2023-05-05_15h05.47.275,uncolored_shuffled,2021.2.3,59.95070852550692,
C:\Users\subject\Desktop\SVRT Experiments\SVRT Experiment 3\svrt_images\generated_images\results_problem_17,,,,C:\Users\subject\Desktop\SVRT Experiments\SVRT Experiment 3\svrt_images\generated_images\results_problem_10\sample_1_0010.png,,C:\Users\subject\Desktop\SVRT Experiments\SVRT Experiment 3\svrt_images\generated_images\results_problem_17\sample_1_0012.png,,,,,,,,,,,,,,,,,,0,5,5,5,0,22,22,22,,,,,,,,,,,,,,f,17,A,A,9,1,Correct!,0.3046385000052396,638.0368568999984,None,638.0368568999984,None,638.3871116000082,None,,,,,35,001,2023-05-05_15h05.47.275,uncolored_shuffled,2021.2.3,59.95070852550692,
C:\Users\subject\Desktop\SVRT Experiments\SVRT Experiment 3\svrt_images\generated_images\results_problem_17,,,,C:\Users\subject\Desktop\SVRT Experiments\SVRT Experiment 3\svrt_images\generated_images\results_problem_10\sample_1_0010.png,,C:\Users\subject\Desktop\SVRT Experiments\SVRT Experiment 3\svrt_images\generated_images\results_problem_17\sample_0_0014.png,,,,,,,,,,,,,,,,,,0,5,5,5,0,23,23,23,,,,,,,,,,,,,,j,17,B,B,9,1,Correct!,0.2574548999982653,639.5880212000047,None,639.5880212000047,None,639.8715536999953,None,,,,,35,001,2023-05-05_15h05.47.275,uncolored_shuffled,2021.2.3,59.95070852550692,
C:\Users\subject\Desktop\SVRT Experiments\SVRT Experiment 3\svrt_images\generated_images\results_problem_17,,,,C:\Users\subject\Desktop\SVRT Experiments\SVRT Experiment 3\svrt_images\generated_images\results_problem_10\sample_1_0010.png,,C:\Users\subject\Desktop\SVRT Experiments\SVRT Experiment 3\svrt_images\generated_images\results_problem_17\sample_0_0002.png,,,,,,,,,,,,,,,,,,0,5,5,5,0,24,24,24,,,,,,,,,,,,,,j,17,B,B,9,1,Correct!,0.2923313000064809,641.0891457999969,None,641.0891457999969,None,641.4227041999984,None,,,,,35,001,2023-05-05_15h05.47.275,uncolored_shuffled,2021.2.3,59.95070852550692,
C:\Users\subject\Desktop\SVRT Experiments\SVRT Experiment 3\svrt_images\generated_images\results_problem_17,,,,C:\Users\subject\Desktop\SVRT Experiments\SVRT Experiment 3\svrt_images\generated_images\results_problem_10\sample_1_0010.png,,C:\Users\subject\Desktop\SVRT Experiments\SVRT Experiment 3\svrt_images\generated_images\results_problem_17\sample_1_0004.png,,,,,,,,,,,,,,,,,,0,5,5,5,0,25,25,25,,,,,,,,,,,,,,f,17,A,A,9,1,Correct!,0.2204901999939466,642.656982200002,None,642.656982200002,None,642.9238408000092,None,,,,,35,001,2023-05-05_15h05.47.275,uncolored_shuffled,2021.2.3,59.95070852550692,
C:\Users\subject\Desktop\SVRT Experiments\SVRT Experiment 3\svrt_images\generated_images\results_problem_17,,,,C:\Users\subject\Desktop\SVRT Experiments\SVRT Experiment 3\svrt_images\generated_images\results_problem_10\sample_1_0010.png,,C:\Users\subject\Desktop\SVRT Experiments\SVRT Experiment 3\svrt_images\generated_images\results_problem_17\sample_0_0012.png,,,,,,,,,,,,,,,,,,0,5,5,5,0,26,26,26,,,,,,,,,,,,,,j,17,B,B,9,1,Correct!,0.1752937999990536,644.1581013999967,None,644.1581013999967,None,644.3749056000088,None,,,,,35,001,2023-05-05_15h05.47.275,uncolored_shuffled,2021.2.3,59.95070852550692,
C:\Users\subject\Desktop\SVRT Experiments\SVRT Experiment 3\svrt_images\generated_images\results_problem_17,,,,C:\Users\subject\Desktop\SVRT Experiments\SVRT Experiment 3\svrt_images\generated_images\results_problem_10\sample_1_0010.png,,C:\Users\subject\Desktop\SVRT Experiments\SVRT Experiment 3\svrt_images\generated_images\results_problem_17\sample_1_0001.png,,,,,,,,,,,,,,,,,,0,5,5,5,0,27,27,27,,,,,,,,,,,,,,f,17,A,A,9,1,Correct!,0.1796321000001626,645.6258699000027,None,645.6258699000027,None,645.8426940000063,None,,,,,35,001,2023-05-05_15h05.47.275,uncolored_shuffled,2021.2.3,59.95070852550692,
C:\Users\subject\Desktop\SVRT Experiments\SVRT Experiment 3\svrt_images\generated_images\results_problem_17,,,,C:\Users\subject\Desktop\SVRT Experiments\SVRT Experiment 3\svrt_images\generated_images\results_problem_10\sample_1_0010.png,,C:\Users\subject\Desktop\SVRT Experiments\SVRT Experiment 3\svrt_images\generated_images\results_problem_17\sample_0_0015.png,,,,,,,,,,,,,,,,,,0,5,5,5,0,28,28,28,,,,,,,,,,,,,,j,17,B,B,9,1,Correct!,0.13247540000884328,647.2089378999954,None,647.2089378999954,None,647.3771802999981,None,,,,,35,001,2023-05-05_15h05.47.275,uncolored_shuffled,2021.2.3,59.95070852550692,
C:\Users\subject\Desktop\SVRT Experiments\SVRT Experiment 3\svrt_images\generated_images\results_problem_17,,,,C:\Users\subject\Desktop\SVRT Experiments\SVRT Experiment 3\svrt_images\generated_images\results_problem_10\sample_1_0010.png,,C:\Users\subject\Desktop\SVRT Experiments\SVRT Experiment 3\svrt_images\generated_images\results_problem_17\sample_0_0016.png,,,,,,,,,,,,,,,,,,0,5,5,5,0,29,29,29,,,,,,,,,,,,,,,,,,,,,,,,,,,,648.3779271999956,648.3779271999956,space,1.1634333999973023,35,001,2023-05-05_15h05.47.275,uncolored_shuffled,2021.2.3,59.95070852550692,
C:\Users\subject\Desktop\SVRT Experiments\SVRT Experiment 3\svrt_images\generated_images\results_problem_16,,,,C:\Users\subject\Desktop\SVRT Experiments\SVRT Experiment 3\svrt_images\generated_images\results_problem_10\sample_1_0010.png,,C:\Users\subject\Desktop\SVRT Experiments\SVRT Experiment 3\svrt_images\generated_images\results_problem_17\sample_0_0016.png,C:\Users\subject\Desktop\SVRT Experiments\SVRT Experiment 3\svrt_images\generated_images\results_problem_16\sample_1_0001.png,,,,,,,,,,,,,,,,,0,6,6,6,0,0,0,0,,,,,,,,,,,,,,j,16,B,A,9,0,Incorrect!,1.3552418000035686,649.5621456000081,None,649.5621456000081,None,650.9465196000092,None,,,,,35,001,2023-05-05_15h05.47.275,uncolored_shuffled,2021.2.3,59.95070852550692,
C:\Users\subject\Desktop\SVRT Experiments\SVRT Experiment 3\svrt_images\generated_images\results_problem_16,,,,C:\Users\subject\Desktop\SVRT Experiments\SVRT Experiment 3\svrt_images\generated_images\results_problem_10\sample_1_0010.png,,C:\Users\subject\Desktop\SVRT Experiments\SVRT Experiment 3\svrt_images\generated_images\results_problem_17\sample_0_0016.png,C:\Users\subject\Desktop\SVRT Experiments\SVRT Experiment 3\svrt_images\generated_images\results_problem_16\sample_1_0011.png,,,,,,,,,,,,,,,,,0,6,6,6,0,1,1,1,,,,,,,,,,,,,,f,16,A,A,9,1,Correct!,0.4100744000024861,651.9472680000035,None,651.9472680000035,None,652.3809210000036,None,,,,,35,001,2023-05-05_15h05.47.275,uncolored_shuffled,2021.2.3,59.95070852550692,
C:\Users\subject\Desktop\SVRT Experiments\SVRT Experiment 3\svrt_images\generated_images\results_problem_16,,,,C:\Users\subject\Desktop\SVRT Experiments\SVRT Experiment 3\svrt_images\generated_images\results_problem_10\sample_1_0010.png,,C:\Users\subject\Desktop\SVRT Experiments\SVRT Experiment 3\svrt_images\generated_images\results_problem_17\sample_0_0016.png,C:\Users\subject\Desktop\SVRT Experiments\SVRT Experiment 3\svrt_images\generated_images\results_problem_16\sample_0_0013.png,,,,,,,,,,,,,,,,,0,6,6,6,0,2,2,2,,,,,,,,,,,,,,j,16,B,B,9,1,Correct!,0.30294490000233054,653.3983623000095,None,653.3983623000095,None,653.7319836000097,None,,,,,35,001,2023-05-05_15h05.47.275,uncolored_shuffled,2021.2.3,59.95070852550692,
