folder,results_problem_11,results_problem_15,results_problem_2,results_problem_20,results_problem_16,results_problem_14,results_problem_10,results_problem_4,results_problem_5,results_problem_17,results_problem_13,results_problem_23,results_problem_7,results_problem_6,results_problem_1,results_problem_21,results_problem_12,results_problem_8,results_problem_3,results_problem_9,results_problem_18,results_problem_22,results_problem_19,categories.thisRepN,categories.thisTrialN,categories.thisN,categories.thisIndex,trials.thisRepN,trials.thisTrialN,trials.thisN,trials.thisIndex,consent_text.started,consent_kb.started,consent_kb.keys,consent_kb.rt,Gender.keys,Gender.rt,Age,instructions_text.started,instructions_text.stopped,instructions_kb.keys,instructions_kb.rt,instructions_kb.started,instructions_kb.stopped,trial_kb.keys,current_problem_num,category_resp,answer,seed,accuracy,feedback,trial_kb.rt,trial_kb.started,trial_kb.stopped,trial_image.started,trial_image.stopped,feedback_text.started,feedback_text.stopped,new_problem_kb.started,new_problem_text.started,new_problem_kb.keys,new_problem_kb.rt,Participant #,session,date,expName,psychopyVersion,frameRate,
,,,,,,,,,,,,,,,,,,,,,,,,,,,,,,,,7.413968999986537,7.413968999986537,y,80.92722800001502,,,,,,,,,,,,,,,,,,,,,,,,,,,,43,001,2023-05-11_13h01.17.133,uncolored_shuffled,2021.2.3,59.96073768921259,
,,,,,,,,,,,,,,,,,,,,,,,,,,,,,,,,,,,,w,2.2294503999873996,,,,,,,,,,,,,,,,,,,,,,,,,,43,001,2023-05-11_13h01.17.133,uncolored_shuffled,2021.2.3,59.96073768921259,
,,,,,,,,,,,,,,,,,,,,,,,,,,,,,,,,,,,,,,20,97.79150789999403,None,space,18.70937870000489,97.79150789999403,None,,,,,,,,,,,,,,,,,,,43,001,2023-05-11_13h01.17.133,uncolored_shuffled,2021.2.3,59.96073768921259,
C:\Users\subject\Desktop\SVRT Experiments\SVRT Experiment 3\svrt_images\generated_images\results_problem_11,C:\Users\subject\Desktop\SVRT Experiments\SVRT Experiment 3\svrt_images\generated_images\results_problem_11\sample_0_0007.png,,,,,,,,,,,,,,,,,,,,,,,0,0,0,0,0,0,0,0,,,,,,,,,,,,,,f,11,A,B,11,0,Incorrect!,14.994593399926089,116.52221129997633,None,116.52221129997633,None,131.55012209992856,None,,,,,43,001,2023-05-11_13h01.17.133,uncolored_shuffled,2021.2.3,59.96073768921259,
C:\Users\subject\Desktop\SVRT Experiments\SVRT Experiment 3\svrt_images\generated_images\results_problem_11,C:\Users\subject\Desktop\SVRT Experiments\SVRT Experiment 3\svrt_images\generated_images\results_problem_11\sample_0_0010.png,,,,,,,,,,,,,,,,,,,,,,,0,0,0,0,0,1,1,1,,,,,,,,,,,,,,f,11,A,B,11,0,Incorrect!,0.15780899999663234,132.55088129988872,None,132.55088129988872,None,132.73434929992072,None,,,,,43,001,2023-05-11_13h01.17.133,uncolored_shuffled,2021.2.3,59.96073768921259,
C:\Users\subject\Desktop\SVRT Experiments\SVRT Experiment 3\svrt_images\generated_images\results_problem_11,C:\Users\subject\Desktop\SVRT Experiments\SVRT Experiment 3\svrt_images\generated_images\results_problem_11\sample_1_0007.png,,,,,,,,,,,,,,,,,,,,,,,0,0,0,0,0,2,2,2,,,,,,,,,,,,,,j,11,B,A,11,0,Incorrect!,2.332791900029406,133.75178019993473,None,133.75178019993473,None,136.1035339999944,None,,,,,43,001,2023-05-11_13h01.17.133,uncolored_shuffled,2021.2.3,59.96073768921259,
C:\Users\subject\Desktop\SVRT Experiments\SVRT Experiment 3\svrt_images\generated_images\results_problem_11,C:\Users\subject\Desktop\SVRT Experiments\SVRT Experiment 3\svrt_images\generated_images\results_problem_11\sample_0_0002.png,,,,,,,,,,,,,,,,,,,,,,,0,0,0,0,0,3,3,3,,,,,,,,,,,,,,f,11,A,B,11,0,Incorrect!,7.970953800017014,137.13765199994668,None,137.13765199994668,None,145.1269631999312,None,,,,,43,001,2023-05-11_13h01.17.133,uncolored_shuffled,2021.2.3,59.96073768921259,
C:\Users\subject\Desktop\SVRT Experiments\SVRT Experiment 3\svrt_images\generated_images\results_problem_11,C:\Users\subject\Desktop\SVRT Experiments\SVRT Experiment 3\svrt_images\generated_images\results_problem_11\sample_1_0013.png,,,,,,,,,,,,,,,,,,,,,,,0,0,0,0,0,4,4,4,,,,,,,,,,,,,,j,11,B,A,11,0,Incorrect!,7.467333699925803,146.1610790999839,None,146.1610790999839,None,153.65001579991076,None,,,,,43,001,2023-05-11_13h01.17.133,uncolored_shuffled,2021.2.3,59.96073768921259,
C:\Users\subject\Desktop\SVRT Experiments\SVRT Experiment 3\svrt_images\generated_images\results_problem_11,C:\Users\subject\Desktop\SVRT Experiments\SVRT Experiment 3\svrt_images\generated_images\results_problem_11\sample_1_0008.png,,,,,,,,,,,,,,,,,,,,,,,0,0,0,0,0,5,5,5,,,,,,,,,,,,,,j,11,B,A,11,0,Incorrect!,9.376165799912997,154.68411679996643,None,154.68411679996643,None,164.0911704999162,None,,,,,43,001,2023-05-11_13h01.17.133,uncolored_shuffled,2021.2.3,59.96073768921259,
C:\Users\subject\Desktop\SVRT Experiments\SVRT Experiment 3\svrt_images\generated_images\results_problem_11,C:\Users\subject\Desktop\SVRT Experiments\SVRT Experiment 3\svrt_images\generated_images\results_problem_11\sample_1_0012.png,,,,,,,,,,,,,,,,,,,,,,,0,0,0,0,0,6,6,6,,,,,,,,,,,,,,j,11,B,A,11,0,Incorrect!,8.190198199939914,165.141966199968,None,165.141966199968,None,173.36478479998186,None,,,,,43,001,2023-05-11_13h01.17.133,uncolored_shuffled,2021.2.3,59.96073768921259,
C:\Users\subject\Desktop\SVRT Experiments\SVRT Experiment 3\svrt_images\generated_images\results_problem_11,C:\Users\subject\Desktop\SVRT Experiments\SVRT Experiment 3\svrt_images\generated_images\results_problem_11\sample_0_0000.png,,,,,,,,,,,,,,,,,,,,,,,0,0,0,0,0,7,7,7,,,,,,,,,,,,,,j,11,B,B,11,1,Correct!,14.59639199997764,174.41557699989062,None,174.41557699989062,None,189.04320769989863,None,,,,,43,001,2023-05-11_13h01.17.133,uncolored_shuffled,2021.2.3,59.96073768921259,
C:\Users\subject\Desktop\SVRT Experiments\SVRT Experiment 3\svrt_images\generated_images\results_problem_11,C:\Users\subject\Desktop\SVRT Experiments\SVRT Experiment 3\svrt_images\generated_images\results_problem_11\sample_1_0006.png,,,,,,,,,,,,,,,,,,,,,,,0,0,0,0,0,8,8,8,,,,,,,,,,,,,,f,11,A,A,11,1,Correct!,13.237141599995084,190.11066969996318,None,190.11066969996318,None,203.37059609999415,None,,,,,43,001,2023-05-11_13h01.17.133,uncolored_shuffled,2021.2.3,59.96073768921259,
C:\Users\subject\Desktop\SVRT Experiments\SVRT Experiment 3\svrt_images\generated_images\results_problem_11,C:\Users\subject\Desktop\SVRT Experiments\SVRT Experiment 3\svrt_images\generated_images\results_problem_11\sample_0_0015.png,,,,,,,,,,,,,,,,,,,,,,,0,0,0,0,0,9,9,9,,,,,,,,,,,,,,f,11,A,B,11,0,Incorrect!,14.557547600008547,204.43806469999254,None,204.43806469999254,None,219.01560769998468,None,,,,,43,001,2023-05-11_13h01.17.133,uncolored_shuffled,2021.2.3,59.96073768921259,
C:\Users\subject\Desktop\SVRT Experiments\SVRT Experiment 3\svrt_images\generated_images\results_problem_11,C:\Users\subject\Desktop\SVRT Experiments\SVRT Experiment 3\svrt_images\generated_images\results_problem_11\sample_0_0014.png,,,,,,,,,,,,,,,,,,,,,,,0,0,0,0,0,10,10,10,,,,,,,,,,,,,,j,11,B,B,11,1,Correct!,14.463632600032724,220.09979609993752,None,220.09979609993752,None,234.5939822999062,None,,,,,43,001,2023-05-11_13h01.17.133,uncolored_shuffled,2021.2.3,59.96073768921259,
C:\Users\subject\Desktop\SVRT Experiments\SVRT Experiment 3\svrt_images\generated_images\results_problem_11,C:\Users\subject\Desktop\SVRT Experiments\SVRT Experiment 3\svrt_images\generated_images\results_problem_11\sample_1_0016.png,,,,,,,,,,,,,,,,,,,,,,,0,0,0,0,0,11,11,11,,,,,,,,,,,,,,f,11,A,A,11,1,Correct!,10.733117699972354,235.67813579994254,None,235.67813579994254,None,246.4361866998952,None,,,,,43,001,2023-05-11_13h01.17.133,uncolored_shuffled,2021.2.3,59.96073768921259,
C:\Users\subject\Desktop\SVRT Experiments\SVRT Experiment 3\svrt_images\generated_images\results_problem_11,C:\Users\subject\Desktop\SVRT Experiments\SVRT Experiment 3\svrt_images\generated_images\results_problem_11\sample_1_0002.png,,,,,,,,,,,,,,,,,,,,,,,0,0,0,0,0,12,12,12,,,,,,,,,,,,,,f,11,A,A,11,1,Correct!,6.514166400069371,247.53701859991997,None,247.53701859991997,None,254.07523999991827,None,,,,,43,001,2023-05-11_13h01.17.133,uncolored_shuffled,2021.2.3,59.96073768921259,
C:\Users\subject\Desktop\SVRT Experiments\SVRT Experiment 3\svrt_images\generated_images\results_problem_11,C:\Users\subject\Desktop\SVRT Experiments\SVRT Experiment 3\svrt_images\generated_images\results_problem_11\sample_0_0003.png,,,,,,,,,,,,,,,,,,,,,,,0,0,0,0,0,13,13,13,,,,,,,,,,,,,,j,11,B,B,11,1,Correct!,4.042967299930751,255.17607249994762,None,255.17607249994762,None,259.2457620999776,None,,,,,43,001,2023-05-11_13h01.17.133,uncolored_shuffled,2021.2.3,59.96073768921259,
C:\Users\subject\Desktop\SVRT Experiments\SVRT Experiment 3\svrt_images\generated_images\results_problem_11,C:\Users\subject\Desktop\SVRT Experiments\SVRT Experiment 3\svrt_images\generated_images\results_problem_11\sample_0_0009.png,,,,,,,,,,,,,,,,,,,,,,,0,0,0,0,0,14,14,14,,,,,,,,,,,,,,f,11,A,B,11,0,Incorrect!,12.287750400020741,260.3632923999103,None,260.3632923999103,None,272.6725095999427,None,,,,,43,001,2023-05-11_13h01.17.133,uncolored_shuffled,2021.2.3,59.96073768921259,
C:\Users\subject\Desktop\SVRT Experiments\SVRT Experiment 3\svrt_images\generated_images\results_problem_11,C:\Users\subject\Desktop\SVRT Experiments\SVRT Experiment 3\svrt_images\generated_images\results_problem_11\sample_0_0013.png,,,,,,,,,,,,,,,,,,,,,,,0,0,0,0,0,15,15,15,,,,,,,,,,,,,,j,11,B,B,11,1,Correct!,12.388776500010863,273.7900179999415,None,273.7900179999415,None,286.1993071999168,None,,,,,43,001,2023-05-11_13h01.17.133,uncolored_shuffled,2021.2.3,59.96073768921259,
C:\Users\subject\Desktop\SVRT Experiments\SVRT Experiment 3\svrt_images\generated_images\results_problem_11,C:\Users\subject\Desktop\SVRT Experiments\SVRT Experiment 3\svrt_images\generated_images\results_problem_11\sample_1_0015.png,,,,,,,,,,,,,,,,,,,,,,,0,0,0,0,0,16,16,16,,,,,,,,,,,,,,j,11,B,A,11,0,Incorrect!,14.549116400070488,287.3334932998987,None,287.3334932998987,None,301.9110782999778,None,,,,,43,001,2023-05-11_13h01.17.133,uncolored_shuffled,2021.2.3,59.96073768921259,
C:\Users\subject\Desktop\SVRT Experiments\SVRT Experiment 3\svrt_images\generated_images\results_problem_11,C:\Users\subject\Desktop\SVRT Experiments\SVRT Experiment 3\svrt_images\generated_images\results_problem_11\sample_0_0008.png,,,,,,,,,,,,,,,,,,,,,,,0,0,0,0,0,17,17,17,,,,,,,,,,,,,,f,11,A,B,11,0,Incorrect!,8.820554099977016,303.0619428999489,None,303.0619428999489,None,311.91857039998285,None,,,,,43,001,2023-05-11_13h01.17.133,uncolored_shuffled,2021.2.3,59.96073768921259,
C:\Users\subject\Desktop\SVRT Experiments\SVRT Experiment 3\svrt_images\generated_images\results_problem_11,C:\Users\subject\Desktop\SVRT Experiments\SVRT Experiment 3\svrt_images\generated_images\results_problem_11\sample_1_0004.png,,,,,,,,,,,,,,,,,,,,,,,0,0,0,0,0,18,18,18,,,,,,,,,,,,,,j,11,B,A,11,0,Incorrect!,13.884865000029095,313.0694403999951,None,313.0694403999951,None,326.9965366999386,None,,,,,43,001,2023-05-11_13h01.17.133,uncolored_shuffled,2021.2.3,59.96073768921259,
C:\Users\subject\Desktop\SVRT Experiments\SVRT Experiment 3\svrt_images\generated_images\results_problem_11,C:\Users\subject\Desktop\SVRT Experiments\SVRT Experiment 3\svrt_images\generated_images\results_problem_11\sample_0_0016.png,,,,,,,,,,,,,,,,,,,,,,,0,0,0,0,0,19,19,19,,,,,,,,,,,,,,f,11,A,B,11,0,Incorrect!,9.238135699997656,328.1640821999172,None,328.1640821999172,None,337.4210069999099,None,,,,,43,001,2023-05-11_13h01.17.133,uncolored_shuffled,2021.2.3,59.96073768921259,
C:\Users\subject\Desktop\SVRT Experiments\SVRT Experiment 3\svrt_images\generated_images\results_problem_11,C:\Users\subject\Desktop\SVRT Experiments\SVRT Experiment 3\svrt_images\generated_images\results_problem_11\sample_1_0010.png,,,,,,,,,,,,,,,,,,,,,,,0,0,0,0,0,20,20,20,,,,,,,,,,,,,,j,11,B,A,11,0,Incorrect!,21.493379599996842,338.58852099999785,None,338.58852099999785,None,360.1213477998972,None,,,,,43,001,2023-05-11_13h01.17.133,uncolored_shuffled,2021.2.3,59.96073768921259,
C:\Users\subject\Desktop\SVRT Experiments\SVRT Experiment 3\svrt_images\generated_images\results_problem_11,C:\Users\subject\Desktop\SVRT Experiments\SVRT Experiment 3\svrt_images\generated_images\results_problem_11\sample_0_0004.png,,,,,,,,,,,,,,,,,,,,,,,0,0,0,0,0,21,21,21,,,,,,,,,,,,,,j,11,B,B,11,1,Correct!,15.712152900057845,361.3055601998931,None,361.3055601998931,None,377.06737689999864,None,,,,,43,001,2023-05-11_13h01.17.133,uncolored_shuffled,2021.2.3,59.96073768921259,
C:\Users\subject\Desktop\SVRT Experiments\SVRT Experiment 3\svrt_images\generated_images\results_problem_11,C:\Users\subject\Desktop\SVRT Experiments\SVRT Experiment 3\svrt_images\generated_images\results_problem_11\sample_0_0006.png,,,,,,,,,,,,,,,,,,,,,,,0,0,0,0,0,22,22,22,,,,,,,,,,,,,,f,11,A,B,11,0,Incorrect!,8.141386200091802,378.26828279998153,None,378.26828279998153,None,386.4577476999257,None,,,,,43,001,2023-05-11_13h01.17.133,uncolored_shuffled,2021.2.3,59.96073768921259,
C:\Users\subject\Desktop\SVRT Experiments\SVRT Experiment 3\svrt_images\generated_images\results_problem_11,C:\Users\subject\Desktop\SVRT Experiments\SVRT Experiment 3\svrt_images\generated_images\results_problem_11\sample_0_0001.png,,,,,,,,,,,,,,,,,,,,,,,0,0,0,0,0,23,23,23,,,,,,,,,,,,,,j,11,B,B,11,1,Correct!,11.846787399961613,387.6586521998979,None,387.6586521998979,None,399.5508825998986,None,,,,,43,001,2023-05-11_13h01.17.133,uncolored_shuffled,2021.2.3,59.96073768921259,
C:\Users\subject\Desktop\SVRT Experiments\SVRT Experiment 3\svrt_images\generated_images\results_problem_11,C:\Users\subject\Desktop\SVRT Experiments\SVRT Experiment 3\svrt_images\generated_images\results_problem_11\sample_0_0005.png,,,,,,,,,,,,,,,,,,,,,,,0,0,0,0,0,24,24,24,,,,,,,,,,,,,,f,11,A,B,11,0,Incorrect!,8.9368325000396,400.76847159990575,None,400.76847159990575,None,409.7251704999944,None,,,,,43,001,2023-05-11_13h01.17.133,uncolored_shuffled,2021.2.3,59.96073768921259,
C:\Users\subject\Desktop\SVRT Experiments\SVRT Experiment 3\svrt_images\generated_images\results_problem_11,C:\Users\subject\Desktop\SVRT Experiments\SVRT Experiment 3\svrt_images\generated_images\results_problem_11\sample_1_0000.png,,,,,,,,,,,,,,,,,,,,,,,0,0,0,0,0,25,25,25,,,,,,,,,,,,,,f,11,A,A,11,1,Correct!,19.43361080007162,410.9594386999961,None,410.9594386999961,None,430.4406902999617,None,,,,,43,001,2023-05-11_13h01.17.133,uncolored_shuffled,2021.2.3,59.96073768921259,
C:\Users\subject\Desktop\SVRT Experiments\SVRT Experiment 3\svrt_images\generated_images\results_problem_11,C:\Users\subject\Desktop\SVRT Experiments\SVRT Experiment 3\svrt_images\generated_images\results_problem_11\sample_1_0014.png,,,,,,,,,,,,,,,,,,,,,,,0,0,0,0,0,26,26,26,,,,,,,,,,,,,,j,11,B,A,11,0,Incorrect!,13.3732403999893,431.69163589994423,None,431.69163589994423,None,445.1016759999329,None,,,,,43,001,2023-05-11_13h01.17.133,uncolored_shuffled,2021.2.3,59.96073768921259,
C:\Users\subject\Desktop\SVRT Experiments\SVRT Experiment 3\svrt_images\generated_images\results_problem_11,C:\Users\subject\Desktop\SVRT Experiments\SVRT Experiment 3\svrt_images\generated_images\results_problem_11\sample_1_0001.png,,,,,,,,,,,,,,,,,,,,,,,0,0,0,0,0,27,27,27,,,,,,,,,,,,,,j,11,B,A,11,0,Incorrect!,12.815420300001279,446.3692973998841,None,446.3692973998841,None,459.2456007999135,None,,,,,43,001,2023-05-11_13h01.17.133,uncolored_shuffled,2021.2.3,59.96073768921259,
C:\Users\subject\Desktop\SVRT Experiments\SVRT Experiment 3\svrt_images\generated_images\results_problem_11,C:\Users\subject\Desktop\SVRT Experiments\SVRT Experiment 3\svrt_images\generated_images\results_problem_11\sample_0_0011.png,,,,,,,,,,,,,,,,,,,,,,,0,0,0,0,0,28,28,28,,,,,,,,,,,,,,j,11,B,B,11,1,Correct!,2.919422799954191,460.5132259998936,None,460.5132259998936,None,463.4821080999682,None,,,,,43,001,2023-05-11_13h01.17.133,uncolored_shuffled,2021.2.3,59.96073768921259,
C:\Users\subject\Desktop\SVRT Experiments\SVRT Experiment 3\svrt_images\generated_images\results_problem_11,C:\Users\subject\Desktop\SVRT Experiments\SVRT Experiment 3\svrt_images\generated_images\results_problem_11\sample_1_0009.png,,,,,,,,,,,,,,,,,,,,,,,0,0,0,0,0,29,29,29,,,,,,,,,,,,,,f,11,A,A,11,1,Correct!,9.674114699941128,464.76641219994053,None,464.76641219994053,None,474.4903598999372,None,,,,,43,001,2023-05-11_13h01.17.133,uncolored_shuffled,2021.2.3,59.96073768921259,
C:\Users\subject\Desktop\SVRT Experiments\SVRT Experiment 3\svrt_images\generated_images\results_problem_11,C:\Users\subject\Desktop\SVRT Experiments\SVRT Experiment 3\svrt_images\generated_images\results_problem_11\sample_1_0003.png,,,,,,,,,,,,,,,,,,,,,,,0,0,0,0,0,30,30,30,,,,,,,,,,,,,,j,11,B,A,11,0,Incorrect!,7.3217568000545725,475.7746589999879,None,475.7746589999879,None,483.146843799972,None,,,,,43,001,2023-05-11_13h01.17.133,uncolored_shuffled,2021.2.3,59.96073768921259,
C:\Users\subject\Desktop\SVRT Experiments\SVRT Experiment 3\svrt_images\generated_images\results_problem_11,C:\Users\subject\Desktop\SVRT Experiments\SVRT Experiment 3\svrt_images\generated_images\results_problem_11\sample_1_0005.png,,,,,,,,,,,,,,,,,,,,,,,0,0,0,0,0,31,31,31,,,,,,,,,,,,,,j,11,B,A,11,0,Incorrect!,5.048530300031416,484.4478235999122,None,484.4478235999122,None,489.5516435999889,None,,,,,43,001,2023-05-11_13h01.17.133,uncolored_shuffled,2021.2.3,59.96073768921259,
C:\Users\subject\Desktop\SVRT Experiments\SVRT Experiment 3\svrt_images\generated_images\results_problem_11,C:\Users\subject\Desktop\SVRT Experiments\SVRT Experiment 3\svrt_images\generated_images\results_problem_11\sample_1_0011.png,,,,,,,,,,,,,,,,,,,,,,,0,0,0,0,0,32,32,32,,,,,,,,,,,,,,j,11,B,A,11,0,Incorrect!,8.626823200029321,490.8692981998902,None,490.8692981998902,None,499.5591398999095,None,,,,,43,001,2023-05-11_13h01.17.133,uncolored_shuffled,2021.2.3,59.96073768921259,
C:\Users\subject\Desktop\SVRT Experiments\SVRT Experiment 3\svrt_images\generated_images\results_problem_11,C:\Users\subject\Desktop\SVRT Experiments\SVRT Experiment 3\svrt_images\generated_images\results_problem_11\sample_0_0012.png,,,,,,,,,,,,,,,,,,,,,,,0,0,0,0,0,33,33,33,,,,,,,,,,,,,,f,11,A,B,11,0,Incorrect!,5.003330799983814,500.87679619994015,None,500.87679619994015,None,505.8972191999201,None,,,,,43,001,2023-05-11_13h01.17.133,uncolored_shuffled,2021.2.3,59.96073768921259,
C:\Users\subject\Desktop\SVRT Experiments\SVRT Experiment 3\svrt_images\generated_images\results_problem_11,,,,,,,,,,,,,,,,,,,,,,,,0,0,0,0,,,,,,,,,,,,,,,,,,,,,,,,,,,,,,,,506.89796669990756,506.89796669990756,space,2.3981382999336347,43,001,2023-05-11_13h01.17.133,uncolored_shuffled,2021.2.3,59.96073768921259,
C:\Users\subject\Desktop\SVRT Experiments\SVRT Experiment 3\svrt_images\generated_images\results_problem_15,,C:\Users\subject\Desktop\SVRT Experiments\SVRT Experiment 3\svrt_images\generated_images\results_problem_15\sample_0_0012.png,,,,,,,,,,,,,,,,,,,,,,0,1,1,1,0,0,0,0,,,,,,,,,,,,,,j,15,B,B,11,1,Correct!,3.8755304999649525,509.3164418999804,None,509.3164418999804,None,513.2193217999302,None,,,,,43,001,2023-05-11_13h01.17.133,uncolored_shuffled,2021.2.3,59.96073768921259,
C:\Users\subject\Desktop\SVRT Experiments\SVRT Experiment 3\svrt_images\generated_images\results_problem_15,,C:\Users\subject\Desktop\SVRT Experiments\SVRT Experiment 3\svrt_images\generated_images\results_problem_15\sample_1_0000.png,,,,,,,,,,,,,,,,,,,,,,0,1,1,1,0,1,1,1,,,,,,,,,,,,,,f,15,A,A,11,1,Correct!,1.5319119000341743,514.2201188999461,None,514.2201188999461,None,515.7712804999901,None,,,,,43,001,2023-05-11_13h01.17.133,uncolored_shuffled,2021.2.3,59.96073768921259,
C:\Users\subject\Desktop\SVRT Experiments\SVRT Experiment 3\svrt_images\generated_images\results_problem_15,,C:\Users\subject\Desktop\SVRT Experiments\SVRT Experiment 3\svrt_images\generated_images\results_problem_15\sample_0_0014.png,,,,,,,,,,,,,,,,,,,,,,0,1,1,1,0,2,2,2,,,,,,,,,,,,,,j,15,B,B,11,1,Correct!,2.643230600049719,516.7887140999082,None,516.7887140999082,None,519.4573383999523,None,,,,,43,001,2023-05-11_13h01.17.133,uncolored_shuffled,2021.2.3,59.96073768921259,
C:\Users\subject\Desktop\SVRT Experiments\SVRT Experiment 3\svrt_images\generated_images\results_problem_15,,C:\Users\subject\Desktop\SVRT Experiments\SVRT Experiment 3\svrt_images\generated_images\results_problem_15\sample_0_0009.png,,,,,,,,,,,,,,,,,,,,,,0,1,1,1,0,3,3,3,,,,,,,,,,,,,,j,15,B,B,11,1,Correct!,2.285224199993536,520.4748083999148,None,520.4748083999148,None,522.7932136999443,None,,,,,43,001,2023-05-11_13h01.17.133,uncolored_shuffled,2021.2.3,59.96073768921259,
C:\Users\subject\Desktop\SVRT Experiments\SVRT Experiment 3\svrt_images\generated_images\results_problem_15,,C:\Users\subject\Desktop\SVRT Experiments\SVRT Experiment 3\svrt_images\generated_images\results_problem_15\sample_0_0013.png,,,,,,,,,,,,,,,,,,,,,,0,1,1,1,0,4,4,4,,,,,,,,,,,,,,j,15,B,B,11,1,Correct!,1.332578899920918,523.8273237999529,None,523.8273237999529,None,525.1783268998843,None,,,,,43,001,2023-05-11_13h01.17.133,uncolored_shuffled,2021.2.3,59.96073768921259,
C:\Users\subject\Desktop\SVRT Experiments\SVRT Experiment 3\svrt_images\generated_images\results_problem_15,,C:\Users\subject\Desktop\SVRT Experiments\SVRT Experiment 3\svrt_images\generated_images\results_problem_15\sample_0_0003.png,,,,,,,,,,,,,,,,,,,,,,0,1,1,1,0,5,5,5,,,,,,,,,,,,,,j,15,B,B,11,1,Correct!,1.5874463999643922,526.2124388999073,None,526.2124388999073,None,527.8303146999096,None,,,,,43,001,2023-05-11_13h01.17.133,uncolored_shuffled,2021.2.3,59.96073768921259,
C:\Users\subject\Desktop\SVRT Experiments\SVRT Experiment 3\svrt_images\generated_images\results_problem_15,,C:\Users\subject\Desktop\SVRT Experiments\SVRT Experiment 3\svrt_images\generated_images\results_problem_15\sample_0_0010.png,,,,,,,,,,,,,,,,,,,,,,0,1,1,1,0,6,6,6,,,,,,,,,,,,,,j,15,B,B,11,1,Correct!,0.7267553999554366,528.8811087999493,None,528.8811087999493,None,529.6316611999646,None,,,,,43,001,2023-05-11_13h01.17.133,uncolored_shuffled,2021.2.3,59.96073768921259,
C:\Users\subject\Desktop\SVRT Experiments\SVRT Experiment 3\svrt_images\generated_images\results_problem_15,,C:\Users\subject\Desktop\SVRT Experiments\SVRT Experiment 3\svrt_images\generated_images\results_problem_15\sample_1_0014.png,,,,,,,,,,,,,,,,,,,,,,0,1,1,1,0,7,7,7,,,,,,,,,,,,,,,,,,,,,,,,,,,,530.6324112999719,530.6324112999719,space,2.5194220999255776,43,001,2023-05-11_13h01.17.133,uncolored_shuffled,2021.2.3,59.96073768921259,
C:\Users\subject\Desktop\SVRT Experiments\SVRT Experiment 3\svrt_images\generated_images\results_problem_2,,C:\Users\subject\Desktop\SVRT Experiments\SVRT Experiment 3\svrt_images\generated_images\results_problem_15\sample_1_0014.png,C:\Users\subject\Desktop\SVRT Experiments\SVRT Experiment 3\svrt_images\generated_images\results_problem_2\sample_1_0004.png,,,,,,,,,,,,,,,,,,,,,0,2,2,2,0,0,0,0,,,,,,,,,,,,,,f,2,A,A,11,1,Correct!,2.9194634000305086,533.1843230999075,None,533.1843230999075,None,536.136533599929,None,,,,,43,001,2023-05-11_13h01.17.133,uncolored_shuffled,2021.2.3,59.96073768921259,
C:\Users\subject\Desktop\SVRT Experiments\SVRT Experiment 3\svrt_images\generated_images\results_problem_2,,C:\Users\subject\Desktop\SVRT Experiments\SVRT Experiment 3\svrt_images\generated_images\results_problem_15\sample_1_0014.png,C:\Users\subject\Desktop\SVRT Experiments\SVRT Experiment 3\svrt_images\generated_images\results_problem_2\sample_0_0016.png,,,,,,,,,,,,,,,,,,,,,0,2,2,2,0,1,1,1,,,,,,,,,,,,,,j,2,B,B,11,1,Correct!,1.7024625000776723,537.1372846999438,None,537.1372846999438,None,538.871915299911,None,,,,,43,001,2023-05-11_13h01.17.133,uncolored_shuffled,2021.2.3,59.96073768921259,
C:\Users\subject\Desktop\SVRT Experiments\SVRT Experiment 3\svrt_images\generated_images\results_problem_2,,C:\Users\subject\Desktop\SVRT Experiments\SVRT Experiment 3\svrt_images\generated_images\results_problem_15\sample_1_0014.png,C:\Users\subject\Desktop\SVRT Experiments\SVRT Experiment 3\svrt_images\generated_images\results_problem_2\sample_1_0013.png,,,,,,,,,,,,,,,,,,,,,0,2,2,2,0,2,2,2,,,,,,,,,,,,,,j,2,B,A,11,0,Incorrect!,2.758392499992624,539.8893118998967,None,539.8893118998967,None,542.6747669999022,None,,,,,43,001,2023-05-11_13h01.17.133,uncolored_shuffled,2021.2.3,59.96073768921259,
C:\Users\subject\Desktop\SVRT Experiments\SVRT Experiment 3\svrt_images\generated_images\results_problem_2,,C:\Users\subject\Desktop\SVRT Experiments\SVRT Experiment 3\svrt_images\generated_images\results_problem_15\sample_1_0014.png,C:\Users\subject\Desktop\SVRT Experiments\SVRT Experiment 3\svrt_images\generated_images\results_problem_2\sample_1_0012.png,,,,,,,,,,,,,,,,,,,,,0,2,2,2,0,3,3,3,,,,,,,,,,,,,,f,2,A,A,11,1,Correct!,2.1314663001103327,543.6921994999284,None,543.6921994999284,None,545.8438073999714,None,,,,,43,001,2023-05-11_13h01.17.133,uncolored_shuffled,2021.2.3,59.96073768921259,
C:\Users\subject\Desktop\SVRT Experiments\SVRT Experiment 3\svrt_images\generated_images\results_problem_2,,C:\Users\subject\Desktop\SVRT Experiments\SVRT Experiment 3\svrt_images\generated_images\results_problem_15\sample_1_0014.png,C:\Users\subject\Desktop\SVRT Experiments\SVRT Experiment 3\svrt_images\generated_images\results_problem_2\sample_1_0008.png,,,,,,,,,,,,,,,,,,,,,0,2,2,2,0,4,4,4,,,,,,,,,,,,,,j,2,B,A,11,0,Incorrect!,1.6417109000030905,546.8779213998932,None,546.8779213998932,None,548.545850399998,None,,,,,43,001,2023-05-11_13h01.17.133,uncolored_shuffled,2021.2.3,59.96073768921259,
C:\Users\subject\Desktop\SVRT Experiments\SVRT Experiment 3\svrt_images\generated_images\results_problem_2,,C:\Users\subject\Desktop\SVRT Experiments\SVRT Experiment 3\svrt_images\generated_images\results_problem_15\sample_1_0014.png,C:\Users\subject\Desktop\SVRT Experiments\SVRT Experiment 3\svrt_images\generated_images\results_problem_2\sample_0_0015.png,,,,,,,,,,,,,,,,,,,,,0,2,2,2,0,5,5,5,,,,,,,,,,,,,,f,2,A,B,11,0,Incorrect!,2.9396587000228465,549.5799393999623,None,549.5799393999623,None,552.548830499989,None,,,,,43,001,2023-05-11_13h01.17.133,uncolored_shuffled,2021.2.3,59.96073768921259,
C:\Users\subject\Desktop\SVRT Experiments\SVRT Experiment 3\svrt_images\generated_images\results_problem_2,,C:\Users\subject\Desktop\SVRT Experiments\SVRT Experiment 3\svrt_images\generated_images\results_problem_15\sample_1_0014.png,C:\Users\subject\Desktop\SVRT Experiments\SVRT Experiment 3\svrt_images\generated_images\results_problem_2\sample_0_0006.png,,,,,,,,,,,,,,,,,,,,,0,2,2,2,0,6,6,6,,,,,,,,,,,,,,j,2,B,B,11,1,Correct!,5.103867199970409,553.5996233999031,None,553.5996233999031,None,558.7367976999376,None,,,,,43,001,2023-05-11_13h01.17.133,uncolored_shuffled,2021.2.3,59.96073768921259,
C:\Users\subject\Desktop\SVRT Experiments\SVRT Experiment 3\svrt_images\generated_images\results_problem_2,,C:\Users\subject\Desktop\SVRT Experiments\SVRT Experiment 3\svrt_images\generated_images\results_problem_15\sample_1_0014.png,C:\Users\subject\Desktop\SVRT Experiments\SVRT Experiment 3\svrt_images\generated_images\results_problem_2\sample_1_0000.png,,,,,,,,,,,,,,,,,,,,,0,2,2,2,0,7,7,7,,,,,,,,,,,,,,j,2,B,A,11,0,Incorrect!,2.291824399959296,559.7875919999788,None,559.7875919999788,None,562.1059729999397,None,,,,,43,001,2023-05-11_13h01.17.133,uncolored_shuffled,2021.2.3,59.96073768921259,
C:\Users\subject\Desktop\SVRT Experiments\SVRT Experiment 3\svrt_images\generated_images\results_problem_2,,C:\Users\subject\Desktop\SVRT Experiments\SVRT Experiment 3\svrt_images\generated_images\results_problem_15\sample_1_0014.png,C:\Users\subject\Desktop\SVRT Experiments\SVRT Experiment 3\svrt_images\generated_images\results_problem_2\sample_0_0012.png,,,,,,,,,,,,,,,,,,,,,0,2,2,2,0,8,8,8,,,,,,,,,,,,,,f,2,A,B,11,0,Incorrect!,3.0179364000214264,563.1734590999549,None,563.1734590999549,None,566.2090641999384,None,,,,,43,001,2023-05-11_13h01.17.133,uncolored_shuffled,2021.2.3,59.96073768921259,
C:\Users\subject\Desktop\SVRT Experiments\SVRT Experiment 3\svrt_images\generated_images\results_problem_2,,C:\Users\subject\Desktop\SVRT Experiments\SVRT Experiment 3\svrt_images\generated_images\results_problem_15\sample_1_0014.png,C:\Users\subject\Desktop\SVRT Experiments\SVRT Experiment 3\svrt_images\generated_images\results_problem_2\sample_0_0001.png,,,,,,,,,,,,,,,,,,,,,0,2,2,2,0,9,9,9,,,,,,,,,,,,,,f,2,A,B,11,0,Incorrect!,1.4510985999368131,567.2765357999597,None,567.2765357999597,None,568.7442953999853,None,,,,,43,001,2023-05-11_13h01.17.133,uncolored_shuffled,2021.2.3,59.96073768921259,
C:\Users\subject\Desktop\SVRT Experiments\SVRT Experiment 3\svrt_images\generated_images\results_problem_2,,C:\Users\subject\Desktop\SVRT Experiments\SVRT Experiment 3\svrt_images\generated_images\results_problem_15\sample_1_0014.png,C:\Users\subject\Desktop\SVRT Experiments\SVRT Experiment 3\svrt_images\generated_images\results_problem_2\sample_0_0002.png,,,,,,,,,,,,,,,,,,,,,0,2,2,2,0,10,10,10,,,,,,,,,,,,,,f,2,A,B,11,0,Incorrect!,4.61882199998945,569.8284487999044,None,569.8284487999044,None,574.4652281999588,None,,,,,43,001,2023-05-11_13h01.17.133,uncolored_shuffled,2021.2.3,59.96073768921259,
C:\Users\subject\Desktop\SVRT Experiments\SVRT Experiment 3\svrt_images\generated_images\results_problem_2,,C:\Users\subject\Desktop\SVRT Experiments\SVRT Experiment 3\svrt_images\generated_images\results_problem_15\sample_1_0014.png,C:\Users\subject\Desktop\SVRT Experiments\SVRT Experiment 3\svrt_images\generated_images\results_problem_2\sample_1_0009.png,,,,,,,,,,,,,,,,,,,,,0,2,2,2,0,11,11,11,,,,,,,,,,,,,,j,2,B,A,11,0,Incorrect!,0.9378705000272021,575.5494017999154,None,575.5494017999154,None,576.5167566998862,None,,,,,43,001,2023-05-11_13h01.17.133,uncolored_shuffled,2021.2.3,59.96073768921259,
C:\Users\subject\Desktop\SVRT Experiments\SVRT Experiment 3\svrt_images\generated_images\results_problem_2,,C:\Users\subject\Desktop\SVRT Experiments\SVRT Experiment 3\svrt_images\generated_images\results_problem_15\sample_1_0014.png,C:\Users\subject\Desktop\SVRT Experiments\SVRT Experiment 3\svrt_images\generated_images\results_problem_2\sample_0_0010.png,,,,,,,,,,,,,,,,,,,,,0,2,2,2,0,12,12,12,,,,,,,,,,,,,,j,2,B,B,11,1,Correct!,5.149586300016381,577.6176180999028,None,577.6176180999028,None,582.7881490999134,None,,,,,43,001,2023-05-11_13h01.17.133,uncolored_shuffled,2021.2.3,59.96073768921259,
C:\Users\subject\Desktop\SVRT Experiments\SVRT Experiment 3\svrt_images\generated_images\results_problem_2,,C:\Users\subject\Desktop\SVRT Experiments\SVRT Experiment 3\svrt_images\generated_images\results_problem_15\sample_1_0014.png,C:\Users\subject\Desktop\SVRT Experiments\SVRT Experiment 3\svrt_images\generated_images\results_problem_2\sample_0_0004.png,,,,,,,,,,,,,,,,,,,,,0,2,2,2,0,13,13,13,,,,,,,,,,,,,,j,2,B,B,11,1,Correct!,1.5341909999260679,583.8889816999435,None,583.8889816999435,None,585.4401392999571,None,,,,,43,001,2023-05-11_13h01.17.133,uncolored_shuffled,2021.2.3,59.96073768921259,
C:\Users\subject\Desktop\SVRT Experiments\SVRT Experiment 3\svrt_images\generated_images\results_problem_2,,C:\Users\subject\Desktop\SVRT Experiments\SVRT Experiment 3\svrt_images\generated_images\results_problem_15\sample_1_0014.png,C:\Users\subject\Desktop\SVRT Experiments\SVRT Experiment 3\svrt_images\generated_images\results_problem_2\sample_1_0005.png,,,,,,,,,,,,,,,,,,,,,0,2,2,2,0,14,14,14,,,,,,,,,,,,,,j,2,B,A,11,0,Incorrect!,1.0655392000917345,586.5576268999139,None,586.5576268999139,None,587.641790799913,None,,,,,43,001,2023-05-11_13h01.17.133,uncolored_shuffled,2021.2.3,59.96073768921259,
C:\Users\subject\Desktop\SVRT Experiments\SVRT Experiment 3\svrt_images\generated_images\results_problem_2,,C:\Users\subject\Desktop\SVRT Experiments\SVRT Experiment 3\svrt_images\generated_images\results_problem_15\sample_1_0014.png,C:\Users\subject\Desktop\SVRT Experiments\SVRT Experiment 3\svrt_images\generated_images\results_problem_2\sample_1_0001.png,,,,,,,,,,,,,,,,,,,,,0,2,2,2,0,15,15,15,,,,,,,,,,,,,,j,2,B,A,11,0,Incorrect!,3.7197808999335393,588.759299099911,None,588.759299099911,None,592.5121011999436,None,,,,,43,001,2023-05-11_13h01.17.133,uncolored_shuffled,2021.2.3,59.96073768921259,
C:\Users\subject\Desktop\SVRT Experiments\SVRT Experiment 3\svrt_images\generated_images\results_problem_2,,C:\Users\subject\Desktop\SVRT Experiments\SVRT Experiment 3\svrt_images\generated_images\results_problem_15\sample_1_0014.png,C:\Users\subject\Desktop\SVRT Experiments\SVRT Experiment 3\svrt_images\generated_images\results_problem_2\sample_0_0014.png,,,,,,,,,,,,,,,,,,,,,0,2,2,2,0,16,16,16,,,,,,,,,,,,,,f,2,A,B,11,0,Incorrect!,4.464838200015947,593.6462707999162,None,593.6462707999162,None,598.1329777999781,None,,,,,43,001,2023-05-11_13h01.17.133,uncolored_shuffled,2021.2.3,59.96073768921259,
C:\Users\subject\Desktop\SVRT Experiments\SVRT Experiment 3\svrt_images\generated_images\results_problem_2,,C:\Users\subject\Desktop\SVRT Experiments\SVRT Experiment 3\svrt_images\generated_images\results_problem_15\sample_1_0014.png,C:\Users\subject\Desktop\SVRT Experiments\SVRT Experiment 3\svrt_images\generated_images\results_problem_2\sample_0_0005.png,,,,,,,,,,,,,,,,,,,,,0,2,2,2,0,17,17,17,,,,,,,,,,,,,,f,2,A,B,11,0,Incorrect!,2.187137999921106,599.283844999969,None,599.283844999969,None,601.5188474999741,None,,,,,43,001,2023-05-11_13h01.17.133,uncolored_shuffled,2021.2.3,59.96073768921259,
C:\Users\subject\Desktop\SVRT Experiments\SVRT Experiment 3\svrt_images\generated_images\results_problem_2,,C:\Users\subject\Desktop\SVRT Experiments\SVRT Experiment 3\svrt_images\generated_images\results_problem_15\sample_1_0014.png,C:\Users\subject\Desktop\SVRT Experiments\SVRT Experiment 3\svrt_images\generated_images\results_problem_2\sample_1_0003.png,,,,,,,,,,,,,,,,,,,,,0,2,2,2,0,18,18,18,,,,,,,,,,,,,,j,2,B,A,11,0,Incorrect!,3.569199900026433,602.6697139999596,None,602.6697139999596,None,606.25572929997,None,,,,,43,001,2023-05-11_13h01.17.133,uncolored_shuffled,2021.2.3,59.96073768921259,
C:\Users\subject\Desktop\SVRT Experiments\SVRT Experiment 3\svrt_images\generated_images\results_problem_2,,C:\Users\subject\Desktop\SVRT Experiments\SVRT Experiment 3\svrt_images\generated_images\results_problem_15\sample_1_0014.png,C:\Users\subject\Desktop\SVRT Experiments\SVRT Experiment 3\svrt_images\generated_images\results_problem_2\sample_0_0013.png,,,,,,,,,,,,,,,,,,,,,0,2,2,2,0,19,19,19,,,,,,,,,,,,,,f,2,A,B,11,0,Incorrect!,3.623585799941793,607.4232778999722,None,607.4232778999722,None,611.0760086999508,None,,,,,43,001,2023-05-11_13h01.17.133,uncolored_shuffled,2021.2.3,59.96073768921259,
C:\Users\subject\Desktop\SVRT Experiments\SVRT Experiment 3\svrt_images\generated_images\results_problem_2,,C:\Users\subject\Desktop\SVRT Experiments\SVRT Experiment 3\svrt_images\generated_images\results_problem_15\sample_1_0014.png,C:\Users\subject\Desktop\SVRT Experiments\SVRT Experiment 3\svrt_images\generated_images\results_problem_2\sample_0_0008.png,,,,,,,,,,,,,,,,,,,,,0,2,2,2,0,20,20,20,,,,,,,,,,,,,,f,2,A,B,11,0,Incorrect!,2.0585257000057027,612.2602376999566,None,612.2602376999566,None,614.3451191999484,None,,,,,43,001,2023-05-11_13h01.17.133,uncolored_shuffled,2021.2.3,59.96073768921259,
C:\Users\subject\Desktop\SVRT Experiments\SVRT Experiment 3\svrt_images\generated_images\results_problem_2,,C:\Users\subject\Desktop\SVRT Experiments\SVRT Experiment 3\svrt_images\generated_images\results_problem_15\sample_1_0014.png,C:\Users\subject\Desktop\SVRT Experiments\SVRT Experiment 3\svrt_images\generated_images\results_problem_2\sample_1_0007.png,,,,,,,,,,,,,,,,,,,,,0,2,2,2,0,21,21,21,,,,,,,,,,,,,,j,2,B,A,11,0,Incorrect!,1.165479899966158,615.5293331999565,None,615.5293331999565,None,616.7135630999692,None,,,,,43,001,2023-05-11_13h01.17.133,uncolored_shuffled,2021.2.3,59.96073768921259,
C:\Users\subject\Desktop\SVRT Experiments\SVRT Experiment 3\svrt_images\generated_images\results_problem_2,,C:\Users\subject\Desktop\SVRT Experiments\SVRT Experiment 3\svrt_images\generated_images\results_problem_15\sample_1_0014.png,C:\Users\subject\Desktop\SVRT Experiments\SVRT Experiment 3\svrt_images\generated_images\results_problem_2\sample_0_0009.png,,,,,,,,,,,,,,,,,,,,,0,2,2,2,0,22,22,22,,,,,,,,,,,,,,j,2,B,B,11,1,Correct!,6.572236099978909,617.9144722999772,None,617.9144722999772,None,624.5360938999802,None,,,,,43,001,2023-05-11_13h01.17.133,uncolored_shuffled,2021.2.3,59.96073768921259,
C:\Users\subject\Desktop\SVRT Experiments\SVRT Experiment 3\svrt_images\generated_images\results_problem_2,,C:\Users\subject\Desktop\SVRT Experiments\SVRT Experiment 3\svrt_images\generated_images\results_problem_15\sample_1_0014.png,C:\Users\subject\Desktop\SVRT Experiments\SVRT Experiment 3\svrt_images\generated_images\results_problem_2\sample_1_0002.png,,,,,,,,,,,,,,,,,,,,,0,2,2,2,0,23,23,23,,,,,,,,,,,,,,j,2,B,A,11,0,Incorrect!,2.0376584000186995,625.7369978999486,None,625.7369978999486,None,627.8218867999967,None,,,,,43,001,2023-05-11_13h01.17.133,uncolored_shuffled,2021.2.3,59.96073768921259,
C:\Users\subject\Desktop\SVRT Experiments\SVRT Experiment 3\svrt_images\generated_images\results_problem_2,,C:\Users\subject\Desktop\SVRT Experiments\SVRT Experiment 3\svrt_images\generated_images\results_problem_15\sample_1_0014.png,C:\Users\subject\Desktop\SVRT Experiments\SVRT Experiment 3\svrt_images\generated_images\results_problem_2\sample_0_0007.png,,,,,,,,,,,,,,,,,,,,,0,2,2,2,0,24,24,24,,,,,,,,,,,,,,j,2,B,B,11,1,Correct!,1.3351531999651343,629.039470699965,None,629.039470699965,None,630.4071537998971,None,,,,,43,001,2023-05-11_13h01.17.133,uncolored_shuffled,2021.2.3,59.96073768921259,
C:\Users\subject\Desktop\SVRT Experiments\SVRT Experiment 3\svrt_images\generated_images\results_problem_2,,C:\Users\subject\Desktop\SVRT Experiments\SVRT Experiment 3\svrt_images\generated_images\results_problem_15\sample_1_0014.png,C:\Users\subject\Desktop\SVRT Experiments\SVRT Experiment 3\svrt_images\generated_images\results_problem_2\sample_1_0016.png,,,,,,,,,,,,,,,,,,,,,0,2,2,2,0,25,25,25,,,,,,,,,,,,,,j,2,B,A,11,0,Incorrect!,3.365150900091976,631.6414197999984,None,631.6414197999984,None,635.0606356998906,None,,,,,43,001,2023-05-11_13h01.17.133,uncolored_shuffled,2021.2.3,59.96073768921259,
C:\Users\subject\Desktop\SVRT Experiments\SVRT Experiment 3\svrt_images\generated_images\results_problem_2,,C:\Users\subject\Desktop\SVRT Experiments\SVRT Experiment 3\svrt_images\generated_images\results_problem_15\sample_1_0014.png,C:\Users\subject\Desktop\SVRT Experiments\SVRT Experiment 3\svrt_images\generated_images\results_problem_2\sample_0_0011.png,,,,,,,,,,,,,,,,,,,,,0,2,2,2,0,26,26,26,,,,,,,,,,,,,,f,2,A,B,11,0,Incorrect!,3.0636122999712825,636.2949074999196,None,636.2949074999196,None,639.4139048999641,None,,,,,43,001,2023-05-11_13h01.17.133,uncolored_shuffled,2021.2.3,59.96073768921259,
C:\Users\subject\Desktop\SVRT Experiments\SVRT Experiment 3\svrt_images\generated_images\results_problem_2,,C:\Users\subject\Desktop\SVRT Experiments\SVRT Experiment 3\svrt_images\generated_images\results_problem_15\sample_1_0014.png,C:\Users\subject\Desktop\SVRT Experiments\SVRT Experiment 3\svrt_images\generated_images\results_problem_2\sample_0_0003.png,,,,,,,,,,,,,,,,,,,,,0,2,2,2,0,27,27,27,,,,,,,,,,,,,,j,2,B,B,11,1,Correct!,8.245586499921046,640.6648479999276,None,640.6648479999276,None,648.937670599902,None,,,,,43,001,2023-05-11_13h01.17.133,uncolored_shuffled,2021.2.3,59.96073768921259,
C:\Users\subject\Desktop\SVRT Experiments\SVRT Experiment 3\svrt_images\generated_images\results_problem_2,,C:\Users\subject\Desktop\SVRT Experiments\SVRT Experiment 3\svrt_images\generated_images\results_problem_15\sample_1_0014.png,C:\Users\subject\Desktop\SVRT Experiments\SVRT Experiment 3\svrt_images\generated_images\results_problem_2\sample_1_0006.png,,,,,,,,,,,,,,,,,,,,,0,2,2,2,0,28,28,28,,,,,,,,,,,,,,f,2,A,A,11,1,Correct!,7.840969100012444,650.2053254999919,None,650.2053254999919,None,658.0945616998943,None,,,,,43,001,2023-05-11_13h01.17.133,uncolored_shuffled,2021.2.3,59.96073768921259,
C:\Users\subject\Desktop\SVRT Experiments\SVRT Experiment 3\svrt_images\generated_images\results_problem_2,,C:\Users\subject\Desktop\SVRT Experiments\SVRT Experiment 3\svrt_images\generated_images\results_problem_15\sample_1_0014.png,C:\Users\subject\Desktop\SVRT Experiments\SVRT Experiment 3\svrt_images\generated_images\results_problem_2\sample_1_0014.png,,,,,,,,,,,,,,,,,,,,,0,2,2,2,0,29,29,29,,,,,,,,,,,,,,f,2,A,A,11,1,Correct!,1.1960713000735268,659.3621884998865,None,659.3621884998865,None,660.5797569999704,None,,,,,43,001,2023-05-11_13h01.17.133,uncolored_shuffled,2021.2.3,59.96073768921259,
C:\Users\subject\Desktop\SVRT Experiments\SVRT Experiment 3\svrt_images\generated_images\results_problem_2,,C:\Users\subject\Desktop\SVRT Experiments\SVRT Experiment 3\svrt_images\generated_images\results_problem_15\sample_1_0014.png,C:\Users\subject\Desktop\SVRT Experiments\SVRT Experiment 3\svrt_images\generated_images\results_problem_2\sample_1_0011.png,,,,,,,,,,,,,,,,,,,,,0,2,2,2,0,30,30,30,,,,,,,,,,,,,,f,2,A,A,11,1,Correct!,2.126203199964948,661.8640291999327,None,661.8640291999327,None,664.0156669999706,None,,,,,43,001,2023-05-11_13h01.17.133,uncolored_shuffled,2021.2.3,59.96073768921259,
C:\Users\subject\Desktop\SVRT Experiments\SVRT Experiment 3\svrt_images\generated_images\results_problem_2,,C:\Users\subject\Desktop\SVRT Experiments\SVRT Experiment 3\svrt_images\generated_images\results_problem_15\sample_1_0014.png,C:\Users\subject\Desktop\SVRT Experiments\SVRT Experiment 3\svrt_images\generated_images\results_problem_2\sample_1_0015.png,,,,,,,,,,,,,,,,,,,,,0,2,2,2,0,31,31,31,,,,,,,,,,,,,,j,2,B,A,11,0,Incorrect!,1.161563399946317,665.316648799926,None,665.316648799926,None,666.5175369998906,None,,,,,43,001,2023-05-11_13h01.17.133,uncolored_shuffled,2021.2.3,59.96073768921259,
C:\Users\subject\Desktop\SVRT Experiments\SVRT Experiment 3\svrt_images\generated_images\results_problem_2,,C:\Users\subject\Desktop\SVRT Experiments\SVRT Experiment 3\svrt_images\generated_images\results_problem_15\sample_1_0014.png,C:\Users\subject\Desktop\SVRT Experiments\SVRT Experiment 3\svrt_images\generated_images\results_problem_2\sample_1_0010.png,,,,,,,,,,,,,,,,,,,,,0,2,2,2,0,32,32,32,,,,,,,,,,,,,,f,2,A,A,11,1,Correct!,3.2990339999087155,667.8351852999767,None,667.8351852999767,None,671.1877038999228,None,,,,,43,001,2023-05-11_13h01.17.133,uncolored_shuffled,2021.2.3,59.96073768921259,
C:\Users\subject\Desktop\SVRT Experiments\SVRT Experiment 3\svrt_images\generated_images\results_problem_2,,C:\Users\subject\Desktop\SVRT Experiments\SVRT Experiment 3\svrt_images\generated_images\results_problem_15\sample_1_0014.png,C:\Users\subject\Desktop\SVRT Experiments\SVRT Experiment 3\svrt_images\generated_images\results_problem_2\sample_0_0000.png,,,,,,,,,,,,,,,,,,,,,0,2,2,2,0,33,33,33,,,,,,,,,,,,,,j,2,B,B,11,1,Correct!,1.1647274000570178,672.5053650999907,None,672.5053650999907,None,673.7229395998875,None,,,,,43,001,2023-05-11_13h01.17.133,uncolored_shuffled,2021.2.3,59.96073768921259,
C:\Users\subject\Desktop\SVRT Experiments\SVRT Experiment 3\svrt_images\generated_images\results_problem_2,,C:\Users\subject\Desktop\SVRT Experiments\SVRT Experiment 3\svrt_images\generated_images\results_problem_15\sample_1_0014.png,,,,,,,,,,,,,,,,,,,,,,0,2,2,2,0,7,7,7,,,,,,,,,,,,,,,,,,,,,,,,,,,,674.7236824999563,674.7236824999563,space,1.9143991000019014,43,001,2023-05-11_13h01.17.133,uncolored_shuffled,2021.2.3,59.96073768921259,
C:\Users\subject\Desktop\SVRT Experiments\SVRT Experiment 3\svrt_images\generated_images\results_problem_20,,C:\Users\subject\Desktop\SVRT Experiments\SVRT Experiment 3\svrt_images\generated_images\results_problem_15\sample_1_0014.png,,C:\Users\subject\Desktop\SVRT Experiments\SVRT Experiment 3\svrt_images\generated_images\results_problem_20\sample_1_0006.png,,,,,,,,,,,,,,,,,,,,0,3,3,3,0,0,0,0,,,,,,,,,,,,,,f,20,A,A,11,1,Correct!,2.131630799965933,676.65846769989,None,676.65846769989,None,678.8100815999787,None,,,,,43,001,2023-05-11_13h01.17.133,uncolored_shuffled,2021.2.3,59.96073768921259,
C:\Users\subject\Desktop\SVRT Experiments\SVRT Experiment 3\svrt_images\generated_images\results_problem_20,,C:\Users\subject\Desktop\SVRT Experiments\SVRT Experiment 3\svrt_images\generated_images\results_problem_15\sample_1_0014.png,,C:\Users\subject\Desktop\SVRT Experiments\SVRT Experiment 3\svrt_images\generated_images\results_problem_20\sample_0_0014.png,,,,,,,,,,,,,,,,,,,,0,3,3,3,0,1,1,1,,,,,,,,,,,,,,j,20,B,B,11,1,Correct!,1.3151562999701127,679.8108294999693,None,679.8108294999693,None,681.1451600999571,None,,,,,43,001,2023-05-11_13h01.17.133,uncolored_shuffled,2021.2.3,59.96073768921259,
C:\Users\subject\Desktop\SVRT Experiments\SVRT Experiment 3\svrt_images\generated_images\results_problem_20,,C:\Users\subject\Desktop\SVRT Experiments\SVRT Experiment 3\svrt_images\generated_images\results_problem_15\sample_1_0014.png,,C:\Users\subject\Desktop\SVRT Experiments\SVRT Experiment 3\svrt_images\generated_images\results_problem_20\sample_0_0000.png,,,,,,,,,,,,,,,,,,,,0,3,3,3,0,2,2,2,,,,,,,,,,,,,,f,20,A,B,11,0,Incorrect!,1.6593811999773607,682.1625994999195,None,682.1625994999195,None,683.8471868999768,None,,,,,43,001,2023-05-11_13h01.17.133,uncolored_shuffled,2021.2.3,59.96073768921259,
C:\Users\subject\Desktop\SVRT Experiments\SVRT Experiment 3\svrt_images\generated_images\results_problem_20,,C:\Users\subject\Desktop\SVRT Experiments\SVRT Experiment 3\svrt_images\generated_images\results_problem_15\sample_1_0014.png,,C:\Users\subject\Desktop\SVRT Experiments\SVRT Experiment 3\svrt_images\generated_images\results_problem_20\sample_0_0007.png,,,,,,,,,,,,,,,,,,,,0,3,3,3,0,3,3,3,,,,,,,,,,,,,,j,20,B,B,11,1,Correct!,2.309318600106053,684.8646177999908,None,684.8646177999908,None,687.1996997999959,None,,,,,43,001,2023-05-11_13h01.17.133,uncolored_shuffled,2021.2.3,59.96073768921259,
C:\Users\subject\Desktop\SVRT Experiments\SVRT Experiment 3\svrt_images\generated_images\results_problem_20,,C:\Users\subject\Desktop\SVRT Experiments\SVRT Experiment 3\svrt_images\generated_images\results_problem_15\sample_1_0014.png,,C:\Users\subject\Desktop\SVRT Experiments\SVRT Experiment 3\svrt_images\generated_images\results_problem_20\sample_1_0008.png,,,,,,,,,,,,,,,,,,,,0,3,3,3,0,4,4,4,,,,,,,,,,,,,,f,20,A,A,11,1,Correct!,1.108141600037925,688.233777299989,None,688.233777299989,None,689.3679873999208,None,,,,,43,001,2023-05-11_13h01.17.133,uncolored_shuffled,2021.2.3,59.96073768921259,
C:\Users\subject\Desktop\SVRT Experiments\SVRT Experiment 3\svrt_images\generated_images\results_problem_20,,C:\Users\subject\Desktop\SVRT Experiments\SVRT Experiment 3\svrt_images\generated_images\results_problem_15\sample_1_0014.png,,C:\Users\subject\Desktop\SVRT Experiments\SVRT Experiment 3\svrt_images\generated_images\results_problem_20\sample_0_0010.png,,,,,,,,,,,,,,,,,,,,0,3,3,3,0,5,5,5,,,,,,,,,,,,,,j,20,B,B,11,1,Correct!,0.9157879999838769,690.4020974999294,None,690.4020974999294,None,691.3361311999615,None,,,,,43,001,2023-05-11_13h01.17.133,uncolored_shuffled,2021.2.3,59.96073768921259,
C:\Users\subject\Desktop\SVRT Experiments\SVRT Experiment 3\svrt_images\generated_images\results_problem_20,,C:\Users\subject\Desktop\SVRT Experiments\SVRT Experiment 3\svrt_images\generated_images\results_problem_15\sample_1_0014.png,,C:\Users\subject\Desktop\SVRT Experiments\SVRT Experiment 3\svrt_images\generated_images\results_problem_20\sample_1_0015.png,,,,,,,,,,,,,,,,,,,,0,3,3,3,0,6,6,6,,,,,,,,,,,,,,f,20,A,A,11,1,Correct!,1.3150193000910804,692.386923699989,None,692.386923699989,None,693.7212539999746,None,,,,,43,001,2023-05-11_13h01.17.133,uncolored_shuffled,2021.2.3,59.96073768921259,
C:\Users\subject\Desktop\SVRT Experiments\SVRT Experiment 3\svrt_images\generated_images\results_problem_20,,C:\Users\subject\Desktop\SVRT Experiments\SVRT Experiment 3\svrt_images\generated_images\results_problem_15\sample_1_0014.png,,C:\Users\subject\Desktop\SVRT Experiments\SVRT Experiment 3\svrt_images\generated_images\results_problem_20\sample_0_0002.png,,,,,,,,,,,,,,,,,,,,0,3,3,3,0,7,7,7,,,,,,,,,,,,,,j,20,B,B,11,1,Correct!,3.4817563999677077,694.772041899967,None,694.772041899967,None,698.2746573999757,None,,,,,43,001,2023-05-11_13h01.17.133,uncolored_shuffled,2021.2.3,59.96073768921259,
C:\Users\subject\Desktop\SVRT Experiments\SVRT Experiment 3\svrt_images\generated_images\results_problem_20,,C:\Users\subject\Desktop\SVRT Experiments\SVRT Experiment 3\svrt_images\generated_images\results_problem_15\sample_1_0014.png,,C:\Users\subject\Desktop\SVRT Experiments\SVRT Experiment 3\svrt_images\generated_images\results_problem_20\sample_0_0009.png,,,,,,,,,,,,,,,,,,,,0,3,3,3,0,8,8,8,,,,,,,,,,,,,,j,20,B,B,11,1,Correct!,0.7916526000481099,699.3421344999224,None,699.3421344999224,None,700.159404499922,None,,,,,43,001,2023-05-11_13h01.17.133,uncolored_shuffled,2021.2.3,59.96073768921259,
C:\Users\subject\Desktop\SVRT Experiments\SVRT Experiment 3\svrt_images\generated_images\results_problem_20,,C:\Users\subject\Desktop\SVRT Experiments\SVRT Experiment 3\svrt_images\generated_images\results_problem_15\sample_1_0014.png,,C:\Users\subject\Desktop\SVRT Experiments\SVRT Experiment 3\svrt_images\generated_images\results_problem_20\sample_1_0014.png,,,,,,,,,,,,,,,,,,,,0,3,3,3,0,9,9,9,,,,,,,,,,,,,,f,20,A,A,11,1,Correct!,1.2108926000073552,701.2268795999698,None,701.2268795999698,None,702.4611275999341,None,,,,,43,001,2023-05-11_13h01.17.133,uncolored_shuffled,2021.2.3,59.96073768921259,
C:\Users\subject\Desktop\SVRT Experiments\SVRT Experiment 3\svrt_images\generated_images\results_problem_20,,C:\Users\subject\Desktop\SVRT Experiments\SVRT Experiment 3\svrt_images\generated_images\results_problem_15\sample_1_0014.png,,C:\Users\subject\Desktop\SVRT Experiments\SVRT Experiment 3\svrt_images\generated_images\results_problem_20\sample_1_0002.png,,,,,,,,,,,,,,,,,,,,0,3,3,3,0,10,10,10,,,,,,,,,,,,,,,,,,,,,,,,,,,,703.4618806999642,703.4618806999642,space,1.0958611000096425,43,001,2023-05-11_13h01.17.133,uncolored_shuffled,2021.2.3,59.96073768921259,
C:\Users\subject\Desktop\SVRT Experiments\SVRT Experiment 3\svrt_images\generated_images\results_problem_16,,C:\Users\subject\Desktop\SVRT Experiments\SVRT Experiment 3\svrt_images\generated_images\results_problem_15\sample_1_0014.png,,C:\Users\subject\Desktop\SVRT Experiments\SVRT Experiment 3\svrt_images\generated_images\results_problem_20\sample_1_0002.png,C:\Users\subject\Desktop\SVRT Experiments\SVRT Experiment 3\svrt_images\generated_images\results_problem_16\sample_1_0015.png,,,,,,,,,,,,,,,,,,,0,4,4,4,0,0,0,0,,,,,,,,,,,,,,j,16,B,A,11,0,Incorrect!,1.770330199971795,704.5793797998922,None,704.5793797998922,None,706.3807336998871,None,,,,,43,001,2023-05-11_13h01.17.133,uncolored_shuffled,2021.2.3,59.96073768921259,
C:\Users\subject\Desktop\SVRT Experiments\SVRT Experiment 3\svrt_images\generated_images\results_problem_16,,C:\Users\subject\Desktop\SVRT Experiments\SVRT Experiment 3\svrt_images\generated_images\results_problem_15\sample_1_0014.png,,C:\Users\subject\Desktop\SVRT Experiments\SVRT Experiment 3\svrt_images\generated_images\results_problem_20\sample_1_0002.png,C:\Users\subject\Desktop\SVRT Experiments\SVRT Experiment 3\svrt_images\generated_images\results_problem_16\sample_0_0010.png,,,,,,,,,,,,,,,,,,,0,4,4,4,0,1,1,1,,,,,,,,,,,,,,f,16,A,B,11,0,Incorrect!,3.0402414000127465,707.3814832998905,None,707.3814832998905,None,710.4504223999102,None,,,,,43,001,2023-05-11_13h01.17.133,uncolored_shuffled,2021.2.3,59.96073768921259,
C:\Users\subject\Desktop\SVRT Experiments\SVRT Experiment 3\svrt_images\generated_images\results_problem_16,,C:\Users\subject\Desktop\SVRT Experiments\SVRT Experiment 3\svrt_images\generated_images\results_problem_15\sample_1_0014.png,,C:\Users\subject\Desktop\SVRT Experiments\SVRT Experiment 3\svrt_images\generated_images\results_problem_20\sample_1_0002.png,C:\Users\subject\Desktop\SVRT Experiments\SVRT Experiment 3\svrt_images\generated_images\results_problem_16\sample_0_0007.png,,,,,,,,,,,,,,,,,,,0,4,4,4,0,2,2,2,,,,,,,,,,,,,,f,16,A,B,11,0,Incorrect!,1.4577392999781296,711.4678838999243,None,711.4678838999243,None,712.9523221999407,None,,,,,43,001,2023-05-11_13h01.17.133,uncolored_shuffled,2021.2.3,59.96073768921259,
C:\Users\subject\Desktop\SVRT Experiments\SVRT Experiment 3\svrt_images\generated_images\results_problem_16,,C:\Users\subject\Desktop\SVRT Experiments\SVRT Experiment 3\svrt_images\generated_images\results_problem_15\sample_1_0014.png,,C:\Users\subject\Desktop\SVRT Experiments\SVRT Experiment 3\svrt_images\generated_images\results_problem_20\sample_1_0002.png,C:\Users\subject\Desktop\SVRT Experiments\SVRT Experiment 3\svrt_images\generated_images\results_problem_16\sample_1_0014.png,,,,,,,,,,,,,,,,,,,0,4,4,4,0,3,3,3,,,,,,,,,,,,,,j,16,B,A,11,0,Incorrect!,2.571859399904497,713.9697421999881,None,713.9697421999881,None,716.5717022999888,None,,,,,43,001,2023-05-11_13h01.17.133,uncolored_shuffled,2021.2.3,59.96073768921259,
C:\Users\subject\Desktop\SVRT Experiments\SVRT Experiment 3\svrt_images\generated_images\results_problem_16,,C:\Users\subject\Desktop\SVRT Experiments\SVRT Experiment 3\svrt_images\generated_images\results_problem_15\sample_1_0014.png,,C:\Users\subject\Desktop\SVRT Experiments\SVRT Experiment 3\svrt_images\generated_images\results_problem_20\sample_1_0002.png,C:\Users\subject\Desktop\SVRT Experiments\SVRT Experiment 3\svrt_images\generated_images\results_problem_16\sample_0_0008.png,,,,,,,,,,,,,,,,,,,0,4,4,4,0,4,4,4,,,,,,,,,,,,,,j,16,B,B,11,1,Correct!,2.255740200052969,717.6058149999008,None,717.6058149999008,None,719.8908550998894,None,,,,,43,001,2023-05-11_13h01.17.133,uncolored_shuffled,2021.2.3,59.96073768921259,
C:\Users\subject\Desktop\SVRT Experiments\SVRT Experiment 3\svrt_images\generated_images\results_problem_16,,C:\Users\subject\Desktop\SVRT Experiments\SVRT Experiment 3\svrt_images\generated_images\results_problem_15\sample_1_0014.png,,C:\Users\subject\Desktop\SVRT Experiments\SVRT Experiment 3\svrt_images\generated_images\results_problem_20\sample_1_0002.png,C:\Users\subject\Desktop\SVRT Experiments\SVRT Experiment 3\svrt_images\generated_images\results_problem_16\sample_0_0004.png,,,,,,,,,,,,,,,,,,,0,4,4,4,0,5,5,5,,,,,,,,,,,,,,f,16,A,B,11,0,Incorrect!,0.9845087999710813,720.9249684999231,None,720.9249684999231,None,721.942347999895,None,,,,,43,001,2023-05-11_13h01.17.133,uncolored_shuffled,2021.2.3,59.96073768921259,
C:\Users\subject\Desktop\SVRT Experiments\SVRT Experiment 3\svrt_images\generated_images\results_problem_16,,C:\Users\subject\Desktop\SVRT Experiments\SVRT Experiment 3\svrt_images\generated_images\results_problem_15\sample_1_0014.png,,C:\Users\subject\Desktop\SVRT Experiments\SVRT Experiment 3\svrt_images\generated_images\results_problem_20\sample_1_0002.png,C:\Users\subject\Desktop\SVRT Experiments\SVRT Experiment 3\svrt_images\generated_images\results_problem_16\sample_1_0010.png,,,,,,,,,,,,,,,,,,,0,4,4,4,0,6,6,6,,,,,,,,,,,,,,f,16,A,A,11,1,Correct!,0.9403043000493199,722.9931568999309,None,722.9931568999309,None,723.9605561998906,None,,,,,43,001,2023-05-11_13h01.17.133,uncolored_shuffled,2021.2.3,59.96073768921259,
C:\Users\subject\Desktop\SVRT Experiments\SVRT Experiment 3\svrt_images\generated_images\results_problem_16,,C:\Users\subject\Desktop\SVRT Experiments\SVRT Experiment 3\svrt_images\generated_images\results_problem_15\sample_1_0014.png,,C:\Users\subject\Desktop\SVRT Experiments\SVRT Experiment 3\svrt_images\generated_images\results_problem_20\sample_1_0002.png,C:\Users\subject\Desktop\SVRT Experiments\SVRT Experiment 3\svrt_images\generated_images\results_problem_16\sample_0_0013.png,,,,,,,,,,,,,,,,,,,0,4,4,4,0,7,7,7,,,,,,,,,,,,,,f,16,A,B,11,0,Incorrect!,3.554077500011772,725.0113620999036,None,725.0113620999036,None,728.5973793999292,None,,,,,43,001,2023-05-11_13h01.17.133,uncolored_shuffled,2021.2.3,59.96073768921259,
C:\Users\subject\Desktop\SVRT Experiments\SVRT Experiment 3\svrt_images\generated_images\results_problem_16,,C:\Users\subject\Desktop\SVRT Experiments\SVRT Experiment 3\svrt_images\generated_images\results_problem_15\sample_1_0014.png,,C:\Users\subject\Desktop\SVRT Experiments\SVRT Experiment 3\svrt_images\generated_images\results_problem_20\sample_1_0002.png,C:\Users\subject\Desktop\SVRT Experiments\SVRT Experiment 3\svrt_images\generated_images\results_problem_16\sample_1_0006.png,,,,,,,,,,,,,,,,,,,0,4,4,4,0,8,8,8,,,,,,,,,,,,,,f,16,A,A,11,1,Correct!,2.6605538999428973,729.6648480999283,None,729.6648480999283,None,732.3501871998888,None,,,,,43,001,2023-05-11_13h01.17.133,uncolored_shuffled,2021.2.3,59.96073768921259,
C:\Users\subject\Desktop\SVRT Experiments\SVRT Experiment 3\svrt_images\generated_images\results_problem_16,,C:\Users\subject\Desktop\SVRT Experiments\SVRT Experiment 3\svrt_images\generated_images\results_problem_15\sample_1_0014.png,,C:\Users\subject\Desktop\SVRT Experiments\SVRT Experiment 3\svrt_images\generated_images\results_problem_20\sample_1_0002.png,C:\Users\subject\Desktop\SVRT Experiments\SVRT Experiment 3\svrt_images\generated_images\results_problem_16\sample_1_0001.png,,,,,,,,,,,,,,,,,,,0,4,4,4,0,9,9,9,,,,,,,,,,,,,,f,16,A,A,11,1,Correct!,3.227697799913585,733.4176335999509,None,733.4176335999509,None,736.6700886999024,None,,,,,43,001,2023-05-11_13h01.17.133,uncolored_shuffled,2021.2.3,59.96073768921259,
C:\Users\subject\Desktop\SVRT Experiments\SVRT Experiment 3\svrt_images\generated_images\results_problem_16,,C:\Users\subject\Desktop\SVRT Experiments\SVRT Experiment 3\svrt_images\generated_images\results_problem_15\sample_1_0014.png,,C:\Users\subject\Desktop\SVRT Experiments\SVRT Experiment 3\svrt_images\generated_images\results_problem_20\sample_1_0002.png,C:\Users\subject\Desktop\SVRT Experiments\SVRT Experiment 3\svrt_images\generated_images\results_problem_16\sample_0_0002.png,,,,,,,,,,,,,,,,,,,0,4,4,4,0,10,10,10,,,,,,,,,,,,,,j,16,B,B,11,1,Correct!,3.8511400999268517,737.7542427999433,None,737.7542427999433,None,741.623802099959,None,,,,,43,001,2023-05-11_13h01.17.133,uncolored_shuffled,2021.2.3,59.96073768921259,
C:\Users\subject\Desktop\SVRT Experiments\SVRT Experiment 3\svrt_images\generated_images\results_problem_16,,C:\Users\subject\Desktop\SVRT Experiments\SVRT Experiment 3\svrt_images\generated_images\results_problem_15\sample_1_0014.png,,C:\Users\subject\Desktop\SVRT Experiments\SVRT Experiment 3\svrt_images\generated_images\results_problem_20\sample_1_0002.png,C:\Users\subject\Desktop\SVRT Experiments\SVRT Experiment 3\svrt_images\generated_images\results_problem_16\sample_1_0002.png,,,,,,,,,,,,,,,,,,,0,4,4,4,0,11,11,11,,,,,,,,,,,,,,f,16,A,A,11,1,Correct!,0.9095023999689147,742.8077552999603,None,742.8077552999603,None,743.7420544999186,None,,,,,43,001,2023-05-11_13h01.17.133,uncolored_shuffled,2021.2.3,59.96073768921259,
C:\Users\subject\Desktop\SVRT Experiments\SVRT Experiment 3\svrt_images\generated_images\results_problem_16,,C:\Users\subject\Desktop\SVRT Experiments\SVRT Experiment 3\svrt_images\generated_images\results_problem_15\sample_1_0014.png,,C:\Users\subject\Desktop\SVRT Experiments\SVRT Experiment 3\svrt_images\generated_images\results_problem_20\sample_1_0002.png,C:\Users\subject\Desktop\SVRT Experiments\SVRT Experiment 3\svrt_images\generated_images\results_problem_16\sample_1_0004.png,,,,,,,,,,,,,,,,,,,0,4,4,4,0,12,12,12,,,,,,,,,,,,,,f,16,A,A,11,1,Correct!,1.0744597000302747,744.8428864999441,None,744.8428864999441,None,745.943702599965,None,,,,,43,001,2023-05-11_13h01.17.133,uncolored_shuffled,2021.2.3,59.96073768921259,
C:\Users\subject\Desktop\SVRT Experiments\SVRT Experiment 3\svrt_images\generated_images\results_problem_16,,C:\Users\subject\Desktop\SVRT Experiments\SVRT Experiment 3\svrt_images\generated_images\results_problem_15\sample_1_0014.png,,C:\Users\subject\Desktop\SVRT Experiments\SVRT Experiment 3\svrt_images\generated_images\results_problem_20\sample_1_0002.png,C:\Users\subject\Desktop\SVRT Experiments\SVRT Experiment 3\svrt_images\generated_images\results_problem_16\sample_1_0016.png,,,,,,,,,,,,,,,,,,,0,4,4,4,0,13,13,13,,,,,,,,,,,,,,f,16,A,A,11,1,Correct!,1.2807403000770137,747.0445368998917,None,747.0445368998917,None,748.345506099984,None,,,,,43,001,2023-05-11_13h01.17.133,uncolored_shuffled,2021.2.3,59.96073768921259,
C:\Users\subject\Desktop\SVRT Experiments\SVRT Experiment 3\svrt_images\generated_images\results_problem_16,,C:\Users\subject\Desktop\SVRT Experiments\SVRT Experiment 3\svrt_images\generated_images\results_problem_15\sample_1_0014.png,,C:\Users\subject\Desktop\SVRT Experiments\SVRT Experiment 3\svrt_images\generated_images\results_problem_20\sample_1_0002.png,C:\Users\subject\Desktop\SVRT Experiments\SVRT Experiment 3\svrt_images\generated_images\results_problem_16\sample_1_0008.png,,,,,,,,,,,,,,,,,,,0,4,4,4,0,14,14,14,,,,,,,,,,,,,,j,16,B,A,11,0,Incorrect!,1.8221492999000475,749.4630134999752,None,749.4630134999752,None,751.3143948999932,None,,,,,43,001,2023-05-11_13h01.17.133,uncolored_shuffled,2021.2.3,59.96073768921259,
C:\Users\subject\Desktop\SVRT Experiments\SVRT Experiment 3\svrt_images\generated_images\results_problem_16,,C:\Users\subject\Desktop\SVRT Experiments\SVRT Experiment 3\svrt_images\generated_images\results_problem_15\sample_1_0014.png,,C:\Users\subject\Desktop\SVRT Experiments\SVRT Experiment 3\svrt_images\generated_images\results_problem_20\sample_1_0002.png,C:\Users\subject\Desktop\SVRT Experiments\SVRT Experiment 3\svrt_images\generated_images\results_problem_16\sample_1_0003.png,,,,,,,,,,,,,,,,,,,0,4,4,4,0,15,15,15,,,,,,,,,,,,,,j,16,B,A,11,0,Incorrect!,1.5014592000516132,752.4319034999935,None,752.4319034999935,None,753.9663803998847,None,,,,,43,001,2023-05-11_13h01.17.133,uncolored_shuffled,2021.2.3,59.96073768921259,
C:\Users\subject\Desktop\SVRT Experiments\SVRT Experiment 3\svrt_images\generated_images\results_problem_16,,C:\Users\subject\Desktop\SVRT Experiments\SVRT Experiment 3\svrt_images\generated_images\results_problem_15\sample_1_0014.png,,C:\Users\subject\Desktop\SVRT Experiments\SVRT Experiment 3\svrt_images\generated_images\results_problem_20\sample_1_0002.png,C:\Users\subject\Desktop\SVRT Experiments\SVRT Experiment 3\svrt_images\generated_images\results_problem_16\sample_0_0000.png,,,,,,,,,,,,,,,,,,,0,4,4,4,0,16,16,16,,,,,,,,,,,,,,f,16,A,B,11,0,Incorrect!,2.1126664000330493,755.1005712999031,None,755.1005712999031,None,757.2354964999249,None,,,,,43,001,2023-05-11_13h01.17.133,uncolored_shuffled,2021.2.3,59.96073768921259,
C:\Users\subject\Desktop\SVRT Experiments\SVRT Experiment 3\svrt_images\generated_images\results_problem_16,,C:\Users\subject\Desktop\SVRT Experiments\SVRT Experiment 3\svrt_images\generated_images\results_problem_15\sample_1_0014.png,,C:\Users\subject\Desktop\SVRT Experiments\SVRT Experiment 3\svrt_images\generated_images\results_problem_20\sample_1_0002.png,C:\Users\subject\Desktop\SVRT Experiments\SVRT Experiment 3\svrt_images\generated_images\results_problem_16\sample_1_0012.png,,,,,,,,,,,,,,,,,,,0,4,4,4,0,17,17,17,,,,,,,,,,,,,,f,16,A,A,11,1,Correct!,1.71468430000823,758.3863666999387,None,758.3863666999387,None,760.1209896999644,None,,,,,43,001,2023-05-11_13h01.17.133,uncolored_shuffled,2021.2.3,59.96073768921259,
C:\Users\subject\Desktop\SVRT Experiments\SVRT Experiment 3\svrt_images\generated_images\results_problem_16,,C:\Users\subject\Desktop\SVRT Experiments\SVRT Experiment 3\svrt_images\generated_images\results_problem_15\sample_1_0014.png,,C:\Users\subject\Desktop\SVRT Experiments\SVRT Experiment 3\svrt_images\generated_images\results_problem_20\sample_1_0002.png,C:\Users\subject\Desktop\SVRT Experiments\SVRT Experiment 3\svrt_images\generated_images\results_problem_16\sample_0_0016.png,,,,,,,,,,,,,,,,,,,0,4,4,4,0,18,18,18,,,,,,,,,,,,,,j,16,B,B,11,1,Correct!,5.637127500027418,761.2718613999896,None,761.2718613999896,None,766.926090199966,None,,,,,43,001,2023-05-11_13h01.17.133,uncolored_shuffled,2021.2.3,59.96073768921259,
C:\Users\subject\Desktop\SVRT Experiments\SVRT Experiment 3\svrt_images\generated_images\results_problem_16,,C:\Users\subject\Desktop\SVRT Experiments\SVRT Experiment 3\svrt_images\generated_images\results_problem_15\sample_1_0014.png,,C:\Users\subject\Desktop\SVRT Experiments\SVRT Experiment 3\svrt_images\generated_images\results_problem_20\sample_1_0002.png,C:\Users\subject\Desktop\SVRT Experiments\SVRT Experiment 3\svrt_images\generated_images\results_problem_16\sample_1_0005.png,,,,,,,,,,,,,,,,,,,0,4,4,4,0,19,19,19,,,,,,,,,,,,,,f,16,A,A,11,1,Correct!,0.9193201999878511,768.0936368999537,None,768.0936368999537,None,769.0443421999225,None,,,,,43,001,2023-05-11_13h01.17.133,uncolored_shuffled,2021.2.3,59.96073768921259,
C:\Users\subject\Desktop\SVRT Experiments\SVRT Experiment 3\svrt_images\generated_images\results_problem_16,,C:\Users\subject\Desktop\SVRT Experiments\SVRT Experiment 3\svrt_images\generated_images\results_problem_15\sample_1_0014.png,,C:\Users\subject\Desktop\SVRT Experiments\SVRT Experiment 3\svrt_images\generated_images\results_problem_20\sample_1_0002.png,C:\Users\subject\Desktop\SVRT Experiments\SVRT Experiment 3\svrt_images\generated_images\results_problem_16\sample_1_0011.png,,,,,,,,,,,,,,,,,,,0,4,4,4,0,20,20,20,,,,,,,,,,,,,,j,16,B,A,11,0,Incorrect!,0.8243608999764547,770.2285725999391,None,770.2285725999391,None,771.0792027999414,None,,,,,43,001,2023-05-11_13h01.17.133,uncolored_shuffled,2021.2.3,59.96073768921259,
C:\Users\subject\Desktop\SVRT Experiments\SVRT Experiment 3\svrt_images\generated_images\results_problem_16,,C:\Users\subject\Desktop\SVRT Experiments\SVRT Experiment 3\svrt_images\generated_images\results_problem_15\sample_1_0014.png,,C:\Users\subject\Desktop\SVRT Experiments\SVRT Experiment 3\svrt_images\generated_images\results_problem_20\sample_1_0002.png,C:\Users\subject\Desktop\SVRT Experiments\SVRT Experiment 3\svrt_images\generated_images\results_problem_16\sample_0_0012.png,,,,,,,,,,,,,,,,,,,0,4,4,4,0,21,21,21,,,,,,,,,,,,,,f,16,A,B,11,0,Incorrect!,1.3176379000069574,772.263424799894,None,772.263424799894,None,773.6144305999624,None,,,,,43,001,2023-05-11_13h01.17.133,uncolored_shuffled,2021.2.3,59.96073768921259,
C:\Users\subject\Desktop\SVRT Experiments\SVRT Experiment 3\svrt_images\generated_images\results_problem_16,,C:\Users\subject\Desktop\SVRT Experiments\SVRT Experiment 3\svrt_images\generated_images\results_problem_15\sample_1_0014.png,,C:\Users\subject\Desktop\SVRT Experiments\SVRT Experiment 3\svrt_images\generated_images\results_problem_20\sample_1_0002.png,C:\Users\subject\Desktop\SVRT Experiments\SVRT Experiment 3\svrt_images\generated_images\results_problem_16\sample_0_0009.png,,,,,,,,,,,,,,,,,,,0,4,4,4,0,22,22,22,,,,,,,,,,,,,,f,16,A,B,11,0,Incorrect!,0.9502257999265566,774.7986570999492,None,774.7986570999492,None,775.7827191998949,None,,,,,43,001,2023-05-11_13h01.17.133,uncolored_shuffled,2021.2.3,59.96073768921259,
C:\Users\subject\Desktop\SVRT Experiments\SVRT Experiment 3\svrt_images\generated_images\results_problem_16,,C:\Users\subject\Desktop\SVRT Experiments\SVRT Experiment 3\svrt_images\generated_images\results_problem_15\sample_1_0014.png,,C:\Users\subject\Desktop\SVRT Experiments\SVRT Experiment 3\svrt_images\generated_images\results_problem_20\sample_1_0002.png,C:\Users\subject\Desktop\SVRT Experiments\SVRT Experiment 3\svrt_images\generated_images\results_problem_16\sample_1_0000.png,,,,,,,,,,,,,,,,,,,0,4,4,4,0,23,23,23,,,,,,,,,,,,,,j,16,B,A,11,0,Incorrect!,1.1252151998924091,776.9836296999129,None,776.9836296999129,None,778.1344865999417,None,,,,,43,001,2023-05-11_13h01.17.133,uncolored_shuffled,2021.2.3,59.96073768921259,
C:\Users\subject\Desktop\SVRT Experiments\SVRT Experiment 3\svrt_images\generated_images\results_problem_16,,C:\Users\subject\Desktop\SVRT Experiments\SVRT Experiment 3\svrt_images\generated_images\results_problem_15\sample_1_0014.png,,C:\Users\subject\Desktop\SVRT Experiments\SVRT Experiment 3\svrt_images\generated_images\results_problem_20\sample_1_0002.png,C:\Users\subject\Desktop\SVRT Experiments\SVRT Experiment 3\svrt_images\generated_images\results_problem_16\sample_0_0014.png,,,,,,,,,,,,,,,,,,,0,4,4,4,0,24,24,24,,,,,,,,,,,,,,j,16,B,B,11,1,Correct!,2.01272360002622,779.3520697999047,None,779.3520697999047,None,781.3869258998893,None,,,,,43,001,2023-05-11_13h01.17.133,uncolored_shuffled,2021.2.3,59.96073768921259,
C:\Users\subject\Desktop\SVRT Experiments\SVRT Experiment 3\svrt_images\generated_images\results_problem_16,,C:\Users\subject\Desktop\SVRT Experiments\SVRT Experiment 3\svrt_images\generated_images\results_problem_15\sample_1_0014.png,,C:\Users\subject\Desktop\SVRT Experiments\SVRT Experiment 3\svrt_images\generated_images\results_problem_20\sample_1_0002.png,C:\Users\subject\Desktop\SVRT Experiments\SVRT Experiment 3\svrt_images\generated_images\results_problem_16\sample_0_0006.png,,,,,,,,,,,,,,,,,,,0,4,4,4,0,25,25,25,,,,,,,,,,,,,,f,16,A,B,11,0,Incorrect!,0.9115878000156954,782.6211897999747,None,782.6211897999747,None,783.5552117999177,None,,,,,43,001,2023-05-11_13h01.17.133,uncolored_shuffled,2021.2.3,59.96073768921259,
C:\Users\subject\Desktop\SVRT Experiments\SVRT Experiment 3\svrt_images\generated_images\results_problem_16,,C:\Users\subject\Desktop\SVRT Experiments\SVRT Experiment 3\svrt_images\generated_images\results_problem_15\sample_1_0014.png,,C:\Users\subject\Desktop\SVRT Experiments\SVRT Experiment 3\svrt_images\generated_images\results_problem_20\sample_1_0002.png,C:\Users\subject\Desktop\SVRT Experiments\SVRT Experiment 3\svrt_images\generated_images\results_problem_16\sample_1_0009.png,,,,,,,,,,,,,,,,,,,0,4,4,4,0,26,26,26,,,,,,,,,,,,,,j,16,B,A,11,0,Incorrect!,1.8152632999699563,784.7894775999011,None,784.7894775999011,None,786.6575377999106,None,,,,,43,001,2023-05-11_13h01.17.133,uncolored_shuffled,2021.2.3,59.96073768921259,
C:\Users\subject\Desktop\SVRT Experiments\SVRT Experiment 3\svrt_images\generated_images\results_problem_16,,C:\Users\subject\Desktop\SVRT Experiments\SVRT Experiment 3\svrt_images\generated_images\results_problem_15\sample_1_0014.png,,C:\Users\subject\Desktop\SVRT Experiments\SVRT Experiment 3\svrt_images\generated_images\results_problem_20\sample_1_0002.png,C:\Users\subject\Desktop\SVRT Experiments\SVRT Experiment 3\svrt_images\generated_images\results_problem_16\sample_0_0015.png,,,,,,,,,,,,,,,,,,,0,4,4,4,0,27,27,27,,,,,,,,,,,,,,f,16,A,B,11,0,Incorrect!,1.28022320009768,787.9084797999822,None,787.9084797999822,None,789.2261281999527,None,,,,,43,001,2023-05-11_13h01.17.133,uncolored_shuffled,2021.2.3,59.96073768921259,
C:\Users\subject\Desktop\SVRT Experiments\SVRT Experiment 3\svrt_images\generated_images\results_problem_16,,C:\Users\subject\Desktop\SVRT Experiments\SVRT Experiment 3\svrt_images\generated_images\results_problem_15\sample_1_0014.png,,C:\Users\subject\Desktop\SVRT Experiments\SVRT Experiment 3\svrt_images\generated_images\results_problem_20\sample_1_0002.png,C:\Users\subject\Desktop\SVRT Experiments\SVRT Experiment 3\svrt_images\generated_images\results_problem_16\sample_1_0007.png,,,,,,,,,,,,,,,,,,,0,4,4,4,0,28,28,28,,,,,,,,,,,,,,j,16,B,A,11,0,Incorrect!,2.1829333000350744,790.4937304999912,None,790.4937304999912,None,792.7120740999235,None,,,,,43,001,2023-05-11_13h01.17.133,uncolored_shuffled,2021.2.3,59.96073768921259,
C:\Users\subject\Desktop\SVRT Experiments\SVRT Experiment 3\svrt_images\generated_images\results_problem_16,,C:\Users\subject\Desktop\SVRT Experiments\SVRT Experiment 3\svrt_images\generated_images\results_problem_15\sample_1_0014.png,,C:\Users\subject\Desktop\SVRT Experiments\SVRT Experiment 3\svrt_images\generated_images\results_problem_20\sample_1_0002.png,C:\Users\subject\Desktop\SVRT Experiments\SVRT Experiment 3\svrt_images\generated_images\results_problem_16\sample_1_0013.png,,,,,,,,,,,,,,,,,,,0,4,4,4,0,29,29,29,,,,,,,,,,,,,,f,16,A,A,11,1,Correct!,1.520937000052072,793.9796949999873,None,793.9796949999873,None,795.5475294999778,None,,,,,43,001,2023-05-11_13h01.17.133,uncolored_shuffled,2021.2.3,59.96073768921259,
C:\Users\subject\Desktop\SVRT Experiments\SVRT Experiment 3\svrt_images\generated_images\results_problem_16,,C:\Users\subject\Desktop\SVRT Experiments\SVRT Experiment 3\svrt_images\generated_images\results_problem_15\sample_1_0014.png,,C:\Users\subject\Desktop\SVRT Experiments\SVRT Experiment 3\svrt_images\generated_images\results_problem_20\sample_1_0002.png,C:\Users\subject\Desktop\SVRT Experiments\SVRT Experiment 3\svrt_images\generated_images\results_problem_16\sample_0_0003.png,,,,,,,,,,,,,,,,,,,0,4,4,4,0,30,30,30,,,,,,,,,,,,,,f,16,A,B,11,0,Incorrect!,1.8687338000163436,796.8318305999273,None,796.8318305999273,None,798.7499311999418,None,,,,,43,001,2023-05-11_13h01.17.133,uncolored_shuffled,2021.2.3,59.96073768921259,
C:\Users\subject\Desktop\SVRT Experiments\SVRT Experiment 3\svrt_images\generated_images\results_problem_16,,C:\Users\subject\Desktop\SVRT Experiments\SVRT Experiment 3\svrt_images\generated_images\results_problem_15\sample_1_0014.png,,C:\Users\subject\Desktop\SVRT Experiments\SVRT Experiment 3\svrt_images\generated_images\results_problem_20\sample_1_0002.png,C:\Users\subject\Desktop\SVRT Experiments\SVRT Experiment 3\svrt_images\generated_images\results_problem_16\sample_0_0001.png,,,,,,,,,,,,,,,,,,,0,4,4,4,0,31,31,31,,,,,,,,,,,,,,f,16,A,B,11,0,Incorrect!,1.0896595000522211,800.0509075999726,None,800.0509075999726,None,801.2017678999109,None,,,,,43,001,2023-05-11_13h01.17.133,uncolored_shuffled,2021.2.3,59.96073768921259,
C:\Users\subject\Desktop\SVRT Experiments\SVRT Experiment 3\svrt_images\generated_images\results_problem_16,,C:\Users\subject\Desktop\SVRT Experiments\SVRT Experiment 3\svrt_images\generated_images\results_problem_15\sample_1_0014.png,,C:\Users\subject\Desktop\SVRT Experiments\SVRT Experiment 3\svrt_images\generated_images\results_problem_20\sample_1_0002.png,C:\Users\subject\Desktop\SVRT Experiments\SVRT Experiment 3\svrt_images\generated_images\results_problem_16\sample_0_0005.png,,,,,,,,,,,,,,,,,,,0,4,4,4,0,32,32,32,,,,,,,,,,,,,,f,16,A,B,11,0,Incorrect!,0.8937721999827772,802.502750899992,None,802.502750899992,None,803.453453999944,None,,,,,43,001,2023-05-11_13h01.17.133,uncolored_shuffled,2021.2.3,59.96073768921259,
C:\Users\subject\Desktop\SVRT Experiments\SVRT Experiment 3\svrt_images\generated_images\results_problem_16,,C:\Users\subject\Desktop\SVRT Experiments\SVRT Experiment 3\svrt_images\generated_images\results_problem_15\sample_1_0014.png,,C:\Users\subject\Desktop\SVRT Experiments\SVRT Experiment 3\svrt_images\generated_images\results_problem_20\sample_1_0002.png,C:\Users\subject\Desktop\SVRT Experiments\SVRT Experiment 3\svrt_images\generated_images\results_problem_16\sample_0_0011.png,,,,,,,,,,,,,,,,,,,0,4,4,4,0,33,33,33,,,,,,,,,,,,,,j,16,B,B,11,1,Correct!,1.3213603000622243,804.7711116999853,None,804.7711116999853,None,806.122116799932,None,,,,,43,001,2023-05-11_13h01.17.133,uncolored_shuffled,2021.2.3,59.96073768921259,
C:\Users\subject\Desktop\SVRT Experiments\SVRT Experiment 3\svrt_images\generated_images\results_problem_16,,C:\Users\subject\Desktop\SVRT Experiments\SVRT Experiment 3\svrt_images\generated_images\results_problem_15\sample_1_0014.png,,C:\Users\subject\Desktop\SVRT Experiments\SVRT Experiment 3\svrt_images\generated_images\results_problem_20\sample_1_0002.png,,,,,,,,,,,,,,,,,,,,0,4,4,4,0,10,10,10,,,,,,,,,,,,,,,,,,,,,,,,,,,,807.1228662999347,807.1228662999347,space,1.0656087000388652,43,001,2023-05-11_13h01.17.133,uncolored_shuffled,2021.2.3,59.96073768921259,
C:\Users\subject\Desktop\SVRT Experiments\SVRT Experiment 3\svrt_images\generated_images\results_problem_14,,C:\Users\subject\Desktop\SVRT Experiments\SVRT Experiment 3\svrt_images\generated_images\results_problem_15\sample_1_0014.png,,C:\Users\subject\Desktop\SVRT Experiments\SVRT Experiment 3\svrt_images\generated_images\results_problem_20\sample_1_0002.png,,C:\Users\subject\Desktop\SVRT Experiments\SVRT Experiment 3\svrt_images\generated_images\results_problem_14\sample_1_0006.png,,,,,,,,,,,,,,,,,,0,5,5,5,0,0,0,0,,,,,,,,,,,,,,j,14,B,A,11,0,Incorrect!,1.7814626999897882,808.2070116999093,None,808.2070116999093,None,810.0083618999925,None,,,,,43,001,2023-05-11_13h01.17.133,uncolored_shuffled,2021.2.3,59.96073768921259,
C:\Users\subject\Desktop\SVRT Experiments\SVRT Experiment 3\svrt_images\generated_images\results_problem_14,,C:\Users\subject\Desktop\SVRT Experiments\SVRT Experiment 3\svrt_images\generated_images\results_problem_15\sample_1_0014.png,,C:\Users\subject\Desktop\SVRT Experiments\SVRT Experiment 3\svrt_images\generated_images\results_problem_20\sample_1_0002.png,,C:\Users\subject\Desktop\SVRT Experiments\SVRT Experiment 3\svrt_images\generated_images\results_problem_14\sample_0_0013.png,,,,,,,,,,,,,,,,,,0,5,5,5,0,1,1,1,,,,,,,,,,,,,,f,14,A,B,11,0,Incorrect!,1.0913027999922633,811.009110199986,None,811.009110199986,None,812.1266114999307,None,,,,,43,001,2023-05-11_13h01.17.133,uncolored_shuffled,2021.2.3,59.96073768921259,
C:\Users\subject\Desktop\SVRT Experiments\SVRT Experiment 3\svrt_images\generated_images\results_problem_14,,C:\Users\subject\Desktop\SVRT Experiments\SVRT Experiment 3\svrt_images\generated_images\results_problem_15\sample_1_0014.png,,C:\Users\subject\Desktop\SVRT Experiments\SVRT Experiment 3\svrt_images\generated_images\results_problem_20\sample_1_0002.png,,C:\Users\subject\Desktop\SVRT Experiments\SVRT Experiment 3\svrt_images\generated_images\results_problem_14\sample_1_0008.png,,,,,,,,,,,,,,,,,,0,5,5,5,0,2,2,2,,,,,,,,,,,,,,f,14,A,A,11,1,Correct!,0.9803640999598429,813.1440471999813,None,813.1440471999813,None,814.1447938999627,None,,,,,43,001,2023-05-11_13h01.17.133,uncolored_shuffled,2021.2.3,59.96073768921259,
C:\Users\subject\Desktop\SVRT Experiments\SVRT Experiment 3\svrt_images\generated_images\results_problem_14,,C:\Users\subject\Desktop\SVRT Experiments\SVRT Experiment 3\svrt_images\generated_images\results_problem_15\sample_1_0014.png,,C:\Users\subject\Desktop\SVRT Experiments\SVRT Experiment 3\svrt_images\generated_images\results_problem_20\sample_1_0002.png,,C:\Users\subject\Desktop\SVRT Experiments\SVRT Experiment 3\svrt_images\generated_images\results_problem_14\sample_0_0002.png,,,,,,,,,,,,,,,,,,0,5,5,5,0,3,3,3,,,,,,,,,,,,,,j,14,B,B,11,1,Correct!,0.6901586999883875,815.1622241999721,None,815.1622241999721,None,815.8794283999596,None,,,,,43,001,2023-05-11_13h01.17.133,uncolored_shuffled,2021.2.3,59.96073768921259,
C:\Users\subject\Desktop\SVRT Experiments\SVRT Experiment 3\svrt_images\generated_images\results_problem_14,,C:\Users\subject\Desktop\SVRT Experiments\SVRT Experiment 3\svrt_images\generated_images\results_problem_15\sample_1_0014.png,,C:\Users\subject\Desktop\SVRT Experiments\SVRT Experiment 3\svrt_images\generated_images\results_problem_20\sample_1_0002.png,,C:\Users\subject\Desktop\SVRT Experiments\SVRT Experiment 3\svrt_images\generated_images\results_problem_14\sample_0_0016.png,,,,,,,,,,,,,,,,,,0,5,5,5,0,4,4,4,,,,,,,,,,,,,,j,14,B,B,11,1,Correct!,0.7948215999640524,816.9135377999628,None,816.9135377999628,None,817.7308121999959,None,,,,,43,001,2023-05-11_13h01.17.133,uncolored_shuffled,2021.2.3,59.96073768921259,
C:\Users\subject\Desktop\SVRT Experiments\SVRT Experiment 3\svrt_images\generated_images\results_problem_14,,C:\Users\subject\Desktop\SVRT Experiments\SVRT Experiment 3\svrt_images\generated_images\results_problem_15\sample_1_0014.png,,C:\Users\subject\Desktop\SVRT Experiments\SVRT Experiment 3\svrt_images\generated_images\results_problem_20\sample_1_0002.png,,C:\Users\subject\Desktop\SVRT Experiments\SVRT Experiment 3\svrt_images\generated_images\results_problem_14\sample_1_0005.png,,,,,,,,,,,,,,,,,,0,5,5,5,0,5,5,5,,,,,,,,,,,,,,f,14,A,A,11,1,Correct!,1.7754285000264645,818.7649057999952,None,818.7649057999952,None,820.56624309998,None,,,,,43,001,2023-05-11_13h01.17.133,uncolored_shuffled,2021.2.3,59.96073768921259,
C:\Users\subject\Desktop\SVRT Experiments\SVRT Experiment 3\svrt_images\generated_images\results_problem_14,,C:\Users\subject\Desktop\SVRT Experiments\SVRT Experiment 3\svrt_images\generated_images\results_problem_15\sample_1_0014.png,,C:\Users\subject\Desktop\SVRT Experiments\SVRT Experiment 3\svrt_images\generated_images\results_problem_20\sample_1_0002.png,,C:\Users\subject\Desktop\SVRT Experiments\SVRT Experiment 3\svrt_images\generated_images\results_problem_14\sample_0_0000.png,,,,,,,,,,,,,,,,,,0,5,5,5,0,6,6,6,,,,,,,,,,,,,,j,14,B,B,11,1,Correct!,0.8112728000851348,821.6170375999063,None,821.6170375999063,None,822.4510186999105,None,,,,,43,001,2023-05-11_13h01.17.133,uncolored_shuffled,2021.2.3,59.96073768921259,
C:\Users\subject\Desktop\SVRT Experiments\SVRT Experiment 3\svrt_images\generated_images\results_problem_14,,C:\Users\subject\Desktop\SVRT Experiments\SVRT Experiment 3\svrt_images\generated_images\results_problem_15\sample_1_0014.png,,C:\Users\subject\Desktop\SVRT Experiments\SVRT Experiment 3\svrt_images\generated_images\results_problem_20\sample_1_0002.png,,C:\Users\subject\Desktop\SVRT Experiments\SVRT Experiment 3\svrt_images\generated_images\results_problem_14\sample_1_0001.png,,,,,,,,,,,,,,,,,,0,5,5,5,0,7,7,7,,,,,,,,,,,,,,j,14,B,A,11,0,Incorrect!,1.262465399922803,823.5018043998862,None,823.5018043998862,None,824.7860982998973,None,,,,,43,001,2023-05-11_13h01.17.133,uncolored_shuffled,2021.2.3,59.96073768921259,
C:\Users\subject\Desktop\SVRT Experiments\SVRT Experiment 3\svrt_images\generated_images\results_problem_14,,C:\Users\subject\Desktop\SVRT Experiments\SVRT Experiment 3\svrt_images\generated_images\results_problem_15\sample_1_0014.png,,C:\Users\subject\Desktop\SVRT Experiments\SVRT Experiment 3\svrt_images\generated_images\results_problem_20\sample_1_0002.png,,C:\Users\subject\Desktop\SVRT Experiments\SVRT Experiment 3\svrt_images\generated_images\results_problem_14\sample_0_0011.png,,,,,,,,,,,,,,,,,,0,5,5,5,0,8,8,8,,,,,,,,,,,,,,f,14,A,B,11,0,Incorrect!,1.0620796999428421,825.8541817999212,None,825.8541817999212,None,826.9377081999555,None,,,,,43,001,2023-05-11_13h01.17.133,uncolored_shuffled,2021.2.3,59.96073768921259,
C:\Users\subject\Desktop\SVRT Experiments\SVRT Experiment 3\svrt_images\generated_images\results_problem_14,,C:\Users\subject\Desktop\SVRT Experiments\SVRT Experiment 3\svrt_images\generated_images\results_problem_15\sample_1_0014.png,,C:\Users\subject\Desktop\SVRT Experiments\SVRT Experiment 3\svrt_images\generated_images\results_problem_20\sample_1_0002.png,,C:\Users\subject\Desktop\SVRT Experiments\SVRT Experiment 3\svrt_images\generated_images\results_problem_14\sample_0_0015.png,,,,,,,,,,,,,,,,,,0,5,5,5,0,9,9,9,,,,,,,,,,,,,,j,14,B,B,11,1,Correct!,1.167021399945952,828.0051597999409,None,828.0051597999409,None,829.1893946999917,None,,,,,43,001,2023-05-11_13h01.17.133,uncolored_shuffled,2021.2.3,59.96073768921259,
C:\Users\subject\Desktop\SVRT Experiments\SVRT Experiment 3\svrt_images\generated_images\results_problem_14,,C:\Users\subject\Desktop\SVRT Experiments\SVRT Experiment 3\svrt_images\generated_images\results_problem_15\sample_1_0014.png,,C:\Users\subject\Desktop\SVRT Experiments\SVRT Experiment 3\svrt_images\generated_images\results_problem_20\sample_1_0002.png,,C:\Users\subject\Desktop\SVRT Experiments\SVRT Experiment 3\svrt_images\generated_images\results_problem_14\sample_1_0011.png,,,,,,,,,,,,,,,,,,0,5,5,5,0,10,10,10,,,,,,,,,,,,,,f,14,A,A,11,1,Correct!,5.45056459994521,830.2735463998979,None,830.2735463998979,None,835.7443033999298,None,,,,,43,001,2023-05-11_13h01.17.133,uncolored_shuffled,2021.2.3,59.96073768921259,
C:\Users\subject\Desktop\SVRT Experiments\SVRT Experiment 3\svrt_images\generated_images\results_problem_14,,C:\Users\subject\Desktop\SVRT Experiments\SVRT Experiment 3\svrt_images\generated_images\results_problem_15\sample_1_0014.png,,C:\Users\subject\Desktop\SVRT Experiments\SVRT Experiment 3\svrt_images\generated_images\results_problem_20\sample_1_0002.png,,C:\Users\subject\Desktop\SVRT Experiments\SVRT Experiment 3\svrt_images\generated_images\results_problem_14\sample_0_0014.png,,,,,,,,,,,,,,,,,,0,5,5,5,0,11,11,11,,,,,,,,,,,,,,f,14,A,B,11,0,Incorrect!,1.3596187999937683,836.8284604999935,None,836.8284604999935,None,838.2128082999261,None,,,,,43,001,2023-05-11_13h01.17.133,uncolored_shuffled,2021.2.3,59.96073768921259,
C:\Users\subject\Desktop\SVRT Experiments\SVRT Experiment 3\svrt_images\generated_images\results_problem_14,,C:\Users\subject\Desktop\SVRT Experiments\SVRT Experiment 3\svrt_images\generated_images\results_problem_15\sample_1_0014.png,,C:\Users\subject\Desktop\SVRT Experiments\SVRT Experiment 3\svrt_images\generated_images\results_problem_20\sample_1_0002.png,,C:\Users\subject\Desktop\SVRT Experiments\SVRT Experiment 3\svrt_images\generated_images\results_problem_14\sample_1_0004.png,,,,,,,,,,,,,,,,,,0,5,5,5,0,12,12,12,,,,,,,,,,,,,,j,14,B,A,11,0,Incorrect!,1.4424099000170827,839.3136271999683,None,839.3136271999683,None,840.7814099999378,None,,,,,43,001,2023-05-11_13h01.17.133,uncolored_shuffled,2021.2.3,59.96073768921259,
C:\Users\subject\Desktop\SVRT Experiments\SVRT Experiment 3\svrt_images\generated_images\results_problem_14,,C:\Users\subject\Desktop\SVRT Experiments\SVRT Experiment 3\svrt_images\generated_images\results_problem_15\sample_1_0014.png,,C:\Users\subject\Desktop\SVRT Experiments\SVRT Experiment 3\svrt_images\generated_images\results_problem_20\sample_1_0002.png,,C:\Users\subject\Desktop\SVRT Experiments\SVRT Experiment 3\svrt_images\generated_images\results_problem_14\sample_1_0003.png,,,,,,,,,,,,,,,,,,0,5,5,5,0,13,13,13,,,,,,,,,,,,,,j,14,B,A,11,0,Incorrect!,1.6577855000505224,841.8822387999389,None,841.8822387999389,None,843.5668316999217,None,,,,,43,001,2023-05-11_13h01.17.133,uncolored_shuffled,2021.2.3,59.96073768921259,
C:\Users\subject\Desktop\SVRT Experiments\SVRT Experiment 3\svrt_images\generated_images\results_problem_14,,C:\Users\subject\Desktop\SVRT Experiments\SVRT Experiment 3\svrt_images\generated_images\results_problem_15\sample_1_0014.png,,C:\Users\subject\Desktop\SVRT Experiments\SVRT Experiment 3\svrt_images\generated_images\results_problem_20\sample_1_0002.png,,C:\Users\subject\Desktop\SVRT Experiments\SVRT Experiment 3\svrt_images\generated_images\results_problem_14\sample_0_0004.png,,,,,,,,,,,,,,,,,,0,5,5,5,0,14,14,14,,,,,,,,,,,,,,f,14,A,B,11,0,Incorrect!,4.303649300010875,844.684325799928,None,844.684325799928,None,849.0209296999965,None,,,,,43,001,2023-05-11_13h01.17.133,uncolored_shuffled,2021.2.3,59.96073768921259,
C:\Users\subject\Desktop\SVRT Experiments\SVRT Experiment 3\svrt_images\generated_images\results_problem_14,,C:\Users\subject\Desktop\SVRT Experiments\SVRT Experiment 3\svrt_images\generated_images\results_problem_15\sample_1_0014.png,,C:\Users\subject\Desktop\SVRT Experiments\SVRT Experiment 3\svrt_images\generated_images\results_problem_20\sample_1_0002.png,,C:\Users\subject\Desktop\SVRT Experiments\SVRT Experiment 3\svrt_images\generated_images\results_problem_14\sample_0_0009.png,,,,,,,,,,,,,,,,,,0,5,5,5,0,15,15,15,,,,,,,,,,,,,,j,14,B,B,11,1,Correct!,2.3935055000474676,850.1384097998962,None,850.1384097998962,None,852.5568976999493,None,,,,,43,001,2023-05-11_13h01.17.133,uncolored_shuffled,2021.2.3,59.96073768921259,
C:\Users\subject\Desktop\SVRT Experiments\SVRT Experiment 3\svrt_images\generated_images\results_problem_14,,C:\Users\subject\Desktop\SVRT Experiments\SVRT Experiment 3\svrt_images\generated_images\results_problem_15\sample_1_0014.png,,C:\Users\subject\Desktop\SVRT Experiments\SVRT Experiment 3\svrt_images\generated_images\results_problem_20\sample_1_0002.png,,C:\Users\subject\Desktop\SVRT Experiments\SVRT Experiment 3\svrt_images\generated_images\results_problem_14\sample_1_0002.png,,,,,,,,,,,,,,,,,,0,5,5,5,0,16,16,16,,,,,,,,,,,,,,j,14,B,A,11,0,Incorrect!,0.97681919997558,853.6911014999496,None,853.6911014999496,None,854.6918268998852,None,,,,,43,001,2023-05-11_13h01.17.133,uncolored_shuffled,2021.2.3,59.96073768921259,
C:\Users\subject\Desktop\SVRT Experiments\SVRT Experiment 3\svrt_images\generated_images\results_problem_14,,C:\Users\subject\Desktop\SVRT Experiments\SVRT Experiment 3\svrt_images\generated_images\results_problem_15\sample_1_0014.png,,C:\Users\subject\Desktop\SVRT Experiments\SVRT Experiment 3\svrt_images\generated_images\results_problem_20\sample_1_0002.png,,C:\Users\subject\Desktop\SVRT Experiments\SVRT Experiment 3\svrt_images\generated_images\results_problem_14\sample_0_0012.png,,,,,,,,,,,,,,,,,,0,5,5,5,0,17,17,17,,,,,,,,,,,,,,j,14,B,B,11,1,Correct!,0.8811854999512434,855.8427033999469,None,855.8427033999469,None,856.7433663998963,None,,,,,43,001,2023-05-11_13h01.17.133,uncolored_shuffled,2021.2.3,59.96073768921259,
C:\Users\subject\Desktop\SVRT Experiments\SVRT Experiment 3\svrt_images\generated_images\results_problem_14,,C:\Users\subject\Desktop\SVRT Experiments\SVRT Experiment 3\svrt_images\generated_images\results_problem_15\sample_1_0014.png,,C:\Users\subject\Desktop\SVRT Experiments\SVRT Experiment 3\svrt_images\generated_images\results_problem_20\sample_1_0002.png,,C:\Users\subject\Desktop\SVRT Experiments\SVRT Experiment 3\svrt_images\generated_images\results_problem_14\sample_1_0013.png,,,,,,,,,,,,,,,,,,0,5,5,5,0,18,18,18,,,,,,,,,,,,,,f,14,A,A,11,1,Correct!,0.9816192999714985,857.8942366999108,None,857.8942366999108,None,858.911659299978,None,,,,,43,001,2023-05-11_13h01.17.133,uncolored_shuffled,2021.2.3,59.96073768921259,
C:\Users\subject\Desktop\SVRT Experiments\SVRT Experiment 3\svrt_images\generated_images\results_problem_14,,C:\Users\subject\Desktop\SVRT Experiments\SVRT Experiment 3\svrt_images\generated_images\results_problem_15\sample_1_0014.png,,C:\Users\subject\Desktop\SVRT Experiments\SVRT Experiment 3\svrt_images\generated_images\results_problem_20\sample_1_0002.png,,C:\Users\subject\Desktop\SVRT Experiments\SVRT Experiment 3\svrt_images\generated_images\results_problem_14\sample_0_0003.png,,,,,,,,,,,,,,,,,,0,5,5,5,0,19,19,19,,,,,,,,,,,,,,f,14,A,B,11,0,Incorrect!,0.9966491999803111,860.0791918999748,None,860.0791918999748,None,861.0966249998892,None,,,,,43,001,2023-05-11_13h01.17.133,uncolored_shuffled,2021.2.3,59.96073768921259,
C:\Users\subject\Desktop\SVRT Experiments\SVRT Experiment 3\svrt_images\generated_images\results_problem_14,,C:\Users\subject\Desktop\SVRT Experiments\SVRT Experiment 3\svrt_images\generated_images\results_problem_15\sample_1_0014.png,,C:\Users\subject\Desktop\SVRT Experiments\SVRT Experiment 3\svrt_images\generated_images\results_problem_20\sample_1_0002.png,,C:\Users\subject\Desktop\SVRT Experiments\SVRT Experiment 3\svrt_images\generated_images\results_problem_14\sample_0_0005.png,,,,,,,,,,,,,,,,,,0,5,5,5,0,20,20,20,,,,,,,,,,,,,,f,14,A,B,11,0,Incorrect!,1.3956319000571966,862.264176699915,None,862.264176699915,None,863.6819067999022,None,,,,,43,001,2023-05-11_13h01.17.133,uncolored_shuffled,2021.2.3,59.96073768921259,
C:\Users\subject\Desktop\SVRT Experiments\SVRT Experiment 3\svrt_images\generated_images\results_problem_14,,C:\Users\subject\Desktop\SVRT Experiments\SVRT Experiment 3\svrt_images\generated_images\results_problem_15\sample_1_0014.png,,C:\Users\subject\Desktop\SVRT Experiments\SVRT Experiment 3\svrt_images\generated_images\results_problem_20\sample_1_0002.png,,C:\Users\subject\Desktop\SVRT Experiments\SVRT Experiment 3\svrt_images\generated_images\results_problem_14\sample_1_0012.png,,,,,,,,,,,,,,,,,,0,5,5,5,0,21,21,21,,,,,,,,,,,,,,j,14,B,A,11,0,Incorrect!,0.9296398999867961,864.8661385999294,None,864.8661385999294,None,865.816808899981,None,,,,,43,001,2023-05-11_13h01.17.133,uncolored_shuffled,2021.2.3,59.96073768921259,
C:\Users\subject\Desktop\SVRT Experiments\SVRT Experiment 3\svrt_images\generated_images\results_problem_14,,C:\Users\subject\Desktop\SVRT Experiments\SVRT Experiment 3\svrt_images\generated_images\results_problem_15\sample_1_0014.png,,C:\Users\subject\Desktop\SVRT Experiments\SVRT Experiment 3\svrt_images\generated_images\results_problem_20\sample_1_0002.png,,C:\Users\subject\Desktop\SVRT Experiments\SVRT Experiment 3\svrt_images\generated_images\results_problem_14\sample_0_0001.png,,,,,,,,,,,,,,,,,,0,5,5,5,0,22,22,22,,,,,,,,,,,,,,j,14,B,B,11,1,Correct!,1.0659913000417873,867.0177276999457,None,867.0177276999457,None,868.1018602999393,None,,,,,43,001,2023-05-11_13h01.17.133,uncolored_shuffled,2021.2.3,59.96073768921259,
C:\Users\subject\Desktop\SVRT Experiments\SVRT Experiment 3\svrt_images\generated_images\results_problem_14,,C:\Users\subject\Desktop\SVRT Experiments\SVRT Experiment 3\svrt_images\generated_images\results_problem_15\sample_1_0014.png,,C:\Users\subject\Desktop\SVRT Experiments\SVRT Experiment 3\svrt_images\generated_images\results_problem_20\sample_1_0002.png,,C:\Users\subject\Desktop\SVRT Experiments\SVRT Experiment 3\svrt_images\generated_images\results_problem_14\sample_1_0014.png,,,,,,,,,,,,,,,,,,0,5,5,5,0,23,23,23,,,,,,,,,,,,,,f,14,A,A,11,1,Correct!,1.092900599935092,869.3027858999558,None,869.3027858999558,None,870.4202661999734,None,,,,,43,001,2023-05-11_13h01.17.133,uncolored_shuffled,2021.2.3,59.96073768921259,
C:\Users\subject\Desktop\SVRT Experiments\SVRT Experiment 3\svrt_images\generated_images\results_problem_14,,C:\Users\subject\Desktop\SVRT Experiments\SVRT Experiment 3\svrt_images\generated_images\results_problem_15\sample_1_0014.png,,C:\Users\subject\Desktop\SVRT Experiments\SVRT Experiment 3\svrt_images\generated_images\results_problem_20\sample_1_0002.png,,C:\Users\subject\Desktop\SVRT Experiments\SVRT Experiment 3\svrt_images\generated_images\results_problem_14\sample_1_0010.png,,,,,,,,,,,,,,,,,,0,5,5,5,0,24,24,24,,,,,,,,,,,,,,f,14,A,A,11,1,Correct!,1.0057794000022113,871.6378411999904,None,871.6378411999904,None,872.6719505999936,None,,,,,43,001,2023-05-11_13h01.17.133,uncolored_shuffled,2021.2.3,59.96073768921259,
C:\Users\subject\Desktop\SVRT Experiments\SVRT Experiment 3\svrt_images\generated_images\results_problem_14,,C:\Users\subject\Desktop\SVRT Experiments\SVRT Experiment 3\svrt_images\generated_images\results_problem_15\sample_1_0014.png,,C:\Users\subject\Desktop\SVRT Experiments\SVRT Experiment 3\svrt_images\generated_images\results_problem_20\sample_1_0002.png,,C:\Users\subject\Desktop\SVRT Experiments\SVRT Experiment 3\svrt_images\generated_images\results_problem_14\sample_0_0007.png,,,,,,,,,,,,,,,,,,0,5,5,5,0,25,25,25,,,,,,,,,,,,,,j,14,B,B,11,1,Correct!,1.897407100070268,873.9062060998986,None,873.9062060998986,None,875.8576621999964,None,,,,,43,001,2023-05-11_13h01.17.133,uncolored_shuffled,2021.2.3,59.96073768921259,
C:\Users\subject\Desktop\SVRT Experiments\SVRT Experiment 3\svrt_images\generated_images\results_problem_14,,C:\Users\subject\Desktop\SVRT Experiments\SVRT Experiment 3\svrt_images\generated_images\results_problem_15\sample_1_0014.png,,C:\Users\subject\Desktop\SVRT Experiments\SVRT Experiment 3\svrt_images\generated_images\results_problem_20\sample_1_0002.png,,C:\Users\subject\Desktop\SVRT Experiments\SVRT Experiment 3\svrt_images\generated_images\results_problem_14\sample_1_0000.png,,,,,,,,,,,,,,,,,,0,5,5,5,0,26,26,26,,,,,,,,,,,,,,f,14,A,A,11,1,Correct!,4.319650799967349,877.091954799951,None,877.091954799951,None,881.4618911999278,None,,,,,43,001,2023-05-11_13h01.17.133,uncolored_shuffled,2021.2.3,59.96073768921259,
C:\Users\subject\Desktop\SVRT Experiments\SVRT Experiment 3\svrt_images\generated_images\results_problem_14,,C:\Users\subject\Desktop\SVRT Experiments\SVRT Experiment 3\svrt_images\generated_images\results_problem_15\sample_1_0014.png,,C:\Users\subject\Desktop\SVRT Experiments\SVRT Experiment 3\svrt_images\generated_images\results_problem_20\sample_1_0002.png,,C:\Users\subject\Desktop\SVRT Experiments\SVRT Experiment 3\svrt_images\generated_images\results_problem_14\sample_0_0006.png,,,,,,,,,,,,,,,,,,0,5,5,5,0,27,27,27,,,,,,,,,,,,,,j,14,B,B,11,1,Correct!,3.55466089991387,882.7128349998966,None,882.7128349998966,None,886.3321747999871,None,,,,,43,001,2023-05-11_13h01.17.133,uncolored_shuffled,2021.2.3,59.96073768921259,
C:\Users\subject\Desktop\SVRT Experiments\SVRT Experiment 3\svrt_images\generated_images\results_problem_14,,C:\Users\subject\Desktop\SVRT Experiments\SVRT Experiment 3\svrt_images\generated_images\results_problem_15\sample_1_0014.png,,C:\Users\subject\Desktop\SVRT Experiments\SVRT Experiment 3\svrt_images\generated_images\results_problem_20\sample_1_0002.png,,C:\Users\subject\Desktop\SVRT Experiments\SVRT Experiment 3\svrt_images\generated_images\results_problem_14\sample_1_0009.png,,,,,,,,,,,,,,,,,,0,5,5,5,0,28,28,28,,,,,,,,,,,,,,f,14,A,A,11,1,Correct!,4.467651600018144,887.5998039999977,None,887.5998039999977,None,892.1198473999975,None,,,,,43,001,2023-05-11_13h01.17.133,uncolored_shuffled,2021.2.3,59.96073768921259,
C:\Users\subject\Desktop\SVRT Experiments\SVRT Experiment 3\svrt_images\generated_images\results_problem_14,,C:\Users\subject\Desktop\SVRT Experiments\SVRT Experiment 3\svrt_images\generated_images\results_problem_15\sample_1_0014.png,,C:\Users\subject\Desktop\SVRT Experiments\SVRT Experiment 3\svrt_images\generated_images\results_problem_20\sample_1_0002.png,,C:\Users\subject\Desktop\SVRT Experiments\SVRT Experiment 3\svrt_images\generated_images\results_problem_14\sample_0_0010.png,,,,,,,,,,,,,,,,,,0,5,5,5,0,29,29,29,,,,,,,,,,,,,,,,,,,,,,,,,,,,893.1206264999928,893.1206264999928,space,1.7067650000099093,43,001,2023-05-11_13h01.17.133,uncolored_shuffled,2021.2.3,59.96073768921259,
C:\Users\subject\Desktop\SVRT Experiments\SVRT Experiment 3\svrt_images\generated_images\results_problem_10,,C:\Users\subject\Desktop\SVRT Experiments\SVRT Experiment 3\svrt_images\generated_images\results_problem_15\sample_1_0014.png,,C:\Users\subject\Desktop\SVRT Experiments\SVRT Experiment 3\svrt_images\generated_images\results_problem_20\sample_1_0002.png,,C:\Users\subject\Desktop\SVRT Experiments\SVRT Experiment 3\svrt_images\generated_images\results_problem_14\sample_0_0010.png,C:\Users\subject\Desktop\SVRT Experiments\SVRT Experiment 3\svrt_images\generated_images\results_problem_10\sample_1_0001.png,,,,,,,,,,,,,,,,,0,6,6,6,0,0,0,0,,,,,,,,,,,,,,f,10,A,A,11,1,Correct!,1.460144899901934,894.8552344999043,None,894.8552344999043,None,896.3396936999634,None,,,,,43,001,2023-05-11_13h01.17.133,uncolored_shuffled,2021.2.3,59.96073768921259,
C:\Users\subject\Desktop\SVRT Experiments\SVRT Experiment 3\svrt_images\generated_images\results_problem_10,,C:\Users\subject\Desktop\SVRT Experiments\SVRT Experiment 3\svrt_images\generated_images\results_problem_15\sample_1_0014.png,,C:\Users\subject\Desktop\SVRT Experiments\SVRT Experiment 3\svrt_images\generated_images\results_problem_20\sample_1_0002.png,,C:\Users\subject\Desktop\SVRT Experiments\SVRT Experiment 3\svrt_images\generated_images\results_problem_14\sample_0_0010.png,C:\Users\subject\Desktop\SVRT Experiments\SVRT Experiment 3\svrt_images\generated_images\results_problem_10\sample_0_0003.png,,,,,,,,,,,,,,,,,0,6,6,6,0,1,1,1,,,,,,,,,,,,,,j,10,B,B,11,1,Correct!,0.7509169999975711,897.340438199928,None,897.340438199928,None,898.1243649999378,None,,,,,43,001,2023-05-11_13h01.17.133,uncolored_shuffled,2021.2.3,59.96073768921259,
C:\Users\subject\Desktop\SVRT Experiments\SVRT Experiment 3\svrt_images\generated_images\results_problem_10,,C:\Users\subject\Desktop\SVRT Experiments\SVRT Experiment 3\svrt_images\generated_images\results_problem_15\sample_1_0014.png,,C:\Users\subject\Desktop\SVRT Experiments\SVRT Experiment 3\svrt_images\generated_images\results_problem_20\sample_1_0002.png,,C:\Users\subject\Desktop\SVRT Experiments\SVRT Experiment 3\svrt_images\generated_images\results_problem_14\sample_0_0010.png,C:\Users\subject\Desktop\SVRT Experiments\SVRT Experiment 3\svrt_images\generated_images\results_problem_10\sample_1_0002.png,,,,,,,,,,,,,,,,,0,6,6,6,0,2,2,2,,,,,,,,,,,,,,j,10,B,A,11,0,Incorrect!,1.4535872000269592,899.1417757999152,None,899.1417757999152,None,900.6262167999521,None,,,,,43,001,2023-05-11_13h01.17.133,uncolored_shuffled,2021.2.3,59.96073768921259,
