folder,results_problem_19,results_problem_14,results_problem_17,results_problem_13,results_problem_12,results_problem_23,results_problem_3,results_problem_2,results_problem_5,results_problem_8,results_problem_16,results_problem_11,results_problem_18,results_problem_4,results_problem_7,results_problem_21,results_problem_10,results_problem_9,results_problem_22,results_problem_6,results_problem_15,results_problem_1,results_problem_20,categories.thisRepN,categories.thisTrialN,categories.thisN,categories.thisIndex,trials.thisRepN,trials.thisTrialN,trials.thisN,trials.thisIndex,consent_text.started,consent_kb.started,consent_kb.keys,consent_kb.rt,Gender.keys,Gender.rt,Age,instructions_text.started,instructions_text.stopped,instructions_kb.keys,instructions_kb.rt,instructions_kb.started,instructions_kb.stopped,trial_kb.keys,current_problem_num,category_resp,answer,seed,accuracy,feedback,trial_kb.rt,trial_kb.started,trial_kb.stopped,trial_image.started,trial_image.stopped,feedback_text.started,feedback_text.stopped,new_problem_kb.started,new_problem_text.started,new_problem_kb.keys,new_problem_kb.rt,Participant #,session,date,expName,psychopyVersion,frameRate,
,,,,,,,,,,,,,,,,,,,,,,,,,,,,,,,,49.40858950000256,49.40858950000256,y,40.48931080001057,,,,,,,,,,,,,,,,,,,,,,,,,,,,45,001,2023-05-12_09h12.51.494,colored_shuffled,2021.2.3,59.99548833286094,
,,,,,,,,,,,,,,,,,,,,,,,,,,,,,,,,,,,,w,4.853645700000925,,,,,,,,,,,,,,,,,,,,,,,,,,45,001,2023-05-12_09h12.51.494,colored_shuffled,2021.2.3,59.99548833286094,
,,,,,,,,,,,,,,,,,,,,,,,,,,,,,,,,,,,,,,21,99.4736261999933,None,space,23.400310299999546,99.4736261999933,None,,,,,,,,,,,,,,,,,,,45,001,2023-05-12_09h12.51.494,colored_shuffled,2021.2.3,59.99548833286094,
C:\Users\subject\Desktop\SVRT Experiments\SVRT Experiment 3\svrt_images\generated_images\results_problem_19,C:\Users\subject\Desktop\SVRT Experiments\SVRT Experiment 3\svrt_images\generated_images\results_problem_19\sample_0_0016.png,,,,,,,,,,,,,,,,,,,,,,,0,0,0,0,0,0,0,0,,,,,,,,,,,,,,f,19,A,B,12,0,Incorrect!,17.803858600003878,123.02197810000507,None,123.02197810000507,None,140.87069630000042,None,,,,,45,001,2023-05-12_09h12.51.494,colored_shuffled,2021.2.3,59.99548833286094,
C:\Users\subject\Desktop\SVRT Experiments\SVRT Experiment 3\svrt_images\generated_images\results_problem_19,C:\Users\subject\Desktop\SVRT Experiments\SVRT Experiment 3\svrt_images\generated_images\results_problem_19\sample_1_0008.png,,,,,,,,,,,,,,,,,,,,,,,0,0,0,0,0,1,1,1,,,,,,,,,,,,,,j,19,B,A,12,0,Incorrect!,11.193662800011225,141.90420540000196,None,141.90420540000196,None,153.11992009999813,None,,,,,45,001,2023-05-12_09h12.51.494,colored_shuffled,2021.2.3,59.99548833286094,
C:\Users\subject\Desktop\SVRT Experiments\SVRT Experiment 3\svrt_images\generated_images\results_problem_19,C:\Users\subject\Desktop\SVRT Experiments\SVRT Experiment 3\svrt_images\generated_images\results_problem_19\sample_0_0006.png,,,,,,,,,,,,,,,,,,,,,,,0,0,0,0,0,2,2,2,,,,,,,,,,,,,,f,19,A,B,12,0,Incorrect!,5.839939299999969,154.16984600000433,None,154.16984600000433,None,160.03570670000045,None,,,,,45,001,2023-05-12_09h12.51.494,colored_shuffled,2021.2.3,59.99548833286094,
C:\Users\subject\Desktop\SVRT Experiments\SVRT Experiment 3\svrt_images\generated_images\results_problem_19,C:\Users\subject\Desktop\SVRT Experiments\SVRT Experiment 3\svrt_images\generated_images\results_problem_19\sample_0_0015.png,,,,,,,,,,,,,,,,,,,,,,,0,0,0,0,0,3,3,3,,,,,,,,,,,,,,j,19,B,B,12,1,Correct!,15.514446099987254,161.119363899983,None,161.119363899983,None,176.651208700001,None,,,,,45,001,2023-05-12_09h12.51.494,colored_shuffled,2021.2.3,59.99548833286094,
C:\Users\subject\Desktop\SVRT Experiments\SVRT Experiment 3\svrt_images\generated_images\results_problem_19,C:\Users\subject\Desktop\SVRT Experiments\SVRT Experiment 3\svrt_images\generated_images\results_problem_19\sample_0_0005.png,,,,,,,,,,,,,,,,,,,,,,,0,0,0,0,0,4,4,4,,,,,,,,,,,,,,f,19,A,B,12,0,Incorrect!,1.7000496999826282,177.71779619998415,None,177.71779619998415,None,179.4509560999868,None,,,,,45,001,2023-05-12_09h12.51.494,colored_shuffled,2021.2.3,59.99548833286094,
C:\Users\subject\Desktop\SVRT Experiments\SVRT Experiment 3\svrt_images\generated_images\results_problem_19,C:\Users\subject\Desktop\SVRT Experiments\SVRT Experiment 3\svrt_images\generated_images\results_problem_19\sample_0_0009.png,,,,,,,,,,,,,,,,,,,,,,,0,0,0,0,0,5,5,5,,,,,,,,,,,,,,f,19,A,B,12,0,Incorrect!,16.436028100026306,180.51754259999143,None,180.51754259999143,None,196.98311129998183,None,,,,,45,001,2023-05-12_09h12.51.494,colored_shuffled,2021.2.3,59.99548833286094,
C:\Users\subject\Desktop\SVRT Experiments\SVRT Experiment 3\svrt_images\generated_images\results_problem_19,C:\Users\subject\Desktop\SVRT Experiments\SVRT Experiment 3\svrt_images\generated_images\results_problem_19\sample_0_0000.png,,,,,,,,,,,,,,,,,,,,,,,0,0,0,0,0,6,6,6,,,,,,,,,,,,,,j,19,B,B,12,1,Correct!,14.663462199998321,198.06632230000105,None,198.06632230000105,None,212.74860679998528,None,,,,,45,001,2023-05-12_09h12.51.494,colored_shuffled,2021.2.3,59.99548833286094,
C:\Users\subject\Desktop\SVRT Experiments\SVRT Experiment 3\svrt_images\generated_images\results_problem_19,C:\Users\subject\Desktop\SVRT Experiments\SVRT Experiment 3\svrt_images\generated_images\results_problem_19\sample_0_0014.png,,,,,,,,,,,,,,,,,,,,,,,0,0,0,0,0,7,7,7,,,,,,,,,,,,,,j,19,B,B,12,1,Correct!,22.1458403999859,213.83186330000171,None,213.83186330000171,None,235.9971086999867,None,,,,,45,001,2023-05-12_09h12.51.494,colored_shuffled,2021.2.3,59.99548833286094,
C:\Users\subject\Desktop\SVRT Experiments\SVRT Experiment 3\svrt_images\generated_images\results_problem_19,C:\Users\subject\Desktop\SVRT Experiments\SVRT Experiment 3\svrt_images\generated_images\results_problem_19\sample_1_0012.png,,,,,,,,,,,,,,,,,,,,,,,0,0,0,0,0,8,8,8,,,,,,,,,,,,,,f,19,A,A,12,1,Correct!,1.6492793999786954,237.08037809998496,None,237.08037809998496,None,238.74691719998373,None,,,,,45,001,2023-05-12_09h12.51.494,colored_shuffled,2021.2.3,59.99548833286094,
C:\Users\subject\Desktop\SVRT Experiments\SVRT Experiment 3\svrt_images\generated_images\results_problem_19,C:\Users\subject\Desktop\SVRT Experiments\SVRT Experiment 3\svrt_images\generated_images\results_problem_19\sample_1_0001.png,,,,,,,,,,,,,,,,,,,,,,,0,0,0,0,0,9,9,9,,,,,,,,,,,,,,j,19,B,A,12,0,Incorrect!,1.4108527000062168,239.8468559999892,None,239.8468559999892,None,241.2800802999991,None,,,,,45,001,2023-05-12_09h12.51.494,colored_shuffled,2021.2.3,59.99548833286094,
C:\Users\subject\Desktop\SVRT Experiments\SVRT Experiment 3\svrt_images\generated_images\results_problem_19,C:\Users\subject\Desktop\SVRT Experiments\SVRT Experiment 3\svrt_images\generated_images\results_problem_19\sample_1_0013.png,,,,,,,,,,,,,,,,,,,,,,,0,0,0,0,0,10,10,10,,,,,,,,,,,,,,f,19,A,A,12,1,Correct!,12.573459900013404,242.3800321999879,None,242.3800321999879,None,254.97904889998608,None,,,,,45,001,2023-05-12_09h12.51.494,colored_shuffled,2021.2.3,59.99548833286094,
C:\Users\subject\Desktop\SVRT Experiments\SVRT Experiment 3\svrt_images\generated_images\results_problem_19,C:\Users\subject\Desktop\SVRT Experiments\SVRT Experiment 3\svrt_images\generated_images\results_problem_19\sample_0_0010.png,,,,,,,,,,,,,,,,,,,,,,,0,0,0,0,0,11,11,11,,,,,,,,,,,,,,f,19,A,B,12,0,Incorrect!,10.234068599995226,256.0956526999944,None,256.0956526999944,None,266.3615630999848,None,,,,,45,001,2023-05-12_09h12.51.494,colored_shuffled,2021.2.3,59.99548833286094,
C:\Users\subject\Desktop\SVRT Experiments\SVRT Experiment 3\svrt_images\generated_images\results_problem_19,C:\Users\subject\Desktop\SVRT Experiments\SVRT Experiment 3\svrt_images\generated_images\results_problem_19\sample_1_0011.png,,,,,,,,,,,,,,,,,,,,,,,0,0,0,0,0,12,12,12,,,,,,,,,,,,,,f,19,A,A,12,1,Correct!,3.299538899998879,267.4781543999852,None,267.4781543999852,None,270.7945966999978,None,,,,,45,001,2023-05-12_09h12.51.494,colored_shuffled,2021.2.3,59.99548833286094,
C:\Users\subject\Desktop\SVRT Experiments\SVRT Experiment 3\svrt_images\generated_images\results_problem_19,C:\Users\subject\Desktop\SVRT Experiments\SVRT Experiment 3\svrt_images\generated_images\results_problem_19\sample_0_0008.png,,,,,,,,,,,,,,,,,,,,,,,0,0,0,0,0,13,13,13,,,,,,,,,,,,,,j,19,B,B,12,1,Correct!,3.842461100022774,271.9111603999918,None,271.9111603999918,None,275.7775897999818,None,,,,,45,001,2023-05-12_09h12.51.494,colored_shuffled,2021.2.3,59.99548833286094,
C:\Users\subject\Desktop\SVRT Experiments\SVRT Experiment 3\svrt_images\generated_images\results_problem_19,C:\Users\subject\Desktop\SVRT Experiments\SVRT Experiment 3\svrt_images\generated_images\results_problem_19\sample_0_0007.png,,,,,,,,,,,,,,,,,,,,,,,0,0,0,0,0,14,14,14,,,,,,,,,,,,,,f,19,A,B,12,0,Incorrect!,1.7708228999981657,276.91086609999184,None,276.91086609999184,None,278.72759049999877,None,,,,,45,001,2023-05-12_09h12.51.494,colored_shuffled,2021.2.3,59.99548833286094,
C:\Users\subject\Desktop\SVRT Experiments\SVRT Experiment 3\svrt_images\generated_images\results_problem_19,C:\Users\subject\Desktop\SVRT Experiments\SVRT Experiment 3\svrt_images\generated_images\results_problem_19\sample_1_0004.png,,,,,,,,,,,,,,,,,,,,,,,0,0,0,0,0,15,15,15,,,,,,,,,,,,,,f,19,A,A,12,1,Correct!,1.7641446000197902,279.8775028999953,None,279.8775028999953,None,281.66071009999723,None,,,,,45,001,2023-05-12_09h12.51.494,colored_shuffled,2021.2.3,59.99548833286094,
C:\Users\subject\Desktop\SVRT Experiments\SVRT Experiment 3\svrt_images\generated_images\results_problem_19,C:\Users\subject\Desktop\SVRT Experiments\SVRT Experiment 3\svrt_images\generated_images\results_problem_19\sample_1_0005.png,,,,,,,,,,,,,,,,,,,,,,,0,0,0,0,0,16,16,16,,,,,,,,,,,,,,j,19,B,A,12,0,Incorrect!,3.1190463000093587,282.8106138999865,None,282.8106138999865,None,285.96041189998505,None,,,,,45,001,2023-05-12_09h12.51.494,colored_shuffled,2021.2.3,59.99548833286094,
C:\Users\subject\Desktop\SVRT Experiments\SVRT Experiment 3\svrt_images\generated_images\results_problem_19,C:\Users\subject\Desktop\SVRT Experiments\SVRT Experiment 3\svrt_images\generated_images\results_problem_19\sample_1_0014.png,,,,,,,,,,,,,,,,,,,,,,,0,0,0,0,0,17,17,17,,,,,,,,,,,,,,j,19,B,A,12,0,Incorrect!,1.1545721000002231,287.1270092999912,None,287.1270092999912,None,288.31031729999813,None,,,,,45,001,2023-05-12_09h12.51.494,colored_shuffled,2021.2.3,59.99548833286094,
C:\Users\subject\Desktop\SVRT Experiments\SVRT Experiment 3\svrt_images\generated_images\results_problem_19,C:\Users\subject\Desktop\SVRT Experiments\SVRT Experiment 3\svrt_images\generated_images\results_problem_19\sample_1_0009.png,,,,,,,,,,,,,,,,,,,,,,,0,0,0,0,0,18,18,18,,,,,,,,,,,,,,f,19,A,A,12,1,Correct!,36.1807831999904,289.4769054999924,None,289.4769054999924,None,325.69117279999773,None,,,,,45,001,2023-05-12_09h12.51.494,colored_shuffled,2021.2.3,59.99548833286094,
C:\Users\subject\Desktop\SVRT Experiments\SVRT Experiment 3\svrt_images\generated_images\results_problem_19,C:\Users\subject\Desktop\SVRT Experiments\SVRT Experiment 3\svrt_images\generated_images\results_problem_19\sample_1_0015.png,,,,,,,,,,,,,,,,,,,,,,,0,0,0,0,0,19,19,19,,,,,,,,,,,,,,f,19,A,A,12,1,Correct!,6.36709859999246,326.8744199999783,None,326.8744199999783,None,333.2906807999825,None,,,,,45,001,2023-05-12_09h12.51.494,colored_shuffled,2021.2.3,59.99548833286094,
C:\Users\subject\Desktop\SVRT Experiments\SVRT Experiment 3\svrt_images\generated_images\results_problem_19,C:\Users\subject\Desktop\SVRT Experiments\SVRT Experiment 3\svrt_images\generated_images\results_problem_19\sample_1_0007.png,,,,,,,,,,,,,,,,,,,,,,,0,0,0,0,0,20,20,20,,,,,,,,,,,,,,f,19,A,A,12,1,Correct!,2.8156245999853127,334.4739154999843,None,334.4739154999843,None,337.32373429997824,None,,,,,45,001,2023-05-12_09h12.51.494,colored_shuffled,2021.2.3,59.99548833286094,
C:\Users\subject\Desktop\SVRT Experiments\SVRT Experiment 3\svrt_images\generated_images\results_problem_19,C:\Users\subject\Desktop\SVRT Experiments\SVRT Experiment 3\svrt_images\generated_images\results_problem_19\sample_1_0003.png,,,,,,,,,,,,,,,,,,,,,,,0,0,0,0,0,21,21,21,,,,,,,,,,,,,,f,19,A,A,12,1,Correct!,2.0618981999868993,338.5236705999996,None,338.5236705999996,None,340.6068575999816,None,,,,,45,001,2023-05-12_09h12.51.494,colored_shuffled,2021.2.3,59.99548833286094,
C:\Users\subject\Desktop\SVRT Experiments\SVRT Experiment 3\svrt_images\generated_images\results_problem_19,C:\Users\subject\Desktop\SVRT Experiments\SVRT Experiment 3\svrt_images\generated_images\results_problem_19\sample_0_0002.png,,,,,,,,,,,,,,,,,,,,,,,0,0,0,0,0,22,22,22,,,,,,,,,,,,,,j,19,B,B,12,1,Correct!,2.6013824999972712,341.8401076000009,None,341.8401076000009,None,344.5066005999979,None,,,,,45,001,2023-05-12_09h12.51.494,colored_shuffled,2021.2.3,59.99548833286094,
C:\Users\subject\Desktop\SVRT Experiments\SVRT Experiment 3\svrt_images\generated_images\results_problem_19,C:\Users\subject\Desktop\SVRT Experiments\SVRT Experiment 3\svrt_images\generated_images\results_problem_19\sample_1_0000.png,,,,,,,,,,,,,,,,,,,,,,,0,0,0,0,0,23,23,23,,,,,,,,,,,,,,f,19,A,A,12,1,Correct!,2.0783050000027288,345.7231912999996,None,345.7231912999996,None,347.8397115999833,None,,,,,45,001,2023-05-12_09h12.51.494,colored_shuffled,2021.2.3,59.99548833286094,
C:\Users\subject\Desktop\SVRT Experiments\SVRT Experiment 3\svrt_images\generated_images\results_problem_19,C:\Users\subject\Desktop\SVRT Experiments\SVRT Experiment 3\svrt_images\generated_images\results_problem_19\sample_0_0004.png,,,,,,,,,,,,,,,,,,,,,,,0,0,0,0,0,24,24,24,,,,,,,,,,,,,,j,19,B,B,12,1,Correct!,1.86390389999724,349.0896498999791,None,349.0896498999791,None,351.0061694000033,None,,,,,45,001,2023-05-12_09h12.51.494,colored_shuffled,2021.2.3,59.99548833286094,
C:\Users\subject\Desktop\SVRT Experiments\SVRT Experiment 3\svrt_images\generated_images\results_problem_19,C:\Users\subject\Desktop\SVRT Experiments\SVRT Experiment 3\svrt_images\generated_images\results_problem_19\sample_1_0010.png,,,,,,,,,,,,,,,,,,,,,,,0,0,0,0,0,25,25,25,,,,,,,,,,,,,,,,,,,,,,,,,,,,352.006114799995,352.006114799995,space,2.5153839999984484,45,001,2023-05-12_09h12.51.494,colored_shuffled,2021.2.3,59.99548833286094,
C:\Users\subject\Desktop\SVRT Experiments\SVRT Experiment 3\svrt_images\generated_images\results_problem_14,C:\Users\subject\Desktop\SVRT Experiments\SVRT Experiment 3\svrt_images\generated_images\results_problem_19\sample_1_0010.png,C:\Users\subject\Desktop\SVRT Experiments\SVRT Experiment 3\svrt_images\generated_images\results_problem_14\sample_0_0012.png,,,,,,,,,,,,,,,,,,,,,,0,1,1,1,0,0,0,0,,,,,,,,,,,,,,f,14,A,B,12,0,Incorrect!,7.70956039999146,354.5559513999906,None,354.5559513999906,None,362.2888032000046,None,,,,,45,001,2023-05-12_09h12.51.494,colored_shuffled,2021.2.3,59.99548833286094,
C:\Users\subject\Desktop\SVRT Experiments\SVRT Experiment 3\svrt_images\generated_images\results_problem_14,C:\Users\subject\Desktop\SVRT Experiments\SVRT Experiment 3\svrt_images\generated_images\results_problem_19\sample_1_0010.png,C:\Users\subject\Desktop\SVRT Experiments\SVRT Experiment 3\svrt_images\generated_images\results_problem_14\sample_1_0004.png,,,,,,,,,,,,,,,,,,,,,,0,1,1,1,0,1,1,1,,,,,,,,,,,,,,j,14,B,A,12,0,Incorrect!,3.5679948999895714,363.3053903999971,None,363.3053903999971,None,366.905176500004,None,,,,,45,001,2023-05-12_09h12.51.494,colored_shuffled,2021.2.3,59.99548833286094,
C:\Users\subject\Desktop\SVRT Experiments\SVRT Experiment 3\svrt_images\generated_images\results_problem_14,C:\Users\subject\Desktop\SVRT Experiments\SVRT Experiment 3\svrt_images\generated_images\results_problem_19\sample_1_0010.png,C:\Users\subject\Desktop\SVRT Experiments\SVRT Experiment 3\svrt_images\generated_images\results_problem_14\sample_1_0010.png,,,,,,,,,,,,,,,,,,,,,,0,1,1,1,0,2,2,2,,,,,,,,,,,,,,f,14,A,A,12,1,Correct!,6.439191800018307,367.93837129999883,None,367.93837129999883,None,374.40486700000474,None,,,,,45,001,2023-05-12_09h12.51.494,colored_shuffled,2021.2.3,59.99548833286094,
C:\Users\subject\Desktop\SVRT Experiments\SVRT Experiment 3\svrt_images\generated_images\results_problem_14,C:\Users\subject\Desktop\SVRT Experiments\SVRT Experiment 3\svrt_images\generated_images\results_problem_19\sample_1_0010.png,C:\Users\subject\Desktop\SVRT Experiments\SVRT Experiment 3\svrt_images\generated_images\results_problem_14\sample_1_0001.png,,,,,,,,,,,,,,,,,,,,,,0,1,1,1,0,3,3,3,,,,,,,,,,,,,,f,14,A,A,12,1,Correct!,20.122636099986266,375.4548436999903,None,375.4548436999903,None,395.6036751999927,None,,,,,45,001,2023-05-12_09h12.51.494,colored_shuffled,2021.2.3,59.99548833286094,
C:\Users\subject\Desktop\SVRT Experiments\SVRT Experiment 3\svrt_images\generated_images\results_problem_14,C:\Users\subject\Desktop\SVRT Experiments\SVRT Experiment 3\svrt_images\generated_images\results_problem_19\sample_1_0010.png,C:\Users\subject\Desktop\SVRT Experiments\SVRT Experiment 3\svrt_images\generated_images\results_problem_14\sample_0_0009.png,,,,,,,,,,,,,,,,,,,,,,0,1,1,1,0,4,4,4,,,,,,,,,,,,,,j,14,B,B,12,1,Correct!,1.3391989000083413,396.67028759999084,None,396.67028759999084,None,398.0364850999904,None,,,,,45,001,2023-05-12_09h12.51.494,colored_shuffled,2021.2.3,59.99548833286094,
C:\Users\subject\Desktop\SVRT Experiments\SVRT Experiment 3\svrt_images\generated_images\results_problem_14,C:\Users\subject\Desktop\SVRT Experiments\SVRT Experiment 3\svrt_images\generated_images\results_problem_19\sample_1_0010.png,C:\Users\subject\Desktop\SVRT Experiments\SVRT Experiment 3\svrt_images\generated_images\results_problem_14\sample_1_0000.png,,,,,,,,,,,,,,,,,,,,,,0,1,1,1,0,5,5,5,,,,,,,,,,,,,,f,14,A,A,12,1,Correct!,1.1150763000186998,399.08639889999176,None,399.08639889999176,None,400.2196621999901,None,,,,,45,001,2023-05-12_09h12.51.494,colored_shuffled,2021.2.3,59.99548833286094,
C:\Users\subject\Desktop\SVRT Experiments\SVRT Experiment 3\svrt_images\generated_images\results_problem_14,C:\Users\subject\Desktop\SVRT Experiments\SVRT Experiment 3\svrt_images\generated_images\results_problem_19\sample_1_0010.png,C:\Users\subject\Desktop\SVRT Experiments\SVRT Experiment 3\svrt_images\generated_images\results_problem_14\sample_1_0012.png,,,,,,,,,,,,,,,,,,,,,,0,1,1,1,0,6,6,6,,,,,,,,,,,,,,f,14,A,A,12,1,Correct!,1.8911111000052188,401.28627559999586,None,401.28627559999586,None,403.202741599991,None,,,,,45,001,2023-05-12_09h12.51.494,colored_shuffled,2021.2.3,59.99548833286094,
C:\Users\subject\Desktop\SVRT Experiments\SVRT Experiment 3\svrt_images\generated_images\results_problem_14,C:\Users\subject\Desktop\SVRT Experiments\SVRT Experiment 3\svrt_images\generated_images\results_problem_19\sample_1_0010.png,C:\Users\subject\Desktop\SVRT Experiments\SVRT Experiment 3\svrt_images\generated_images\results_problem_14\sample_0_0004.png,,,,,,,,,,,,,,,,,,,,,,0,1,1,1,0,7,7,7,,,,,,,,,,,,,,j,14,B,B,12,1,Correct!,0.811942900007125,404.2693417999835,None,404.2693417999835,None,405.1025962999847,None,,,,,45,001,2023-05-12_09h12.51.494,colored_shuffled,2021.2.3,59.99548833286094,
C:\Users\subject\Desktop\SVRT Experiments\SVRT Experiment 3\svrt_images\generated_images\results_problem_14,C:\Users\subject\Desktop\SVRT Experiments\SVRT Experiment 3\svrt_images\generated_images\results_problem_19\sample_1_0010.png,C:\Users\subject\Desktop\SVRT Experiments\SVRT Experiment 3\svrt_images\generated_images\results_problem_14\sample_0_0005.png,,,,,,,,,,,,,,,,,,,,,,0,1,1,1,0,8,8,8,,,,,,,,,,,,,,j,14,B,B,12,1,Correct!,0.9275587000011001,406.1858767999802,None,406.1858767999802,None,407.1358940000064,None,,,,,45,001,2023-05-12_09h12.51.494,colored_shuffled,2021.2.3,59.99548833286094,
C:\Users\subject\Desktop\SVRT Experiments\SVRT Experiment 3\svrt_images\generated_images\results_problem_14,C:\Users\subject\Desktop\SVRT Experiments\SVRT Experiment 3\svrt_images\generated_images\results_problem_19\sample_1_0010.png,C:\Users\subject\Desktop\SVRT Experiments\SVRT Experiment 3\svrt_images\generated_images\results_problem_14\sample_1_0009.png,,,,,,,,,,,,,,,,,,,,,,0,1,1,1,0,9,9,9,,,,,,,,,,,,,,,,,,,,,,,,,,,,408.1358323000022,408.1358323000022,space,2.1615874000126496,45,001,2023-05-12_09h12.51.494,colored_shuffled,2021.2.3,59.99548833286094,
C:\Users\subject\Desktop\SVRT Experiments\SVRT Experiment 3\svrt_images\generated_images\results_problem_17,C:\Users\subject\Desktop\SVRT Experiments\SVRT Experiment 3\svrt_images\generated_images\results_problem_19\sample_1_0010.png,C:\Users\subject\Desktop\SVRT Experiments\SVRT Experiment 3\svrt_images\generated_images\results_problem_14\sample_1_0009.png,C:\Users\subject\Desktop\SVRT Experiments\SVRT Experiment 3\svrt_images\generated_images\results_problem_17\sample_1_0013.png,,,,,,,,,,,,,,,,,,,,,0,2,2,2,0,0,0,0,,,,,,,,,,,,,,j,17,B,A,12,0,Incorrect!,6.182406299980357,410.4190697000013,None,410.4190697000013,None,416.61865180000314,None,,,,,45,001,2023-05-12_09h12.51.494,colored_shuffled,2021.2.3,59.99548833286094,
C:\Users\subject\Desktop\SVRT Experiments\SVRT Experiment 3\svrt_images\generated_images\results_problem_17,C:\Users\subject\Desktop\SVRT Experiments\SVRT Experiment 3\svrt_images\generated_images\results_problem_19\sample_1_0010.png,C:\Users\subject\Desktop\SVRT Experiments\SVRT Experiment 3\svrt_images\generated_images\results_problem_14\sample_1_0009.png,C:\Users\subject\Desktop\SVRT Experiments\SVRT Experiment 3\svrt_images\generated_images\results_problem_17\sample_0_0011.png,,,,,,,,,,,,,,,,,,,,,0,2,2,2,0,1,1,1,,,,,,,,,,,,,,f,17,A,B,12,0,Incorrect!,12.901613000023644,417.6517954999872,None,417.6517954999872,None,430.5846312000067,None,,,,,45,001,2023-05-12_09h12.51.494,colored_shuffled,2021.2.3,59.99548833286094,
C:\Users\subject\Desktop\SVRT Experiments\SVRT Experiment 3\svrt_images\generated_images\results_problem_17,C:\Users\subject\Desktop\SVRT Experiments\SVRT Experiment 3\svrt_images\generated_images\results_problem_19\sample_1_0010.png,C:\Users\subject\Desktop\SVRT Experiments\SVRT Experiment 3\svrt_images\generated_images\results_problem_14\sample_1_0009.png,C:\Users\subject\Desktop\SVRT Experiments\SVRT Experiment 3\svrt_images\generated_images\results_problem_17\sample_0_0006.png,,,,,,,,,,,,,,,,,,,,,0,2,2,2,0,2,2,2,,,,,,,,,,,,,,j,17,B,B,12,1,Correct!,9.12664470000891,431.63461779998033,None,431.63461779998033,None,440.784110699984,None,,,,,45,001,2023-05-12_09h12.51.494,colored_shuffled,2021.2.3,59.99548833286094,
C:\Users\subject\Desktop\SVRT Experiments\SVRT Experiment 3\svrt_images\generated_images\results_problem_17,C:\Users\subject\Desktop\SVRT Experiments\SVRT Experiment 3\svrt_images\generated_images\results_problem_19\sample_1_0010.png,C:\Users\subject\Desktop\SVRT Experiments\SVRT Experiment 3\svrt_images\generated_images\results_problem_14\sample_1_0009.png,C:\Users\subject\Desktop\SVRT Experiments\SVRT Experiment 3\svrt_images\generated_images\results_problem_17\sample_0_0014.png,,,,,,,,,,,,,,,,,,,,,0,2,2,2,0,3,3,3,,,,,,,,,,,,,,j,17,B,B,12,1,Correct!,9.311326499999268,441.8340912999993,None,441.8340912999993,None,451.1668383999786,None,,,,,45,001,2023-05-12_09h12.51.494,colored_shuffled,2021.2.3,59.99548833286094,
C:\Users\subject\Desktop\SVRT Experiments\SVRT Experiment 3\svrt_images\generated_images\results_problem_17,C:\Users\subject\Desktop\SVRT Experiments\SVRT Experiment 3\svrt_images\generated_images\results_problem_19\sample_1_0010.png,C:\Users\subject\Desktop\SVRT Experiments\SVRT Experiment 3\svrt_images\generated_images\results_problem_14\sample_1_0009.png,C:\Users\subject\Desktop\SVRT Experiments\SVRT Experiment 3\svrt_images\generated_images\results_problem_17\sample_0_0015.png,,,,,,,,,,,,,,,,,,,,,0,2,2,2,0,4,4,4,,,,,,,,,,,,,,j,17,B,B,12,1,Correct!,2.9286429999920074,452.21679519998725,None,452.21679519998725,None,455.1661674999923,None,,,,,45,001,2023-05-12_09h12.51.494,colored_shuffled,2021.2.3,59.99548833286094,
C:\Users\subject\Desktop\SVRT Experiments\SVRT Experiment 3\svrt_images\generated_images\results_problem_17,C:\Users\subject\Desktop\SVRT Experiments\SVRT Experiment 3\svrt_images\generated_images\results_problem_19\sample_1_0010.png,C:\Users\subject\Desktop\SVRT Experiments\SVRT Experiment 3\svrt_images\generated_images\results_problem_14\sample_1_0009.png,C:\Users\subject\Desktop\SVRT Experiments\SVRT Experiment 3\svrt_images\generated_images\results_problem_17\sample_0_0010.png,,,,,,,,,,,,,,,,,,,,,0,2,2,2,0,5,5,5,,,,,,,,,,,,,,f,17,A,B,12,0,Incorrect!,1.1206788999843411,456.2327675999841,None,456.2327675999841,None,457.3826688999834,None,,,,,45,001,2023-05-12_09h12.51.494,colored_shuffled,2021.2.3,59.99548833286094,
C:\Users\subject\Desktop\SVRT Experiments\SVRT Experiment 3\svrt_images\generated_images\results_problem_17,C:\Users\subject\Desktop\SVRT Experiments\SVRT Experiment 3\svrt_images\generated_images\results_problem_19\sample_1_0010.png,C:\Users\subject\Desktop\SVRT Experiments\SVRT Experiment 3\svrt_images\generated_images\results_problem_14\sample_1_0009.png,C:\Users\subject\Desktop\SVRT Experiments\SVRT Experiment 3\svrt_images\generated_images\results_problem_17\sample_1_0015.png,,,,,,,,,,,,,,,,,,,,,0,2,2,2,0,6,6,6,,,,,,,,,,,,,,j,17,B,A,12,0,Incorrect!,2.4865151999983937,458.48293119997834,None,458.48293119997834,None,460.9990361999953,None,,,,,45,001,2023-05-12_09h12.51.494,colored_shuffled,2021.2.3,59.99548833286094,
C:\Users\subject\Desktop\SVRT Experiments\SVRT Experiment 3\svrt_images\generated_images\results_problem_17,C:\Users\subject\Desktop\SVRT Experiments\SVRT Experiment 3\svrt_images\generated_images\results_problem_19\sample_1_0010.png,C:\Users\subject\Desktop\SVRT Experiments\SVRT Experiment 3\svrt_images\generated_images\results_problem_14\sample_1_0009.png,C:\Users\subject\Desktop\SVRT Experiments\SVRT Experiment 3\svrt_images\generated_images\results_problem_17\sample_0_0009.png,,,,,,,,,,,,,,,,,,,,,0,2,2,2,0,7,7,7,,,,,,,,,,,,,,f,17,A,B,12,0,Incorrect!,15.943571999989217,462.06563589998404,None,462.06563589998404,None,478.0313669999887,None,,,,,45,001,2023-05-12_09h12.51.494,colored_shuffled,2021.2.3,59.99548833286094,
C:\Users\subject\Desktop\SVRT Experiments\SVRT Experiment 3\svrt_images\generated_images\results_problem_17,C:\Users\subject\Desktop\SVRT Experiments\SVRT Experiment 3\svrt_images\generated_images\results_problem_19\sample_1_0010.png,C:\Users\subject\Desktop\SVRT Experiments\SVRT Experiment 3\svrt_images\generated_images\results_problem_14\sample_1_0009.png,C:\Users\subject\Desktop\SVRT Experiments\SVRT Experiment 3\svrt_images\generated_images\results_problem_17\sample_1_0001.png,,,,,,,,,,,,,,,,,,,,,0,2,2,2,0,8,8,8,,,,,,,,,,,,,,f,17,A,A,12,1,Correct!,15.518687300005695,479.1146218999929,None,479.1146218999929,None,494.66365050000604,None,,,,,45,001,2023-05-12_09h12.51.494,colored_shuffled,2021.2.3,59.99548833286094,
C:\Users\subject\Desktop\SVRT Experiments\SVRT Experiment 3\svrt_images\generated_images\results_problem_17,C:\Users\subject\Desktop\SVRT Experiments\SVRT Experiment 3\svrt_images\generated_images\results_problem_19\sample_1_0010.png,C:\Users\subject\Desktop\SVRT Experiments\SVRT Experiment 3\svrt_images\generated_images\results_problem_14\sample_1_0009.png,C:\Users\subject\Desktop\SVRT Experiments\SVRT Experiment 3\svrt_images\generated_images\results_problem_17\sample_0_0003.png,,,,,,,,,,,,,,,,,,,,,0,2,2,2,0,9,9,9,,,,,,,,,,,,,,f,17,A,B,12,0,Incorrect!,10.405640499986475,495.7635437999852,None,495.7635437999852,None,506.1960528999916,None,,,,,45,001,2023-05-12_09h12.51.494,colored_shuffled,2021.2.3,59.99548833286094,
C:\Users\subject\Desktop\SVRT Experiments\SVRT Experiment 3\svrt_images\generated_images\results_problem_17,C:\Users\subject\Desktop\SVRT Experiments\SVRT Experiment 3\svrt_images\generated_images\results_problem_19\sample_1_0010.png,C:\Users\subject\Desktop\SVRT Experiments\SVRT Experiment 3\svrt_images\generated_images\results_problem_14\sample_1_0009.png,C:\Users\subject\Desktop\SVRT Experiments\SVRT Experiment 3\svrt_images\generated_images\results_problem_17\sample_1_0006.png,,,,,,,,,,,,,,,,,,,,,0,2,2,2,0,10,10,10,,,,,,,,,,,,,,f,17,A,A,12,1,Correct!,13.575588100007735,507.3296936999832,None,507.3296936999832,None,520.928410499997,None,,,,,45,001,2023-05-12_09h12.51.494,colored_shuffled,2021.2.3,59.99548833286094,
C:\Users\subject\Desktop\SVRT Experiments\SVRT Experiment 3\svrt_images\generated_images\results_problem_17,C:\Users\subject\Desktop\SVRT Experiments\SVRT Experiment 3\svrt_images\generated_images\results_problem_19\sample_1_0010.png,C:\Users\subject\Desktop\SVRT Experiments\SVRT Experiment 3\svrt_images\generated_images\results_problem_14\sample_1_0009.png,C:\Users\subject\Desktop\SVRT Experiments\SVRT Experiment 3\svrt_images\generated_images\results_problem_17\sample_1_0004.png,,,,,,,,,,,,,,,,,,,,,0,2,2,2,0,11,11,11,,,,,,,,,,,,,,j,17,B,A,12,0,Incorrect!,6.540081499988446,522.045207099989,None,522.045207099989,None,528.6112629999989,None,,,,,45,001,2023-05-12_09h12.51.494,colored_shuffled,2021.2.3,59.99548833286094,
C:\Users\subject\Desktop\SVRT Experiments\SVRT Experiment 3\svrt_images\generated_images\results_problem_17,C:\Users\subject\Desktop\SVRT Experiments\SVRT Experiment 3\svrt_images\generated_images\results_problem_19\sample_1_0010.png,C:\Users\subject\Desktop\SVRT Experiments\SVRT Experiment 3\svrt_images\generated_images\results_problem_14\sample_1_0009.png,C:\Users\subject\Desktop\SVRT Experiments\SVRT Experiment 3\svrt_images\generated_images\results_problem_17\sample_0_0008.png,,,,,,,,,,,,,,,,,,,,,0,2,2,2,0,12,12,12,,,,,,,,,,,,,,f,17,A,B,12,0,Incorrect!,3.6216049999929965,529.8278583000065,None,529.8278583000065,None,533.4776513999968,None,,,,,45,001,2023-05-12_09h12.51.494,colored_shuffled,2021.2.3,59.99548833286094,
C:\Users\subject\Desktop\SVRT Experiments\SVRT Experiment 3\svrt_images\generated_images\results_problem_17,C:\Users\subject\Desktop\SVRT Experiments\SVRT Experiment 3\svrt_images\generated_images\results_problem_19\sample_1_0010.png,C:\Users\subject\Desktop\SVRT Experiments\SVRT Experiment 3\svrt_images\generated_images\results_problem_14\sample_1_0009.png,C:\Users\subject\Desktop\SVRT Experiments\SVRT Experiment 3\svrt_images\generated_images\results_problem_17\sample_0_0000.png,,,,,,,,,,,,,,,,,,,,,0,2,2,2,0,13,13,13,,,,,,,,,,,,,,f,17,A,B,12,0,Incorrect!,48.41940820001764,534.6775968000002,None,534.6775968000002,None,583.1411725999787,None,,,,,45,001,2023-05-12_09h12.51.494,colored_shuffled,2021.2.3,59.99548833286094,
C:\Users\subject\Desktop\SVRT Experiments\SVRT Experiment 3\svrt_images\generated_images\results_problem_17,C:\Users\subject\Desktop\SVRT Experiments\SVRT Experiment 3\svrt_images\generated_images\results_problem_19\sample_1_0010.png,C:\Users\subject\Desktop\SVRT Experiments\SVRT Experiment 3\svrt_images\generated_images\results_problem_14\sample_1_0009.png,C:\Users\subject\Desktop\SVRT Experiments\SVRT Experiment 3\svrt_images\generated_images\results_problem_17\sample_0_0012.png,,,,,,,,,,,,,,,,,,,,,0,2,2,2,0,14,14,14,,,,,,,,,,,,,,f,17,A,B,12,0,Incorrect!,2.0999001000018325,584.341073299991,None,584.341073299991,None,586.4578133999894,None,,,,,45,001,2023-05-12_09h12.51.494,colored_shuffled,2021.2.3,59.99548833286094,
C:\Users\subject\Desktop\SVRT Experiments\SVRT Experiment 3\svrt_images\generated_images\results_problem_17,C:\Users\subject\Desktop\SVRT Experiments\SVRT Experiment 3\svrt_images\generated_images\results_problem_19\sample_1_0010.png,C:\Users\subject\Desktop\SVRT Experiments\SVRT Experiment 3\svrt_images\generated_images\results_problem_14\sample_1_0009.png,C:\Users\subject\Desktop\SVRT Experiments\SVRT Experiment 3\svrt_images\generated_images\results_problem_17\sample_0_0002.png,,,,,,,,,,,,,,,,,,,,,0,2,2,2,0,15,15,15,,,,,,,,,,,,,,j,17,B,B,12,1,Correct!,1.8552718000137247,587.6577343999816,None,587.6577343999816,None,589.5409173999797,None,,,,,45,001,2023-05-12_09h12.51.494,colored_shuffled,2021.2.3,59.99548833286094,
C:\Users\subject\Desktop\SVRT Experiments\SVRT Experiment 3\svrt_images\generated_images\results_problem_17,C:\Users\subject\Desktop\SVRT Experiments\SVRT Experiment 3\svrt_images\generated_images\results_problem_19\sample_1_0010.png,C:\Users\subject\Desktop\SVRT Experiments\SVRT Experiment 3\svrt_images\generated_images\results_problem_14\sample_1_0009.png,C:\Users\subject\Desktop\SVRT Experiments\SVRT Experiment 3\svrt_images\generated_images\results_problem_17\sample_0_0016.png,,,,,,,,,,,,,,,,,,,,,0,2,2,2,0,16,16,16,,,,,,,,,,,,,,j,17,B,B,12,1,Correct!,3.296297000022605,590.8408408999967,None,590.8408408999967,None,594.1573021999793,None,,,,,45,001,2023-05-12_09h12.51.494,colored_shuffled,2021.2.3,59.99548833286094,
C:\Users\subject\Desktop\SVRT Experiments\SVRT Experiment 3\svrt_images\generated_images\results_problem_17,C:\Users\subject\Desktop\SVRT Experiments\SVRT Experiment 3\svrt_images\generated_images\results_problem_19\sample_1_0010.png,C:\Users\subject\Desktop\SVRT Experiments\SVRT Experiment 3\svrt_images\generated_images\results_problem_14\sample_1_0009.png,C:\Users\subject\Desktop\SVRT Experiments\SVRT Experiment 3\svrt_images\generated_images\results_problem_17\sample_1_0002.png,,,,,,,,,,,,,,,,,,,,,0,2,2,2,0,17,17,17,,,,,,,,,,,,,,j,17,B,A,12,0,Incorrect!,2.150408299989067,595.4905712000036,None,595.4905712000036,None,597.6737123999919,None,,,,,45,001,2023-05-12_09h12.51.494,colored_shuffled,2021.2.3,59.99548833286094,
C:\Users\subject\Desktop\SVRT Experiments\SVRT Experiment 3\svrt_images\generated_images\results_problem_17,C:\Users\subject\Desktop\SVRT Experiments\SVRT Experiment 3\svrt_images\generated_images\results_problem_19\sample_1_0010.png,C:\Users\subject\Desktop\SVRT Experiments\SVRT Experiment 3\svrt_images\generated_images\results_problem_14\sample_1_0009.png,C:\Users\subject\Desktop\SVRT Experiments\SVRT Experiment 3\svrt_images\generated_images\results_problem_17\sample_1_0003.png,,,,,,,,,,,,,,,,,,,,,0,2,2,2,0,18,18,18,,,,,,,,,,,,,,f,17,A,A,12,1,Correct!,8.253335199988214,598.9236757000035,None,598.9236757000035,None,607.2064960999996,None,,,,,45,001,2023-05-12_09h12.51.494,colored_shuffled,2021.2.3,59.99548833286094,
C:\Users\subject\Desktop\SVRT Experiments\SVRT Experiment 3\svrt_images\generated_images\results_problem_17,C:\Users\subject\Desktop\SVRT Experiments\SVRT Experiment 3\svrt_images\generated_images\results_problem_19\sample_1_0010.png,C:\Users\subject\Desktop\SVRT Experiments\SVRT Experiment 3\svrt_images\generated_images\results_problem_14\sample_1_0009.png,C:\Users\subject\Desktop\SVRT Experiments\SVRT Experiment 3\svrt_images\generated_images\results_problem_17\sample_0_0001.png,,,,,,,,,,,,,,,,,,,,,0,2,2,2,0,19,19,19,,,,,,,,,,,,,,j,17,B,B,12,1,Correct!,18.11340190001647,608.439747299999,None,608.439747299999,None,626.5886024999782,None,,,,,45,001,2023-05-12_09h12.51.494,colored_shuffled,2021.2.3,59.99548833286094,
C:\Users\subject\Desktop\SVRT Experiments\SVRT Experiment 3\svrt_images\generated_images\results_problem_17,C:\Users\subject\Desktop\SVRT Experiments\SVRT Experiment 3\svrt_images\generated_images\results_problem_19\sample_1_0010.png,C:\Users\subject\Desktop\SVRT Experiments\SVRT Experiment 3\svrt_images\generated_images\results_problem_14\sample_1_0009.png,C:\Users\subject\Desktop\SVRT Experiments\SVRT Experiment 3\svrt_images\generated_images\results_problem_17\sample_1_0000.png,,,,,,,,,,,,,,,,,,,,,0,2,2,2,0,20,20,20,,,,,,,,,,,,,,f,17,A,A,12,1,Correct!,1.7559457000170369,627.8052057999885,None,627.8052057999885,None,629.5884079999814,None,,,,,45,001,2023-05-12_09h12.51.494,colored_shuffled,2021.2.3,59.99548833286094,
C:\Users\subject\Desktop\SVRT Experiments\SVRT Experiment 3\svrt_images\generated_images\results_problem_17,C:\Users\subject\Desktop\SVRT Experiments\SVRT Experiment 3\svrt_images\generated_images\results_problem_19\sample_1_0010.png,C:\Users\subject\Desktop\SVRT Experiments\SVRT Experiment 3\svrt_images\generated_images\results_problem_14\sample_1_0009.png,C:\Users\subject\Desktop\SVRT Experiments\SVRT Experiment 3\svrt_images\generated_images\results_problem_17\sample_0_0013.png,,,,,,,,,,,,,,,,,,,,,0,2,2,2,0,21,21,21,,,,,,,,,,,,,,j,17,B,B,12,1,Correct!,4.067458300007274,630.821666999982,None,630.821666999982,None,634.9380783999804,None,,,,,45,001,2023-05-12_09h12.51.494,colored_shuffled,2021.2.3,59.99548833286094,
C:\Users\subject\Desktop\SVRT Experiments\SVRT Experiment 3\svrt_images\generated_images\results_problem_17,C:\Users\subject\Desktop\SVRT Experiments\SVRT Experiment 3\svrt_images\generated_images\results_problem_19\sample_1_0010.png,C:\Users\subject\Desktop\SVRT Experiments\SVRT Experiment 3\svrt_images\generated_images\results_problem_14\sample_1_0009.png,C:\Users\subject\Desktop\SVRT Experiments\SVRT Experiment 3\svrt_images\generated_images\results_problem_17\sample_0_0004.png,,,,,,,,,,,,,,,,,,,,,0,2,2,2,0,22,22,22,,,,,,,,,,,,,,j,17,B,B,12,1,Correct!,1.374625800002832,636.1544816999813,None,636.1544816999813,None,637.571248799999,None,,,,,45,001,2023-05-12_09h12.51.494,colored_shuffled,2021.2.3,59.99548833286094,
C:\Users\subject\Desktop\SVRT Experiments\SVRT Experiment 3\svrt_images\generated_images\results_problem_17,C:\Users\subject\Desktop\SVRT Experiments\SVRT Experiment 3\svrt_images\generated_images\results_problem_19\sample_1_0010.png,C:\Users\subject\Desktop\SVRT Experiments\SVRT Experiment 3\svrt_images\generated_images\results_problem_14\sample_1_0009.png,C:\Users\subject\Desktop\SVRT Experiments\SVRT Experiment 3\svrt_images\generated_images\results_problem_17\sample_1_0009.png,,,,,,,,,,,,,,,,,,,,,0,2,2,2,0,23,23,23,,,,,,,,,,,,,,f,17,A,A,12,1,Correct!,2.0845045000023674,638.804529999994,None,638.804529999994,None,640.9210372999951,None,,,,,45,001,2023-05-12_09h12.51.494,colored_shuffled,2021.2.3,59.99548833286094,
C:\Users\subject\Desktop\SVRT Experiments\SVRT Experiment 3\svrt_images\generated_images\results_problem_17,C:\Users\subject\Desktop\SVRT Experiments\SVRT Experiment 3\svrt_images\generated_images\results_problem_19\sample_1_0010.png,C:\Users\subject\Desktop\SVRT Experiments\SVRT Experiment 3\svrt_images\generated_images\results_problem_14\sample_1_0009.png,C:\Users\subject\Desktop\SVRT Experiments\SVRT Experiment 3\svrt_images\generated_images\results_problem_17\sample_1_0010.png,,,,,,,,,,,,,,,,,,,,,0,2,2,2,0,24,24,24,,,,,,,,,,,,,,j,17,B,A,12,0,Incorrect!,1.9022312000161037,642.1709557999857,None,642.1709557999857,None,644.1375103000028,None,,,,,45,001,2023-05-12_09h12.51.494,colored_shuffled,2021.2.3,59.99548833286094,
C:\Users\subject\Desktop\SVRT Experiments\SVRT Experiment 3\svrt_images\generated_images\results_problem_17,C:\Users\subject\Desktop\SVRT Experiments\SVRT Experiment 3\svrt_images\generated_images\results_problem_19\sample_1_0010.png,C:\Users\subject\Desktop\SVRT Experiments\SVRT Experiment 3\svrt_images\generated_images\results_problem_14\sample_1_0009.png,C:\Users\subject\Desktop\SVRT Experiments\SVRT Experiment 3\svrt_images\generated_images\results_problem_17\sample_1_0012.png,,,,,,,,,,,,,,,,,,,,,0,2,2,2,0,25,25,25,,,,,,,,,,,,,,f,17,A,A,12,1,Correct!,1.5976514000212774,645.3874375000014,None,645.3874375000014,None,647.0039816999924,None,,,,,45,001,2023-05-12_09h12.51.494,colored_shuffled,2021.2.3,59.99548833286094,
C:\Users\subject\Desktop\SVRT Experiments\SVRT Experiment 3\svrt_images\generated_images\results_problem_17,C:\Users\subject\Desktop\SVRT Experiments\SVRT Experiment 3\svrt_images\generated_images\results_problem_19\sample_1_0010.png,C:\Users\subject\Desktop\SVRT Experiments\SVRT Experiment 3\svrt_images\generated_images\results_problem_14\sample_1_0009.png,C:\Users\subject\Desktop\SVRT Experiments\SVRT Experiment 3\svrt_images\generated_images\results_problem_17\sample_1_0007.png,,,,,,,,,,,,,,,,,,,,,0,2,2,2,0,26,26,26,,,,,,,,,,,,,,f,17,A,A,12,1,Correct!,4.539133900019806,648.253911399981,None,648.253911399981,None,652.8202855999989,None,,,,,45,001,2023-05-12_09h12.51.494,colored_shuffled,2021.2.3,59.99548833286094,
C:\Users\subject\Desktop\SVRT Experiments\SVRT Experiment 3\svrt_images\generated_images\results_problem_17,C:\Users\subject\Desktop\SVRT Experiments\SVRT Experiment 3\svrt_images\generated_images\results_problem_19\sample_1_0010.png,C:\Users\subject\Desktop\SVRT Experiments\SVRT Experiment 3\svrt_images\generated_images\results_problem_14\sample_1_0009.png,C:\Users\subject\Desktop\SVRT Experiments\SVRT Experiment 3\svrt_images\generated_images\results_problem_17\sample_0_0007.png,,,,,,,,,,,,,,,,,,,,,0,2,2,2,0,27,27,27,,,,,,,,,,,,,,f,17,A,B,12,0,Incorrect!,1.5222162999853026,654.0869048000022,None,654.0869048000022,None,655.6534323999949,None,,,,,45,001,2023-05-12_09h12.51.494,colored_shuffled,2021.2.3,59.99548833286094,
C:\Users\subject\Desktop\SVRT Experiments\SVRT Experiment 3\svrt_images\generated_images\results_problem_17,C:\Users\subject\Desktop\SVRT Experiments\SVRT Experiment 3\svrt_images\generated_images\results_problem_19\sample_1_0010.png,C:\Users\subject\Desktop\SVRT Experiments\SVRT Experiment 3\svrt_images\generated_images\results_problem_14\sample_1_0009.png,C:\Users\subject\Desktop\SVRT Experiments\SVRT Experiment 3\svrt_images\generated_images\results_problem_17\sample_1_0016.png,,,,,,,,,,,,,,,,,,,,,0,2,2,2,0,28,28,28,,,,,,,,,,,,,,f,17,A,A,12,1,Correct!,1.5682189000071958,656.9366982999782,None,656.9366982999782,None,658.5532803999959,None,,,,,45,001,2023-05-12_09h12.51.494,colored_shuffled,2021.2.3,59.99548833286094,
C:\Users\subject\Desktop\SVRT Experiments\SVRT Experiment 3\svrt_images\generated_images\results_problem_17,C:\Users\subject\Desktop\SVRT Experiments\SVRT Experiment 3\svrt_images\generated_images\results_problem_19\sample_1_0010.png,C:\Users\subject\Desktop\SVRT Experiments\SVRT Experiment 3\svrt_images\generated_images\results_problem_14\sample_1_0009.png,C:\Users\subject\Desktop\SVRT Experiments\SVRT Experiment 3\svrt_images\generated_images\results_problem_17\sample_1_0008.png,,,,,,,,,,,,,,,,,,,,,0,2,2,2,0,29,29,29,,,,,,,,,,,,,,j,17,B,A,12,0,Incorrect!,0.7972559999907389,659.8196842999896,None,659.8196842999896,None,660.6364680999832,None,,,,,45,001,2023-05-12_09h12.51.494,colored_shuffled,2021.2.3,59.99548833286094,
C:\Users\subject\Desktop\SVRT Experiments\SVRT Experiment 3\svrt_images\generated_images\results_problem_17,C:\Users\subject\Desktop\SVRT Experiments\SVRT Experiment 3\svrt_images\generated_images\results_problem_19\sample_1_0010.png,C:\Users\subject\Desktop\SVRT Experiments\SVRT Experiment 3\svrt_images\generated_images\results_problem_14\sample_1_0009.png,C:\Users\subject\Desktop\SVRT Experiments\SVRT Experiment 3\svrt_images\generated_images\results_problem_17\sample_1_0011.png,,,,,,,,,,,,,,,,,,,,,0,2,2,2,0,30,30,30,,,,,,,,,,,,,,j,17,B,A,12,0,Incorrect!,0.6000692000088748,661.9530587999907,None,661.9530587999907,None,662.6363426999887,None,,,,,45,001,2023-05-12_09h12.51.494,colored_shuffled,2021.2.3,59.99548833286094,
C:\Users\subject\Desktop\SVRT Experiments\SVRT Experiment 3\svrt_images\generated_images\results_problem_17,C:\Users\subject\Desktop\SVRT Experiments\SVRT Experiment 3\svrt_images\generated_images\results_problem_19\sample_1_0010.png,C:\Users\subject\Desktop\SVRT Experiments\SVRT Experiment 3\svrt_images\generated_images\results_problem_14\sample_1_0009.png,C:\Users\subject\Desktop\SVRT Experiments\SVRT Experiment 3\svrt_images\generated_images\results_problem_17\sample_0_0005.png,,,,,,,,,,,,,,,,,,,,,0,2,2,2,0,31,31,31,,,,,,,,,,,,,,f,17,A,B,12,0,Incorrect!,1.0801495999912731,663.9529283999873,None,663.9529283999873,None,665.1028171999787,None,,,,,45,001,2023-05-12_09h12.51.494,colored_shuffled,2021.2.3,59.99548833286094,
C:\Users\subject\Desktop\SVRT Experiments\SVRT Experiment 3\svrt_images\generated_images\results_problem_17,C:\Users\subject\Desktop\SVRT Experiments\SVRT Experiment 3\svrt_images\generated_images\results_problem_19\sample_1_0010.png,C:\Users\subject\Desktop\SVRT Experiments\SVRT Experiment 3\svrt_images\generated_images\results_problem_14\sample_1_0009.png,C:\Users\subject\Desktop\SVRT Experiments\SVRT Experiment 3\svrt_images\generated_images\results_problem_17\sample_1_0014.png,,,,,,,,,,,,,,,,,,,,,0,2,2,2,0,32,32,32,,,,,,,,,,,,,,f,17,A,A,12,1,Correct!,1.0435808000038378,666.4694463000051,None,666.4694463000051,None,667.5860361999949,None,,,,,45,001,2023-05-12_09h12.51.494,colored_shuffled,2021.2.3,59.99548833286094,
C:\Users\subject\Desktop\SVRT Experiments\SVRT Experiment 3\svrt_images\generated_images\results_problem_17,C:\Users\subject\Desktop\SVRT Experiments\SVRT Experiment 3\svrt_images\generated_images\results_problem_19\sample_1_0010.png,C:\Users\subject\Desktop\SVRT Experiments\SVRT Experiment 3\svrt_images\generated_images\results_problem_14\sample_1_0009.png,C:\Users\subject\Desktop\SVRT Experiments\SVRT Experiment 3\svrt_images\generated_images\results_problem_17\sample_1_0005.png,,,,,,,,,,,,,,,,,,,,,0,2,2,2,0,33,33,33,,,,,,,,,,,,,,f,17,A,A,12,1,Correct!,17.553087400010554,668.9359644000069,None,668.9359644000069,None,686.5348743999784,None,,,,,45,001,2023-05-12_09h12.51.494,colored_shuffled,2021.2.3,59.99548833286094,
C:\Users\subject\Desktop\SVRT Experiments\SVRT Experiment 3\svrt_images\generated_images\results_problem_17,C:\Users\subject\Desktop\SVRT Experiments\SVRT Experiment 3\svrt_images\generated_images\results_problem_19\sample_1_0010.png,C:\Users\subject\Desktop\SVRT Experiments\SVRT Experiment 3\svrt_images\generated_images\results_problem_14\sample_1_0009.png,,,,,,,,,,,,,,,,,,,,,,0,2,2,2,0,9,9,9,,,,,,,,,,,,,,,,,,,,,,,,,,,,687.5347838999878,687.5347838999878,space,1.866314400016563,45,001,2023-05-12_09h12.51.494,colored_shuffled,2021.2.3,59.99548833286094,
C:\Users\subject\Desktop\SVRT Experiments\SVRT Experiment 3\svrt_images\generated_images\results_problem_13,C:\Users\subject\Desktop\SVRT Experiments\SVRT Experiment 3\svrt_images\generated_images\results_problem_19\sample_1_0010.png,C:\Users\subject\Desktop\SVRT Experiments\SVRT Experiment 3\svrt_images\generated_images\results_problem_14\sample_1_0009.png,,C:\Users\subject\Desktop\SVRT Experiments\SVRT Experiment 3\svrt_images\generated_images\results_problem_13\sample_1_0002.png,,,,,,,,,,,,,,,,,,,,0,3,3,3,0,0,0,0,,,,,,,,,,,,,,f,13,A,A,12,1,Correct!,5.756315200007521,689.484718199994,None,689.484718199994,None,695.2676480999799,None,,,,,45,001,2023-05-12_09h12.51.494,colored_shuffled,2021.2.3,59.99548833286094,
C:\Users\subject\Desktop\SVRT Experiments\SVRT Experiment 3\svrt_images\generated_images\results_problem_13,C:\Users\subject\Desktop\SVRT Experiments\SVRT Experiment 3\svrt_images\generated_images\results_problem_19\sample_1_0010.png,C:\Users\subject\Desktop\SVRT Experiments\SVRT Experiment 3\svrt_images\generated_images\results_problem_14\sample_1_0009.png,,C:\Users\subject\Desktop\SVRT Experiments\SVRT Experiment 3\svrt_images\generated_images\results_problem_13\sample_1_0006.png,,,,,,,,,,,,,,,,,,,,0,3,3,3,0,1,1,1,,,,,,,,,,,,,,f,13,A,A,12,1,Correct!,6.508100500010187,696.3009145999968,None,696.3009145999968,None,702.8338387999975,None,,,,,45,001,2023-05-12_09h12.51.494,colored_shuffled,2021.2.3,59.99548833286094,
C:\Users\subject\Desktop\SVRT Experiments\SVRT Experiment 3\svrt_images\generated_images\results_problem_13,C:\Users\subject\Desktop\SVRT Experiments\SVRT Experiment 3\svrt_images\generated_images\results_problem_19\sample_1_0010.png,C:\Users\subject\Desktop\SVRT Experiments\SVRT Experiment 3\svrt_images\generated_images\results_problem_14\sample_1_0009.png,,C:\Users\subject\Desktop\SVRT Experiments\SVRT Experiment 3\svrt_images\generated_images\results_problem_13\sample_0_0006.png,,,,,,,,,,,,,,,,,,,,0,3,3,3,0,2,2,2,,,,,,,,,,,,,,j,13,B,B,12,1,Correct!,1.1338427000155207,703.8671223999991,None,703.8671223999991,None,705.0338788999943,None,,,,,45,001,2023-05-12_09h12.51.494,colored_shuffled,2021.2.3,59.99548833286094,
C:\Users\subject\Desktop\SVRT Experiments\SVRT Experiment 3\svrt_images\generated_images\results_problem_13,C:\Users\subject\Desktop\SVRT Experiments\SVRT Experiment 3\svrt_images\generated_images\results_problem_19\sample_1_0010.png,C:\Users\subject\Desktop\SVRT Experiments\SVRT Experiment 3\svrt_images\generated_images\results_problem_14\sample_1_0009.png,,C:\Users\subject\Desktop\SVRT Experiments\SVRT Experiment 3\svrt_images\generated_images\results_problem_13\sample_1_0014.png,,,,,,,,,,,,,,,,,,,,0,3,3,3,0,3,3,3,,,,,,,,,,,,,,j,13,B,A,12,0,Incorrect!,1.8457825999939814,706.0671603999799,None,706.0671603999799,None,707.9337516999803,None,,,,,45,001,2023-05-12_09h12.51.494,colored_shuffled,2021.2.3,59.99548833286094,
C:\Users\subject\Desktop\SVRT Experiments\SVRT Experiment 3\svrt_images\generated_images\results_problem_13,C:\Users\subject\Desktop\SVRT Experiments\SVRT Experiment 3\svrt_images\generated_images\results_problem_19\sample_1_0010.png,C:\Users\subject\Desktop\SVRT Experiments\SVRT Experiment 3\svrt_images\generated_images\results_problem_14\sample_1_0009.png,,C:\Users\subject\Desktop\SVRT Experiments\SVRT Experiment 3\svrt_images\generated_images\results_problem_13\sample_1_0013.png,,,,,,,,,,,,,,,,,,,,0,3,3,3,0,4,4,4,,,,,,,,,,,,,,j,13,B,A,12,0,Incorrect!,5.616732599999523,709.0001869999978,None,709.0001869999978,None,714.6499991999881,None,,,,,45,001,2023-05-12_09h12.51.494,colored_shuffled,2021.2.3,59.99548833286094,
C:\Users\subject\Desktop\SVRT Experiments\SVRT Experiment 3\svrt_images\generated_images\results_problem_13,C:\Users\subject\Desktop\SVRT Experiments\SVRT Experiment 3\svrt_images\generated_images\results_problem_19\sample_1_0010.png,C:\Users\subject\Desktop\SVRT Experiments\SVRT Experiment 3\svrt_images\generated_images\results_problem_14\sample_1_0009.png,,C:\Users\subject\Desktop\SVRT Experiments\SVRT Experiment 3\svrt_images\generated_images\results_problem_13\sample_0_0003.png,,,,,,,,,,,,,,,,,,,,0,3,3,3,0,5,5,5,,,,,,,,,,,,,,j,13,B,B,12,1,Correct!,1.4605237999930978,715.7164113000035,None,715.7164113000035,None,717.1995857000002,None,,,,,45,001,2023-05-12_09h12.51.494,colored_shuffled,2021.2.3,59.99548833286094,
C:\Users\subject\Desktop\SVRT Experiments\SVRT Experiment 3\svrt_images\generated_images\results_problem_13,C:\Users\subject\Desktop\SVRT Experiments\SVRT Experiment 3\svrt_images\generated_images\results_problem_19\sample_1_0010.png,C:\Users\subject\Desktop\SVRT Experiments\SVRT Experiment 3\svrt_images\generated_images\results_problem_14\sample_1_0009.png,,C:\Users\subject\Desktop\SVRT Experiments\SVRT Experiment 3\svrt_images\generated_images\results_problem_13\sample_1_0001.png,,,,,,,,,,,,,,,,,,,,0,3,3,3,0,6,6,6,,,,,,,,,,,,,,j,13,B,A,12,0,Incorrect!,0.6388828000053763,718.2661832000013,None,718.2661832000013,None,718.9328090999916,None,,,,,45,001,2023-05-12_09h12.51.494,colored_shuffled,2021.2.3,59.99548833286094,
C:\Users\subject\Desktop\SVRT Experiments\SVRT Experiment 3\svrt_images\generated_images\results_problem_13,C:\Users\subject\Desktop\SVRT Experiments\SVRT Experiment 3\svrt_images\generated_images\results_problem_19\sample_1_0010.png,C:\Users\subject\Desktop\SVRT Experiments\SVRT Experiment 3\svrt_images\generated_images\results_problem_14\sample_1_0009.png,,C:\Users\subject\Desktop\SVRT Experiments\SVRT Experiment 3\svrt_images\generated_images\results_problem_13\sample_0_0015.png,,,,,,,,,,,,,,,,,,,,0,3,3,3,0,7,7,7,,,,,,,,,,,,,,j,13,B,B,12,1,Correct!,2.344514299998991,720.0163884999929,None,720.0163884999929,None,722.3826446000021,None,,,,,45,001,2023-05-12_09h12.51.494,colored_shuffled,2021.2.3,59.99548833286094,
C:\Users\subject\Desktop\SVRT Experiments\SVRT Experiment 3\svrt_images\generated_images\results_problem_13,C:\Users\subject\Desktop\SVRT Experiments\SVRT Experiment 3\svrt_images\generated_images\results_problem_19\sample_1_0010.png,C:\Users\subject\Desktop\SVRT Experiments\SVRT Experiment 3\svrt_images\generated_images\results_problem_14\sample_1_0009.png,,C:\Users\subject\Desktop\SVRT Experiments\SVRT Experiment 3\svrt_images\generated_images\results_problem_13\sample_0_0001.png,,,,,,,,,,,,,,,,,,,,0,3,3,3,0,8,8,8,,,,,,,,,,,,,,j,13,B,B,12,1,Correct!,1.7591355000040494,723.4659105000028,None,723.4659105000028,None,725.2491462999897,None,,,,,45,001,2023-05-12_09h12.51.494,colored_shuffled,2021.2.3,59.99548833286094,
C:\Users\subject\Desktop\SVRT Experiments\SVRT Experiment 3\svrt_images\generated_images\results_problem_13,C:\Users\subject\Desktop\SVRT Experiments\SVRT Experiment 3\svrt_images\generated_images\results_problem_19\sample_1_0010.png,C:\Users\subject\Desktop\SVRT Experiments\SVRT Experiment 3\svrt_images\generated_images\results_problem_14\sample_1_0009.png,,C:\Users\subject\Desktop\SVRT Experiments\SVRT Experiment 3\svrt_images\generated_images\results_problem_13\sample_1_0000.png,,,,,,,,,,,,,,,,,,,,0,3,3,3,0,9,9,9,,,,,,,,,,,,,,f,13,A,A,12,1,Correct!,3.8525422000093386,726.3324128999957,None,726.3324128999957,None,730.2154988999828,None,,,,,45,001,2023-05-12_09h12.51.494,colored_shuffled,2021.2.3,59.99548833286094,
C:\Users\subject\Desktop\SVRT Experiments\SVRT Experiment 3\svrt_images\generated_images\results_problem_13,C:\Users\subject\Desktop\SVRT Experiments\SVRT Experiment 3\svrt_images\generated_images\results_problem_19\sample_1_0010.png,C:\Users\subject\Desktop\SVRT Experiments\SVRT Experiment 3\svrt_images\generated_images\results_problem_14\sample_1_0009.png,,C:\Users\subject\Desktop\SVRT Experiments\SVRT Experiment 3\svrt_images\generated_images\results_problem_13\sample_0_0012.png,,,,,,,,,,,,,,,,,,,,0,3,3,3,0,10,10,10,,,,,,,,,,,,,,j,13,B,B,12,1,Correct!,1.5895243000122719,731.3154161999992,None,731.3154161999992,None,732.932000300003,None,,,,,45,001,2023-05-12_09h12.51.494,colored_shuffled,2021.2.3,59.99548833286094,
C:\Users\subject\Desktop\SVRT Experiments\SVRT Experiment 3\svrt_images\generated_images\results_problem_13,C:\Users\subject\Desktop\SVRT Experiments\SVRT Experiment 3\svrt_images\generated_images\results_problem_19\sample_1_0010.png,C:\Users\subject\Desktop\SVRT Experiments\SVRT Experiment 3\svrt_images\generated_images\results_problem_14\sample_1_0009.png,,C:\Users\subject\Desktop\SVRT Experiments\SVRT Experiment 3\svrt_images\generated_images\results_problem_13\sample_1_0011.png,,,,,,,,,,,,,,,,,,,,0,3,3,3,0,11,11,11,,,,,,,,,,,,,,f,13,A,A,12,1,Correct!,0.6580150999943726,734.1349673999939,None,734.1349673999939,None,734.8152142000035,None,,,,,45,001,2023-05-12_09h12.51.494,colored_shuffled,2021.2.3,59.99548833286094,
C:\Users\subject\Desktop\SVRT Experiments\SVRT Experiment 3\svrt_images\generated_images\results_problem_13,C:\Users\subject\Desktop\SVRT Experiments\SVRT Experiment 3\svrt_images\generated_images\results_problem_19\sample_1_0010.png,C:\Users\subject\Desktop\SVRT Experiments\SVRT Experiment 3\svrt_images\generated_images\results_problem_14\sample_1_0009.png,,C:\Users\subject\Desktop\SVRT Experiments\SVRT Experiment 3\svrt_images\generated_images\results_problem_13\sample_0_0000.png,,,,,,,,,,,,,,,,,,,,0,3,3,3,0,12,12,12,,,,,,,,,,,,,,j,13,B,B,12,1,Correct!,0.7659824000147637,735.9149638999952,None,735.9149638999952,None,736.698445099988,None,,,,,45,001,2023-05-12_09h12.51.494,colored_shuffled,2021.2.3,59.99548833286094,
C:\Users\subject\Desktop\SVRT Experiments\SVRT Experiment 3\svrt_images\generated_images\results_problem_13,C:\Users\subject\Desktop\SVRT Experiments\SVRT Experiment 3\svrt_images\generated_images\results_problem_19\sample_1_0010.png,C:\Users\subject\Desktop\SVRT Experiments\SVRT Experiment 3\svrt_images\generated_images\results_problem_14\sample_1_0009.png,,C:\Users\subject\Desktop\SVRT Experiments\SVRT Experiment 3\svrt_images\generated_images\results_problem_13\sample_0_0005.png,,,,,,,,,,,,,,,,,,,,0,3,3,3,0,13,13,13,,,,,,,,,,,,,,j,13,B,B,12,1,Correct!,0.9139659999927972,737.8148525999859,None,737.8148525999859,None,738.748300599982,None,,,,,45,001,2023-05-12_09h12.51.494,colored_shuffled,2021.2.3,59.99548833286094,
C:\Users\subject\Desktop\SVRT Experiments\SVRT Experiment 3\svrt_images\generated_images\results_problem_13,C:\Users\subject\Desktop\SVRT Experiments\SVRT Experiment 3\svrt_images\generated_images\results_problem_19\sample_1_0010.png,C:\Users\subject\Desktop\SVRT Experiments\SVRT Experiment 3\svrt_images\generated_images\results_problem_14\sample_1_0009.png,,C:\Users\subject\Desktop\SVRT Experiments\SVRT Experiment 3\svrt_images\generated_images\results_problem_13\sample_0_0004.png,,,,,,,,,,,,,,,,,,,,0,3,3,3,0,14,14,14,,,,,,,,,,,,,,,,,,,,,,,,,,,,739.7482353999803,739.7482353999803,space,1.236711200006539,45,001,2023-05-12_09h12.51.494,colored_shuffled,2021.2.3,59.99548833286094,
C:\Users\subject\Desktop\SVRT Experiments\SVRT Experiment 3\svrt_images\generated_images\results_problem_12,C:\Users\subject\Desktop\SVRT Experiments\SVRT Experiment 3\svrt_images\generated_images\results_problem_19\sample_1_0010.png,C:\Users\subject\Desktop\SVRT Experiments\SVRT Experiment 3\svrt_images\generated_images\results_problem_14\sample_1_0009.png,,C:\Users\subject\Desktop\SVRT Experiments\SVRT Experiment 3\svrt_images\generated_images\results_problem_13\sample_0_0004.png,C:\Users\subject\Desktop\SVRT Experiments\SVRT Experiment 3\svrt_images\generated_images\results_problem_12\sample_0_0002.png,,,,,,,,,,,,,,,,,,,0,4,4,4,0,0,0,0,,,,,,,,,,,,,,f,12,A,B,12,0,Incorrect!,8.023575800005347,741.2653599999903,None,741.2653599999903,None,749.314838899998,None,,,,,45,001,2023-05-12_09h12.51.494,colored_shuffled,2021.2.3,59.99548833286094,
C:\Users\subject\Desktop\SVRT Experiments\SVRT Experiment 3\svrt_images\generated_images\results_problem_12,C:\Users\subject\Desktop\SVRT Experiments\SVRT Experiment 3\svrt_images\generated_images\results_problem_19\sample_1_0010.png,C:\Users\subject\Desktop\SVRT Experiments\SVRT Experiment 3\svrt_images\generated_images\results_problem_14\sample_1_0009.png,,C:\Users\subject\Desktop\SVRT Experiments\SVRT Experiment 3\svrt_images\generated_images\results_problem_13\sample_0_0004.png,C:\Users\subject\Desktop\SVRT Experiments\SVRT Experiment 3\svrt_images\generated_images\results_problem_12\sample_0_0006.png,,,,,,,,,,,,,,,,,,,0,4,4,4,0,1,1,1,,,,,,,,,,,,,,j,12,B,B,12,1,Correct!,12.78091930001392,750.3481146999984,None,750.3481146999984,None,763.1473084999889,None,,,,,45,001,2023-05-12_09h12.51.494,colored_shuffled,2021.2.3,59.99548833286094,
C:\Users\subject\Desktop\SVRT Experiments\SVRT Experiment 3\svrt_images\generated_images\results_problem_12,C:\Users\subject\Desktop\SVRT Experiments\SVRT Experiment 3\svrt_images\generated_images\results_problem_19\sample_1_0010.png,C:\Users\subject\Desktop\SVRT Experiments\SVRT Experiment 3\svrt_images\generated_images\results_problem_14\sample_1_0009.png,,C:\Users\subject\Desktop\SVRT Experiments\SVRT Experiment 3\svrt_images\generated_images\results_problem_13\sample_0_0004.png,C:\Users\subject\Desktop\SVRT Experiments\SVRT Experiment 3\svrt_images\generated_images\results_problem_12\sample_1_0014.png,,,,,,,,,,,,,,,,,,,0,4,4,4,0,2,2,2,,,,,,,,,,,,,,f,12,A,A,12,1,Correct!,4.355682699999306,764.197250199999,None,764.197250199999,None,768.5802732000011,None,,,,,45,001,2023-05-12_09h12.51.494,colored_shuffled,2021.2.3,59.99548833286094,
C:\Users\subject\Desktop\SVRT Experiments\SVRT Experiment 3\svrt_images\generated_images\results_problem_12,C:\Users\subject\Desktop\SVRT Experiments\SVRT Experiment 3\svrt_images\generated_images\results_problem_19\sample_1_0010.png,C:\Users\subject\Desktop\SVRT Experiments\SVRT Experiment 3\svrt_images\generated_images\results_problem_14\sample_1_0009.png,,C:\Users\subject\Desktop\SVRT Experiments\SVRT Experiment 3\svrt_images\generated_images\results_problem_13\sample_0_0004.png,C:\Users\subject\Desktop\SVRT Experiments\SVRT Experiment 3\svrt_images\generated_images\results_problem_12\sample_1_0015.png,,,,,,,,,,,,,,,,,,,0,4,4,4,0,3,3,3,,,,,,,,,,,,,,f,12,A,A,12,1,Correct!,1.1947126000013668,769.6301978999982,None,769.6301978999982,None,770.8467397000059,None,,,,,45,001,2023-05-12_09h12.51.494,colored_shuffled,2021.2.3,59.99548833286094,
C:\Users\subject\Desktop\SVRT Experiments\SVRT Experiment 3\svrt_images\generated_images\results_problem_12,C:\Users\subject\Desktop\SVRT Experiments\SVRT Experiment 3\svrt_images\generated_images\results_problem_19\sample_1_0010.png,C:\Users\subject\Desktop\SVRT Experiments\SVRT Experiment 3\svrt_images\generated_images\results_problem_14\sample_1_0009.png,,C:\Users\subject\Desktop\SVRT Experiments\SVRT Experiment 3\svrt_images\generated_images\results_problem_13\sample_0_0004.png,C:\Users\subject\Desktop\SVRT Experiments\SVRT Experiment 3\svrt_images\generated_images\results_problem_12\sample_1_0003.png,,,,,,,,,,,,,,,,,,,0,4,4,4,0,4,4,4,,,,,,,,,,,,,,f,12,A,A,12,1,Correct!,0.9760158999997657,771.9129530999926,None,771.9129530999926,None,772.9132707999961,None,,,,,45,001,2023-05-12_09h12.51.494,colored_shuffled,2021.2.3,59.99548833286094,
C:\Users\subject\Desktop\SVRT Experiments\SVRT Experiment 3\svrt_images\generated_images\results_problem_12,C:\Users\subject\Desktop\SVRT Experiments\SVRT Experiment 3\svrt_images\generated_images\results_problem_19\sample_1_0010.png,C:\Users\subject\Desktop\SVRT Experiments\SVRT Experiment 3\svrt_images\generated_images\results_problem_14\sample_1_0009.png,,C:\Users\subject\Desktop\SVRT Experiments\SVRT Experiment 3\svrt_images\generated_images\results_problem_13\sample_0_0004.png,C:\Users\subject\Desktop\SVRT Experiments\SVRT Experiment 3\svrt_images\generated_images\results_problem_12\sample_1_0010.png,,,,,,,,,,,,,,,,,,,0,4,4,4,0,5,5,5,,,,,,,,,,,,,,f,12,A,A,12,1,Correct!,1.4700758999970276,773.9628058999951,None,773.9628058999951,None,775.4626726999995,None,,,,,45,001,2023-05-12_09h12.51.494,colored_shuffled,2021.2.3,59.99548833286094,
C:\Users\subject\Desktop\SVRT Experiments\SVRT Experiment 3\svrt_images\generated_images\results_problem_12,C:\Users\subject\Desktop\SVRT Experiments\SVRT Experiment 3\svrt_images\generated_images\results_problem_19\sample_1_0010.png,C:\Users\subject\Desktop\SVRT Experiments\SVRT Experiment 3\svrt_images\generated_images\results_problem_14\sample_1_0009.png,,C:\Users\subject\Desktop\SVRT Experiments\SVRT Experiment 3\svrt_images\generated_images\results_problem_13\sample_0_0004.png,C:\Users\subject\Desktop\SVRT Experiments\SVRT Experiment 3\svrt_images\generated_images\results_problem_12\sample_1_0001.png,,,,,,,,,,,,,,,,,,,0,4,4,4,0,6,6,6,,,,,,,,,,,,,,f,12,A,A,12,1,Correct!,3.70287599999574,776.5459534999973,None,776.5459534999973,None,780.2789979999943,None,,,,,45,001,2023-05-12_09h12.51.494,colored_shuffled,2021.2.3,59.99548833286094,
C:\Users\subject\Desktop\SVRT Experiments\SVRT Experiment 3\svrt_images\generated_images\results_problem_12,C:\Users\subject\Desktop\SVRT Experiments\SVRT Experiment 3\svrt_images\generated_images\results_problem_19\sample_1_0010.png,C:\Users\subject\Desktop\SVRT Experiments\SVRT Experiment 3\svrt_images\generated_images\results_problem_14\sample_1_0009.png,,C:\Users\subject\Desktop\SVRT Experiments\SVRT Experiment 3\svrt_images\generated_images\results_problem_13\sample_0_0004.png,C:\Users\subject\Desktop\SVRT Experiments\SVRT Experiment 3\svrt_images\generated_images\results_problem_12\sample_0_0011.png,,,,,,,,,,,,,,,,,,,0,4,4,4,0,7,7,7,,,,,,,,,,,,,,j,12,B,B,12,1,Correct!,1.0786215999978594,781.3622612000036,None,781.3622612000036,None,782.4620732000039,None,,,,,45,001,2023-05-12_09h12.51.494,colored_shuffled,2021.2.3,59.99548833286094,
C:\Users\subject\Desktop\SVRT Experiments\SVRT Experiment 3\svrt_images\generated_images\results_problem_12,C:\Users\subject\Desktop\SVRT Experiments\SVRT Experiment 3\svrt_images\generated_images\results_problem_19\sample_1_0010.png,C:\Users\subject\Desktop\SVRT Experiments\SVRT Experiment 3\svrt_images\generated_images\results_problem_14\sample_1_0009.png,,C:\Users\subject\Desktop\SVRT Experiments\SVRT Experiment 3\svrt_images\generated_images\results_problem_13\sample_0_0004.png,C:\Users\subject\Desktop\SVRT Experiments\SVRT Experiment 3\svrt_images\generated_images\results_problem_12\sample_0_0000.png,,,,,,,,,,,,,,,,,,,0,4,4,4,0,8,8,8,,,,,,,,,,,,,,,,,,,,,,,,,,,,783.4620361999841,783.4620361999841,space,1.2028088000079151,45,001,2023-05-12_09h12.51.494,colored_shuffled,2021.2.3,59.99548833286094,
C:\Users\subject\Desktop\SVRT Experiments\SVRT Experiment 3\svrt_images\generated_images\results_problem_23,C:\Users\subject\Desktop\SVRT Experiments\SVRT Experiment 3\svrt_images\generated_images\results_problem_19\sample_1_0010.png,C:\Users\subject\Desktop\SVRT Experiments\SVRT Experiment 3\svrt_images\generated_images\results_problem_14\sample_1_0009.png,,C:\Users\subject\Desktop\SVRT Experiments\SVRT Experiment 3\svrt_images\generated_images\results_problem_13\sample_0_0004.png,C:\Users\subject\Desktop\SVRT Experiments\SVRT Experiment 3\svrt_images\generated_images\results_problem_12\sample_0_0000.png,C:\Users\subject\Desktop\SVRT Experiments\SVRT Experiment 3\svrt_images\generated_images\results_problem_23\sample_0_0013.png,,,,,,,,,,,,,,,,,,0,5,5,5,0,0,0,0,,,,,,,,,,,,,,j,23,B,B,12,1,Correct!,1.9160791999893263,784.8288472999993,None,784.8288472999993,None,786.7619884999876,None,,,,,45,001,2023-05-12_09h12.51.494,colored_shuffled,2021.2.3,59.99548833286094,
C:\Users\subject\Desktop\SVRT Experiments\SVRT Experiment 3\svrt_images\generated_images\results_problem_23,C:\Users\subject\Desktop\SVRT Experiments\SVRT Experiment 3\svrt_images\generated_images\results_problem_19\sample_1_0010.png,C:\Users\subject\Desktop\SVRT Experiments\SVRT Experiment 3\svrt_images\generated_images\results_problem_14\sample_1_0009.png,,C:\Users\subject\Desktop\SVRT Experiments\SVRT Experiment 3\svrt_images\generated_images\results_problem_13\sample_0_0004.png,C:\Users\subject\Desktop\SVRT Experiments\SVRT Experiment 3\svrt_images\generated_images\results_problem_12\sample_0_0000.png,C:\Users\subject\Desktop\SVRT Experiments\SVRT Experiment 3\svrt_images\generated_images\results_problem_23\sample_1_0011.png,,,,,,,,,,,,,,,,,,0,5,5,5,0,1,1,1,,,,,,,,,,,,,,f,23,A,A,12,1,Correct!,4.500924499996472,787.812128199992,None,787.812128199992,None,792.3452624999918,None,,,,,45,001,2023-05-12_09h12.51.494,colored_shuffled,2021.2.3,59.99548833286094,
C:\Users\subject\Desktop\SVRT Experiments\SVRT Experiment 3\svrt_images\generated_images\results_problem_23,C:\Users\subject\Desktop\SVRT Experiments\SVRT Experiment 3\svrt_images\generated_images\results_problem_19\sample_1_0010.png,C:\Users\subject\Desktop\SVRT Experiments\SVRT Experiment 3\svrt_images\generated_images\results_problem_14\sample_1_0009.png,,C:\Users\subject\Desktop\SVRT Experiments\SVRT Experiment 3\svrt_images\generated_images\results_problem_13\sample_0_0004.png,C:\Users\subject\Desktop\SVRT Experiments\SVRT Experiment 3\svrt_images\generated_images\results_problem_12\sample_0_0000.png,C:\Users\subject\Desktop\SVRT Experiments\SVRT Experiment 3\svrt_images\generated_images\results_problem_23\sample_0_0016.png,,,,,,,,,,,,,,,,,,0,5,5,5,0,2,2,2,,,,,,,,,,,,,,j,23,B,B,12,1,Correct!,3.557685300009325,793.3952419999987,None,793.3952419999987,None,796.9784034999902,None,,,,,45,001,2023-05-12_09h12.51.494,colored_shuffled,2021.2.3,59.99548833286094,
C:\Users\subject\Desktop\SVRT Experiments\SVRT Experiment 3\svrt_images\generated_images\results_problem_23,C:\Users\subject\Desktop\SVRT Experiments\SVRT Experiment 3\svrt_images\generated_images\results_problem_19\sample_1_0010.png,C:\Users\subject\Desktop\SVRT Experiments\SVRT Experiment 3\svrt_images\generated_images\results_problem_14\sample_1_0009.png,,C:\Users\subject\Desktop\SVRT Experiments\SVRT Experiment 3\svrt_images\generated_images\results_problem_13\sample_0_0004.png,C:\Users\subject\Desktop\SVRT Experiments\SVRT Experiment 3\svrt_images\generated_images\results_problem_12\sample_0_0000.png,C:\Users\subject\Desktop\SVRT Experiments\SVRT Experiment 3\svrt_images\generated_images\results_problem_23\sample_0_0003.png,,,,,,,,,,,,,,,,,,0,5,5,5,0,3,3,3,,,,,,,,,,,,,,j,23,B,B,12,1,Correct!,1.3564705999742728,798.0283600999974,None,798.0283600999974,None,799.4112231000036,None,,,,,45,001,2023-05-12_09h12.51.494,colored_shuffled,2021.2.3,59.99548833286094,
C:\Users\subject\Desktop\SVRT Experiments\SVRT Experiment 3\svrt_images\generated_images\results_problem_23,C:\Users\subject\Desktop\SVRT Experiments\SVRT Experiment 3\svrt_images\generated_images\results_problem_19\sample_1_0010.png,C:\Users\subject\Desktop\SVRT Experiments\SVRT Experiment 3\svrt_images\generated_images\results_problem_14\sample_1_0009.png,,C:\Users\subject\Desktop\SVRT Experiments\SVRT Experiment 3\svrt_images\generated_images\results_problem_13\sample_0_0004.png,C:\Users\subject\Desktop\SVRT Experiments\SVRT Experiment 3\svrt_images\generated_images\results_problem_12\sample_0_0000.png,C:\Users\subject\Desktop\SVRT Experiments\SVRT Experiment 3\svrt_images\generated_images\results_problem_23\sample_0_0008.png,,,,,,,,,,,,,,,,,,0,5,5,5,0,4,4,4,,,,,,,,,,,,,,j,23,B,B,12,1,Correct!,3.387018600013107,800.4778255999845,None,800.4778255999845,None,803.8942774999887,None,,,,,45,001,2023-05-12_09h12.51.494,colored_shuffled,2021.2.3,59.99548833286094,
C:\Users\subject\Desktop\SVRT Experiments\SVRT Experiment 3\svrt_images\generated_images\results_problem_23,C:\Users\subject\Desktop\SVRT Experiments\SVRT Experiment 3\svrt_images\generated_images\results_problem_19\sample_1_0010.png,C:\Users\subject\Desktop\SVRT Experiments\SVRT Experiment 3\svrt_images\generated_images\results_problem_14\sample_1_0009.png,,C:\Users\subject\Desktop\SVRT Experiments\SVRT Experiment 3\svrt_images\generated_images\results_problem_13\sample_0_0004.png,C:\Users\subject\Desktop\SVRT Experiments\SVRT Experiment 3\svrt_images\generated_images\results_problem_12\sample_0_0000.png,C:\Users\subject\Desktop\SVRT Experiments\SVRT Experiment 3\svrt_images\generated_images\results_problem_23\sample_1_0004.png,,,,,,,,,,,,,,,,,,0,5,5,5,0,5,5,5,,,,,,,,,,,,,,f,23,A,A,12,1,Correct!,1.272025099984603,804.9608739999821,None,804.9608739999821,None,806.2607693999889,None,,,,,45,001,2023-05-12_09h12.51.494,colored_shuffled,2021.2.3,59.99548833286094,
C:\Users\subject\Desktop\SVRT Experiments\SVRT Experiment 3\svrt_images\generated_images\results_problem_23,C:\Users\subject\Desktop\SVRT Experiments\SVRT Experiment 3\svrt_images\generated_images\results_problem_19\sample_1_0010.png,C:\Users\subject\Desktop\SVRT Experiments\SVRT Experiment 3\svrt_images\generated_images\results_problem_14\sample_1_0009.png,,C:\Users\subject\Desktop\SVRT Experiments\SVRT Experiment 3\svrt_images\generated_images\results_problem_13\sample_0_0004.png,C:\Users\subject\Desktop\SVRT Experiments\SVRT Experiment 3\svrt_images\generated_images\results_problem_12\sample_0_0000.png,C:\Users\subject\Desktop\SVRT Experiments\SVRT Experiment 3\svrt_images\generated_images\results_problem_23\sample_1_0002.png,,,,,,,,,,,,,,,,,,0,5,5,5,0,6,6,6,,,,,,,,,,,,,,f,23,A,A,12,1,Correct!,0.8407575000019278,807.3280892999901,None,807.3280892999901,None,808.1939343999838,None,,,,,45,001,2023-05-12_09h12.51.494,colored_shuffled,2021.2.3,59.99548833286094,
C:\Users\subject\Desktop\SVRT Experiments\SVRT Experiment 3\svrt_images\generated_images\results_problem_23,C:\Users\subject\Desktop\SVRT Experiments\SVRT Experiment 3\svrt_images\generated_images\results_problem_19\sample_1_0010.png,C:\Users\subject\Desktop\SVRT Experiments\SVRT Experiment 3\svrt_images\generated_images\results_problem_14\sample_1_0009.png,,C:\Users\subject\Desktop\SVRT Experiments\SVRT Experiment 3\svrt_images\generated_images\results_problem_13\sample_0_0004.png,C:\Users\subject\Desktop\SVRT Experiments\SVRT Experiment 3\svrt_images\generated_images\results_problem_12\sample_0_0000.png,C:\Users\subject\Desktop\SVRT Experiments\SVRT Experiment 3\svrt_images\generated_images\results_problem_23\sample_1_0003.png,,,,,,,,,,,,,,,,,,0,5,5,5,0,7,7,7,,,,,,,,,,,,,,,,,,,,,,,,,,,,809.1938734999858,809.1938734999858,space,1.5030035999952815,45,001,2023-05-12_09h12.51.494,colored_shuffled,2021.2.3,59.99548833286094,
C:\Users\subject\Desktop\SVRT Experiments\SVRT Experiment 3\svrt_images\generated_images\results_problem_3,C:\Users\subject\Desktop\SVRT Experiments\SVRT Experiment 3\svrt_images\generated_images\results_problem_19\sample_1_0010.png,C:\Users\subject\Desktop\SVRT Experiments\SVRT Experiment 3\svrt_images\generated_images\results_problem_14\sample_1_0009.png,,C:\Users\subject\Desktop\SVRT Experiments\SVRT Experiment 3\svrt_images\generated_images\results_problem_13\sample_0_0004.png,C:\Users\subject\Desktop\SVRT Experiments\SVRT Experiment 3\svrt_images\generated_images\results_problem_12\sample_0_0000.png,C:\Users\subject\Desktop\SVRT Experiments\SVRT Experiment 3\svrt_images\generated_images\results_problem_23\sample_1_0003.png,C:\Users\subject\Desktop\SVRT Experiments\SVRT Experiment 3\svrt_images\generated_images\results_problem_3\sample_1_0014.png,,,,,,,,,,,,,,,,,0,6,6,6,0,0,0,0,,,,,,,,,,,,,,f,3,A,A,12,1,Correct!,4.829346499987878,810.8275517000002,None,810.8275517000002,None,815.6770988999924,None,,,,,45,001,2023-05-12_09h12.51.494,colored_shuffled,2021.2.3,59.99548833286094,
C:\Users\subject\Desktop\SVRT Experiments\SVRT Experiment 3\svrt_images\generated_images\results_problem_3,C:\Users\subject\Desktop\SVRT Experiments\SVRT Experiment 3\svrt_images\generated_images\results_problem_19\sample_1_0010.png,C:\Users\subject\Desktop\SVRT Experiments\SVRT Experiment 3\svrt_images\generated_images\results_problem_14\sample_1_0009.png,,C:\Users\subject\Desktop\SVRT Experiments\SVRT Experiment 3\svrt_images\generated_images\results_problem_13\sample_0_0004.png,C:\Users\subject\Desktop\SVRT Experiments\SVRT Experiment 3\svrt_images\generated_images\results_problem_12\sample_0_0000.png,C:\Users\subject\Desktop\SVRT Experiments\SVRT Experiment 3\svrt_images\generated_images\results_problem_23\sample_1_0003.png,C:\Users\subject\Desktop\SVRT Experiments\SVRT Experiment 3\svrt_images\generated_images\results_problem_3\sample_1_0008.png,,,,,,,,,,,,,,,,,0,6,6,6,0,1,1,1,,,,,,,,,,,,,,f,3,A,A,12,1,Correct!,3.986365500022657,816.7103728999791,None,816.7103728999791,None,820.7267911999952,None,,,,,45,001,2023-05-12_09h12.51.494,colored_shuffled,2021.2.3,59.99548833286094,
C:\Users\subject\Desktop\SVRT Experiments\SVRT Experiment 3\svrt_images\generated_images\results_problem_3,C:\Users\subject\Desktop\SVRT Experiments\SVRT Experiment 3\svrt_images\generated_images\results_problem_19\sample_1_0010.png,C:\Users\subject\Desktop\SVRT Experiments\SVRT Experiment 3\svrt_images\generated_images\results_problem_14\sample_1_0009.png,,C:\Users\subject\Desktop\SVRT Experiments\SVRT Experiment 3\svrt_images\generated_images\results_problem_13\sample_0_0004.png,C:\Users\subject\Desktop\SVRT Experiments\SVRT Experiment 3\svrt_images\generated_images\results_problem_12\sample_0_0000.png,C:\Users\subject\Desktop\SVRT Experiments\SVRT Experiment 3\svrt_images\generated_images\results_problem_23\sample_1_0003.png,C:\Users\subject\Desktop\SVRT Experiments\SVRT Experiment 3\svrt_images\generated_images\results_problem_3\sample_0_0008.png,,,,,,,,,,,,,,,,,0,6,6,6,0,2,2,2,,,,,,,,,,,,,,j,3,B,B,12,1,Correct!,1.0007706999895163,821.760065599985,None,821.760065599985,None,822.7933245000022,None,,,,,45,001,2023-05-12_09h12.51.494,colored_shuffled,2021.2.3,59.99548833286094,
C:\Users\subject\Desktop\SVRT Experiments\SVRT Experiment 3\svrt_images\generated_images\results_problem_3,C:\Users\subject\Desktop\SVRT Experiments\SVRT Experiment 3\svrt_images\generated_images\results_problem_19\sample_1_0010.png,C:\Users\subject\Desktop\SVRT Experiments\SVRT Experiment 3\svrt_images\generated_images\results_problem_14\sample_1_0009.png,,C:\Users\subject\Desktop\SVRT Experiments\SVRT Experiment 3\svrt_images\generated_images\results_problem_13\sample_0_0004.png,C:\Users\subject\Desktop\SVRT Experiments\SVRT Experiment 3\svrt_images\generated_images\results_problem_12\sample_0_0000.png,C:\Users\subject\Desktop\SVRT Experiments\SVRT Experiment 3\svrt_images\generated_images\results_problem_23\sample_1_0003.png,C:\Users\subject\Desktop\SVRT Experiments\SVRT Experiment 3\svrt_images\generated_images\results_problem_3\sample_1_0002.png,,,,,,,,,,,,,,,,,0,6,6,6,0,3,3,3,,,,,,,,,,,,,,f,3,A,A,12,1,Correct!,1.446143299981486,823.826602199988,None,823.826602199988,None,825.2931694999861,None,,,,,45,001,2023-05-12_09h12.51.494,colored_shuffled,2021.2.3,59.99548833286094,
C:\Users\subject\Desktop\SVRT Experiments\SVRT Experiment 3\svrt_images\generated_images\results_problem_3,C:\Users\subject\Desktop\SVRT Experiments\SVRT Experiment 3\svrt_images\generated_images\results_problem_19\sample_1_0010.png,C:\Users\subject\Desktop\SVRT Experiments\SVRT Experiment 3\svrt_images\generated_images\results_problem_14\sample_1_0009.png,,C:\Users\subject\Desktop\SVRT Experiments\SVRT Experiment 3\svrt_images\generated_images\results_problem_13\sample_0_0004.png,C:\Users\subject\Desktop\SVRT Experiments\SVRT Experiment 3\svrt_images\generated_images\results_problem_12\sample_0_0000.png,C:\Users\subject\Desktop\SVRT Experiments\SVRT Experiment 3\svrt_images\generated_images\results_problem_23\sample_1_0003.png,C:\Users\subject\Desktop\SVRT Experiments\SVRT Experiment 3\svrt_images\generated_images\results_problem_3\sample_0_0013.png,,,,,,,,,,,,,,,,,0,6,6,6,0,4,4,4,,,,,,,,,,,,,,j,3,B,B,12,1,Correct!,1.0420345999882556,826.3428070999798,None,826.3428070999798,None,827.4097109999857,None,,,,,45,001,2023-05-12_09h12.51.494,colored_shuffled,2021.2.3,59.99548833286094,
C:\Users\subject\Desktop\SVRT Experiments\SVRT Experiment 3\svrt_images\generated_images\results_problem_3,C:\Users\subject\Desktop\SVRT Experiments\SVRT Experiment 3\svrt_images\generated_images\results_problem_19\sample_1_0010.png,C:\Users\subject\Desktop\SVRT Experiments\SVRT Experiment 3\svrt_images\generated_images\results_problem_14\sample_1_0009.png,,C:\Users\subject\Desktop\SVRT Experiments\SVRT Experiment 3\svrt_images\generated_images\results_problem_13\sample_0_0004.png,C:\Users\subject\Desktop\SVRT Experiments\SVRT Experiment 3\svrt_images\generated_images\results_problem_12\sample_0_0000.png,C:\Users\subject\Desktop\SVRT Experiments\SVRT Experiment 3\svrt_images\generated_images\results_problem_23\sample_1_0003.png,C:\Users\subject\Desktop\SVRT Experiments\SVRT Experiment 3\svrt_images\generated_images\results_problem_3\sample_0_0011.png,,,,,,,,,,,,,,,,,0,6,6,6,0,5,5,5,,,,,,,,,,,,,,j,3,B,B,12,1,Correct!,0.956473600002937,828.4763004999841,None,828.4763004999841,None,829.4595789999876,None,,,,,45,001,2023-05-12_09h12.51.494,colored_shuffled,2021.2.3,59.99548833286094,
C:\Users\subject\Desktop\SVRT Experiments\SVRT Experiment 3\svrt_images\generated_images\results_problem_3,C:\Users\subject\Desktop\SVRT Experiments\SVRT Experiment 3\svrt_images\generated_images\results_problem_19\sample_1_0010.png,C:\Users\subject\Desktop\SVRT Experiments\SVRT Experiment 3\svrt_images\generated_images\results_problem_14\sample_1_0009.png,,C:\Users\subject\Desktop\SVRT Experiments\SVRT Experiment 3\svrt_images\generated_images\results_problem_13\sample_0_0004.png,C:\Users\subject\Desktop\SVRT Experiments\SVRT Experiment 3\svrt_images\generated_images\results_problem_12\sample_0_0000.png,C:\Users\subject\Desktop\SVRT Experiments\SVRT Experiment 3\svrt_images\generated_images\results_problem_23\sample_1_0003.png,C:\Users\subject\Desktop\SVRT Experiments\SVRT Experiment 3\svrt_images\generated_images\results_problem_3\sample_0_0004.png,,,,,,,,,,,,,,,,,0,6,6,6,0,6,6,6,,,,,,,,,,,,,,j,3,B,B,12,1,Correct!,1.770006700011436,830.5428454999928,None,830.5428454999928,None,832.3423772999959,None,,,,,45,001,2023-05-12_09h12.51.494,colored_shuffled,2021.2.3,59.99548833286094,
C:\Users\subject\Desktop\SVRT Experiments\SVRT Experiment 3\svrt_images\generated_images\results_problem_3,C:\Users\subject\Desktop\SVRT Experiments\SVRT Experiment 3\svrt_images\generated_images\results_problem_19\sample_1_0010.png,C:\Users\subject\Desktop\SVRT Experiments\SVRT Experiment 3\svrt_images\generated_images\results_problem_14\sample_1_0009.png,,C:\Users\subject\Desktop\SVRT Experiments\SVRT Experiment 3\svrt_images\generated_images\results_problem_13\sample_0_0004.png,C:\Users\subject\Desktop\SVRT Experiments\SVRT Experiment 3\svrt_images\generated_images\results_problem_12\sample_0_0000.png,C:\Users\subject\Desktop\SVRT Experiments\SVRT Experiment 3\svrt_images\generated_images\results_problem_23\sample_1_0003.png,C:\Users\subject\Desktop\SVRT Experiments\SVRT Experiment 3\svrt_images\generated_images\results_problem_3\sample_0_0006.png,,,,,,,,,,,,,,,,,0,6,6,6,0,7,7,7,,,,,,,,,,,,,,,,,,,,,,,,,,,,833.3423119999934,833.3423119999934,space,1.2585421999974642,45,001,2023-05-12_09h12.51.494,colored_shuffled,2021.2.3,59.99548833286094,
C:\Users\subject\Desktop\SVRT Experiments\SVRT Experiment 3\svrt_images\generated_images\results_problem_2,C:\Users\subject\Desktop\SVRT Experiments\SVRT Experiment 3\svrt_images\generated_images\results_problem_19\sample_1_0010.png,C:\Users\subject\Desktop\SVRT Experiments\SVRT Experiment 3\svrt_images\generated_images\results_problem_14\sample_1_0009.png,,C:\Users\subject\Desktop\SVRT Experiments\SVRT Experiment 3\svrt_images\generated_images\results_problem_13\sample_0_0004.png,C:\Users\subject\Desktop\SVRT Experiments\SVRT Experiment 3\svrt_images\generated_images\results_problem_12\sample_0_0000.png,C:\Users\subject\Desktop\SVRT Experiments\SVRT Experiment 3\svrt_images\generated_images\results_problem_23\sample_1_0003.png,C:\Users\subject\Desktop\SVRT Experiments\SVRT Experiment 3\svrt_images\generated_images\results_problem_3\sample_0_0006.png,C:\Users\subject\Desktop\SVRT Experiments\SVRT Experiment 3\svrt_images\generated_images\results_problem_2\sample_0_0005.png,,,,,,,,,,,,,,,,0,7,7,7,0,0,0,0,,,,,,,,,,,,,,j,2,B,B,12,1,Correct!,8.018116199993528,834.7426595999859,None,834.7426595999859,None,842.7920621999947,None,,,,,45,001,2023-05-12_09h12.51.494,colored_shuffled,2021.2.3,59.99548833286094,
C:\Users\subject\Desktop\SVRT Experiments\SVRT Experiment 3\svrt_images\generated_images\results_problem_2,C:\Users\subject\Desktop\SVRT Experiments\SVRT Experiment 3\svrt_images\generated_images\results_problem_19\sample_1_0010.png,C:\Users\subject\Desktop\SVRT Experiments\SVRT Experiment 3\svrt_images\generated_images\results_problem_14\sample_1_0009.png,,C:\Users\subject\Desktop\SVRT Experiments\SVRT Experiment 3\svrt_images\generated_images\results_problem_13\sample_0_0004.png,C:\Users\subject\Desktop\SVRT Experiments\SVRT Experiment 3\svrt_images\generated_images\results_problem_12\sample_0_0000.png,C:\Users\subject\Desktop\SVRT Experiments\SVRT Experiment 3\svrt_images\generated_images\results_problem_23\sample_1_0003.png,C:\Users\subject\Desktop\SVRT Experiments\SVRT Experiment 3\svrt_images\generated_images\results_problem_3\sample_0_0006.png,C:\Users\subject\Desktop\SVRT Experiments\SVRT Experiment 3\svrt_images\generated_images\results_problem_2\sample_0_0000.png,,,,,,,,,,,,,,,,0,7,7,7,0,1,1,1,,,,,,,,,,,,,,j,2,B,B,12,1,Correct!,1.7500352000060957,843.8587715000031,None,843.8587715000031,None,845.6420301999897,None,,,,,45,001,2023-05-12_09h12.51.494,colored_shuffled,2021.2.3,59.99548833286094,
C:\Users\subject\Desktop\SVRT Experiments\SVRT Experiment 3\svrt_images\generated_images\results_problem_2,C:\Users\subject\Desktop\SVRT Experiments\SVRT Experiment 3\svrt_images\generated_images\results_problem_19\sample_1_0010.png,C:\Users\subject\Desktop\SVRT Experiments\SVRT Experiment 3\svrt_images\generated_images\results_problem_14\sample_1_0009.png,,C:\Users\subject\Desktop\SVRT Experiments\SVRT Experiment 3\svrt_images\generated_images\results_problem_13\sample_0_0004.png,C:\Users\subject\Desktop\SVRT Experiments\SVRT Experiment 3\svrt_images\generated_images\results_problem_12\sample_0_0000.png,C:\Users\subject\Desktop\SVRT Experiments\SVRT Experiment 3\svrt_images\generated_images\results_problem_23\sample_1_0003.png,C:\Users\subject\Desktop\SVRT Experiments\SVRT Experiment 3\svrt_images\generated_images\results_problem_3\sample_0_0006.png,C:\Users\subject\Desktop\SVRT Experiments\SVRT Experiment 3\svrt_images\generated_images\results_problem_2\sample_0_0014.png,,,,,,,,,,,,,,,,0,7,7,7,0,2,2,2,,,,,,,,,,,,,,j,2,B,B,12,1,Correct!,0.9494787000003271,846.6753387000063,None,846.6753387000063,None,847.6419042999914,None,,,,,45,001,2023-05-12_09h12.51.494,colored_shuffled,2021.2.3,59.99548833286094,
C:\Users\subject\Desktop\SVRT Experiments\SVRT Experiment 3\svrt_images\generated_images\results_problem_2,C:\Users\subject\Desktop\SVRT Experiments\SVRT Experiment 3\svrt_images\generated_images\results_problem_19\sample_1_0010.png,C:\Users\subject\Desktop\SVRT Experiments\SVRT Experiment 3\svrt_images\generated_images\results_problem_14\sample_1_0009.png,,C:\Users\subject\Desktop\SVRT Experiments\SVRT Experiment 3\svrt_images\generated_images\results_problem_13\sample_0_0004.png,C:\Users\subject\Desktop\SVRT Experiments\SVRT Experiment 3\svrt_images\generated_images\results_problem_12\sample_0_0000.png,C:\Users\subject\Desktop\SVRT Experiments\SVRT Experiment 3\svrt_images\generated_images\results_problem_23\sample_1_0003.png,C:\Users\subject\Desktop\SVRT Experiments\SVRT Experiment 3\svrt_images\generated_images\results_problem_3\sample_0_0006.png,C:\Users\subject\Desktop\SVRT Experiments\SVRT Experiment 3\svrt_images\generated_images\results_problem_2\sample_0_0002.png,,,,,,,,,,,,,,,,0,7,7,7,0,3,3,3,,,,,,,,,,,,,,j,2,B,B,12,1,Correct!,0.8533387000206858,848.6915084999928,None,848.6915084999928,None,849.5751609999861,None,,,,,45,001,2023-05-12_09h12.51.494,colored_shuffled,2021.2.3,59.99548833286094,
C:\Users\subject\Desktop\SVRT Experiments\SVRT Experiment 3\svrt_images\generated_images\results_problem_2,C:\Users\subject\Desktop\SVRT Experiments\SVRT Experiment 3\svrt_images\generated_images\results_problem_19\sample_1_0010.png,C:\Users\subject\Desktop\SVRT Experiments\SVRT Experiment 3\svrt_images\generated_images\results_problem_14\sample_1_0009.png,,C:\Users\subject\Desktop\SVRT Experiments\SVRT Experiment 3\svrt_images\generated_images\results_problem_13\sample_0_0004.png,C:\Users\subject\Desktop\SVRT Experiments\SVRT Experiment 3\svrt_images\generated_images\results_problem_12\sample_0_0000.png,C:\Users\subject\Desktop\SVRT Experiments\SVRT Experiment 3\svrt_images\generated_images\results_problem_23\sample_1_0003.png,C:\Users\subject\Desktop\SVRT Experiments\SVRT Experiment 3\svrt_images\generated_images\results_problem_3\sample_0_0006.png,C:\Users\subject\Desktop\SVRT Experiments\SVRT Experiment 3\svrt_images\generated_images\results_problem_2\sample_0_0006.png,,,,,,,,,,,,,,,,0,7,7,7,0,4,4,4,,,,,,,,,,,,,,j,2,B,B,12,1,Correct!,1.3350686999910977,850.6417721000034,None,850.6417721000034,None,852.0079492999939,None,,,,,45,001,2023-05-12_09h12.51.494,colored_shuffled,2021.2.3,59.99548833286094,
C:\Users\subject\Desktop\SVRT Experiments\SVRT Experiment 3\svrt_images\generated_images\results_problem_2,C:\Users\subject\Desktop\SVRT Experiments\SVRT Experiment 3\svrt_images\generated_images\results_problem_19\sample_1_0010.png,C:\Users\subject\Desktop\SVRT Experiments\SVRT Experiment 3\svrt_images\generated_images\results_problem_14\sample_1_0009.png,,C:\Users\subject\Desktop\SVRT Experiments\SVRT Experiment 3\svrt_images\generated_images\results_problem_13\sample_0_0004.png,C:\Users\subject\Desktop\SVRT Experiments\SVRT Experiment 3\svrt_images\generated_images\results_problem_12\sample_0_0000.png,C:\Users\subject\Desktop\SVRT Experiments\SVRT Experiment 3\svrt_images\generated_images\results_problem_23\sample_1_0003.png,C:\Users\subject\Desktop\SVRT Experiments\SVRT Experiment 3\svrt_images\generated_images\results_problem_3\sample_0_0006.png,C:\Users\subject\Desktop\SVRT Experiments\SVRT Experiment 3\svrt_images\generated_images\results_problem_2\sample_0_0004.png,,,,,,,,,,,,,,,,0,7,7,7,0,5,5,5,,,,,,,,,,,,,,j,2,B,B,12,1,Correct!,1.1581367000180762,853.0745392999961,None,853.0745392999961,None,854.2577814999968,None,,,,,45,001,2023-05-12_09h12.51.494,colored_shuffled,2021.2.3,59.99548833286094,
C:\Users\subject\Desktop\SVRT Experiments\SVRT Experiment 3\svrt_images\generated_images\results_problem_2,C:\Users\subject\Desktop\SVRT Experiments\SVRT Experiment 3\svrt_images\generated_images\results_problem_19\sample_1_0010.png,C:\Users\subject\Desktop\SVRT Experiments\SVRT Experiment 3\svrt_images\generated_images\results_problem_14\sample_1_0009.png,,C:\Users\subject\Desktop\SVRT Experiments\SVRT Experiment 3\svrt_images\generated_images\results_problem_13\sample_0_0004.png,C:\Users\subject\Desktop\SVRT Experiments\SVRT Experiment 3\svrt_images\generated_images\results_problem_12\sample_0_0000.png,C:\Users\subject\Desktop\SVRT Experiments\SVRT Experiment 3\svrt_images\generated_images\results_problem_23\sample_1_0003.png,C:\Users\subject\Desktop\SVRT Experiments\SVRT Experiment 3\svrt_images\generated_images\results_problem_3\sample_0_0006.png,C:\Users\subject\Desktop\SVRT Experiments\SVRT Experiment 3\svrt_images\generated_images\results_problem_2\sample_1_0013.png,,,,,,,,,,,,,,,,0,7,7,7,0,6,6,6,,,,,,,,,,,,,,j,2,B,A,12,0,Incorrect!,0.796416400000453,855.3243718000012,None,855.3243718000012,None,856.1409316000063,None,,,,,45,001,2023-05-12_09h12.51.494,colored_shuffled,2021.2.3,59.99548833286094,
C:\Users\subject\Desktop\SVRT Experiments\SVRT Experiment 3\svrt_images\generated_images\results_problem_2,C:\Users\subject\Desktop\SVRT Experiments\SVRT Experiment 3\svrt_images\generated_images\results_problem_19\sample_1_0010.png,C:\Users\subject\Desktop\SVRT Experiments\SVRT Experiment 3\svrt_images\generated_images\results_problem_14\sample_1_0009.png,,C:\Users\subject\Desktop\SVRT Experiments\SVRT Experiment 3\svrt_images\generated_images\results_problem_13\sample_0_0004.png,C:\Users\subject\Desktop\SVRT Experiments\SVRT Experiment 3\svrt_images\generated_images\results_problem_12\sample_0_0000.png,C:\Users\subject\Desktop\SVRT Experiments\SVRT Experiment 3\svrt_images\generated_images\results_problem_23\sample_1_0003.png,C:\Users\subject\Desktop\SVRT Experiments\SVRT Experiment 3\svrt_images\generated_images\results_problem_3\sample_0_0006.png,C:\Users\subject\Desktop\SVRT Experiments\SVRT Experiment 3\svrt_images\generated_images\results_problem_2\sample_0_0011.png,,,,,,,,,,,,,,,,0,7,7,7,0,7,7,7,,,,,,,,,,,,,,j,2,B,B,12,1,Correct!,4.255773900018539,857.2408707999857,None,857.2408707999857,None,861.5240057999908,None,,,,,45,001,2023-05-12_09h12.51.494,colored_shuffled,2021.2.3,59.99548833286094,
C:\Users\subject\Desktop\SVRT Experiments\SVRT Experiment 3\svrt_images\generated_images\results_problem_2,C:\Users\subject\Desktop\SVRT Experiments\SVRT Experiment 3\svrt_images\generated_images\results_problem_19\sample_1_0010.png,C:\Users\subject\Desktop\SVRT Experiments\SVRT Experiment 3\svrt_images\generated_images\results_problem_14\sample_1_0009.png,,C:\Users\subject\Desktop\SVRT Experiments\SVRT Experiment 3\svrt_images\generated_images\results_problem_13\sample_0_0004.png,C:\Users\subject\Desktop\SVRT Experiments\SVRT Experiment 3\svrt_images\generated_images\results_problem_12\sample_0_0000.png,C:\Users\subject\Desktop\SVRT Experiments\SVRT Experiment 3\svrt_images\generated_images\results_problem_23\sample_1_0003.png,C:\Users\subject\Desktop\SVRT Experiments\SVRT Experiment 3\svrt_images\generated_images\results_problem_3\sample_0_0006.png,C:\Users\subject\Desktop\SVRT Experiments\SVRT Experiment 3\svrt_images\generated_images\results_problem_2\sample_0_0003.png,,,,,,,,,,,,,,,,0,7,7,7,0,8,8,8,,,,,,,,,,,,,,j,2,B,B,12,1,Correct!,0.6327198000217322,862.6239270999795,None,862.6239270999795,None,863.2738970999781,None,,,,,45,001,2023-05-12_09h12.51.494,colored_shuffled,2021.2.3,59.99548833286094,
C:\Users\subject\Desktop\SVRT Experiments\SVRT Experiment 3\svrt_images\generated_images\results_problem_2,C:\Users\subject\Desktop\SVRT Experiments\SVRT Experiment 3\svrt_images\generated_images\results_problem_19\sample_1_0010.png,C:\Users\subject\Desktop\SVRT Experiments\SVRT Experiment 3\svrt_images\generated_images\results_problem_14\sample_1_0009.png,,C:\Users\subject\Desktop\SVRT Experiments\SVRT Experiment 3\svrt_images\generated_images\results_problem_13\sample_0_0004.png,C:\Users\subject\Desktop\SVRT Experiments\SVRT Experiment 3\svrt_images\generated_images\results_problem_12\sample_0_0000.png,C:\Users\subject\Desktop\SVRT Experiments\SVRT Experiment 3\svrt_images\generated_images\results_problem_23\sample_1_0003.png,C:\Users\subject\Desktop\SVRT Experiments\SVRT Experiment 3\svrt_images\generated_images\results_problem_3\sample_0_0006.png,C:\Users\subject\Desktop\SVRT Experiments\SVRT Experiment 3\svrt_images\generated_images\results_problem_2\sample_1_0015.png,,,,,,,,,,,,,,,,0,7,7,7,0,9,9,9,,,,,,,,,,,,,,f,2,A,A,12,1,Correct!,0.6276871000009123,864.3571528999892,None,864.3571528999892,None,865.006978999998,None,,,,,45,001,2023-05-12_09h12.51.494,colored_shuffled,2021.2.3,59.99548833286094,
C:\Users\subject\Desktop\SVRT Experiments\SVRT Experiment 3\svrt_images\generated_images\results_problem_2,C:\Users\subject\Desktop\SVRT Experiments\SVRT Experiment 3\svrt_images\generated_images\results_problem_19\sample_1_0010.png,C:\Users\subject\Desktop\SVRT Experiments\SVRT Experiment 3\svrt_images\generated_images\results_problem_14\sample_1_0009.png,,C:\Users\subject\Desktop\SVRT Experiments\SVRT Experiment 3\svrt_images\generated_images\results_problem_13\sample_0_0004.png,C:\Users\subject\Desktop\SVRT Experiments\SVRT Experiment 3\svrt_images\generated_images\results_problem_12\sample_0_0000.png,C:\Users\subject\Desktop\SVRT Experiments\SVRT Experiment 3\svrt_images\generated_images\results_problem_23\sample_1_0003.png,C:\Users\subject\Desktop\SVRT Experiments\SVRT Experiment 3\svrt_images\generated_images\results_problem_3\sample_0_0006.png,C:\Users\subject\Desktop\SVRT Experiments\SVRT Experiment 3\svrt_images\generated_images\results_problem_2\sample_0_0001.png,,,,,,,,,,,,,,,,0,7,7,7,0,10,10,10,,,,,,,,,,,,,,j,2,B,B,12,1,Correct!,0.6850570999959018,866.1237297999905,None,866.1237297999905,None,866.8403225999791,None,,,,,45,001,2023-05-12_09h12.51.494,colored_shuffled,2021.2.3,59.99548833286094,
C:\Users\subject\Desktop\SVRT Experiments\SVRT Experiment 3\svrt_images\generated_images\results_problem_2,C:\Users\subject\Desktop\SVRT Experiments\SVRT Experiment 3\svrt_images\generated_images\results_problem_19\sample_1_0010.png,C:\Users\subject\Desktop\SVRT Experiments\SVRT Experiment 3\svrt_images\generated_images\results_problem_14\sample_1_0009.png,,C:\Users\subject\Desktop\SVRT Experiments\SVRT Experiment 3\svrt_images\generated_images\results_problem_13\sample_0_0004.png,C:\Users\subject\Desktop\SVRT Experiments\SVRT Experiment 3\svrt_images\generated_images\results_problem_12\sample_0_0000.png,C:\Users\subject\Desktop\SVRT Experiments\SVRT Experiment 3\svrt_images\generated_images\results_problem_23\sample_1_0003.png,C:\Users\subject\Desktop\SVRT Experiments\SVRT Experiment 3\svrt_images\generated_images\results_problem_3\sample_0_0006.png,C:\Users\subject\Desktop\SVRT Experiments\SVRT Experiment 3\svrt_images\generated_images\results_problem_2\sample_0_0013.png,,,,,,,,,,,,,,,,0,7,7,7,0,11,11,11,,,,,,,,,,,,,,j,2,B,B,12,1,Correct!,0.8518765000044368,867.956923699996,None,867.956923699996,None,868.840205799992,None,,,,,45,001,2023-05-12_09h12.51.494,colored_shuffled,2021.2.3,59.99548833286094,
C:\Users\subject\Desktop\SVRT Experiments\SVRT Experiment 3\svrt_images\generated_images\results_problem_2,C:\Users\subject\Desktop\SVRT Experiments\SVRT Experiment 3\svrt_images\generated_images\results_problem_19\sample_1_0010.png,C:\Users\subject\Desktop\SVRT Experiments\SVRT Experiment 3\svrt_images\generated_images\results_problem_14\sample_1_0009.png,,C:\Users\subject\Desktop\SVRT Experiments\SVRT Experiment 3\svrt_images\generated_images\results_problem_13\sample_0_0004.png,C:\Users\subject\Desktop\SVRT Experiments\SVRT Experiment 3\svrt_images\generated_images\results_problem_12\sample_0_0000.png,C:\Users\subject\Desktop\SVRT Experiments\SVRT Experiment 3\svrt_images\generated_images\results_problem_23\sample_1_0003.png,C:\Users\subject\Desktop\SVRT Experiments\SVRT Experiment 3\svrt_images\generated_images\results_problem_3\sample_0_0006.png,C:\Users\subject\Desktop\SVRT Experiments\SVRT Experiment 3\svrt_images\generated_images\results_problem_2\sample_1_0007.png,,,,,,,,,,,,,,,,0,7,7,7,0,12,12,12,,,,,,,,,,,,,,f,2,A,A,12,1,Correct!,0.5799460000125691,869.9568059000012,None,869.9568059000012,None,870.5567696999933,None,,,,,45,001,2023-05-12_09h12.51.494,colored_shuffled,2021.2.3,59.99548833286094,
C:\Users\subject\Desktop\SVRT Experiments\SVRT Experiment 3\svrt_images\generated_images\results_problem_2,C:\Users\subject\Desktop\SVRT Experiments\SVRT Experiment 3\svrt_images\generated_images\results_problem_19\sample_1_0010.png,C:\Users\subject\Desktop\SVRT Experiments\SVRT Experiment 3\svrt_images\generated_images\results_problem_14\sample_1_0009.png,,C:\Users\subject\Desktop\SVRT Experiments\SVRT Experiment 3\svrt_images\generated_images\results_problem_13\sample_0_0004.png,C:\Users\subject\Desktop\SVRT Experiments\SVRT Experiment 3\svrt_images\generated_images\results_problem_12\sample_0_0000.png,C:\Users\subject\Desktop\SVRT Experiments\SVRT Experiment 3\svrt_images\generated_images\results_problem_23\sample_1_0003.png,C:\Users\subject\Desktop\SVRT Experiments\SVRT Experiment 3\svrt_images\generated_images\results_problem_3\sample_0_0006.png,C:\Users\subject\Desktop\SVRT Experiments\SVRT Experiment 3\svrt_images\generated_images\results_problem_2\sample_1_0006.png,,,,,,,,,,,,,,,,0,7,7,7,0,13,13,13,,,,,,,,,,,,,,f,2,A,A,12,1,Correct!,0.7027902000118047,871.6900252999912,None,871.6900252999912,None,872.4233015000063,None,,,,,45,001,2023-05-12_09h12.51.494,colored_shuffled,2021.2.3,59.99548833286094,
C:\Users\subject\Desktop\SVRT Experiments\SVRT Experiment 3\svrt_images\generated_images\results_problem_2,C:\Users\subject\Desktop\SVRT Experiments\SVRT Experiment 3\svrt_images\generated_images\results_problem_19\sample_1_0010.png,C:\Users\subject\Desktop\SVRT Experiments\SVRT Experiment 3\svrt_images\generated_images\results_problem_14\sample_1_0009.png,,C:\Users\subject\Desktop\SVRT Experiments\SVRT Experiment 3\svrt_images\generated_images\results_problem_13\sample_0_0004.png,C:\Users\subject\Desktop\SVRT Experiments\SVRT Experiment 3\svrt_images\generated_images\results_problem_12\sample_0_0000.png,C:\Users\subject\Desktop\SVRT Experiments\SVRT Experiment 3\svrt_images\generated_images\results_problem_23\sample_1_0003.png,C:\Users\subject\Desktop\SVRT Experiments\SVRT Experiment 3\svrt_images\generated_images\results_problem_3\sample_0_0006.png,C:\Users\subject\Desktop\SVRT Experiments\SVRT Experiment 3\svrt_images\generated_images\results_problem_2\sample_0_0012.png,,,,,,,,,,,,,,,,0,7,7,7,0,14,14,14,,,,,,,,,,,,,,,,,,,,,,,,,,,,873.4232390999969,873.4232390999969,space,1.0174076000112109,45,001,2023-05-12_09h12.51.494,colored_shuffled,2021.2.3,59.99548833286094,
