folder,results_problem_19,results_problem_14,results_problem_17,results_problem_13,results_problem_12,results_problem_23,results_problem_3,results_problem_2,results_problem_5,results_problem_8,results_problem_16,results_problem_11,results_problem_18,results_problem_4,results_problem_7,results_problem_21,results_problem_10,results_problem_9,results_problem_22,results_problem_6,results_problem_15,results_problem_1,results_problem_20,categories.thisRepN,categories.thisTrialN,categories.thisN,categories.thisIndex,trials.thisRepN,trials.thisTrialN,trials.thisN,trials.thisIndex,consent_text.started,consent_kb.started,consent_kb.keys,consent_kb.rt,Gender.keys,Gender.rt,Age,instructions_text.started,instructions_text.stopped,instructions_kb.keys,instructions_kb.rt,instructions_kb.started,instructions_kb.stopped,trial_kb.keys,current_problem_num,category_resp,answer,seed,accuracy,feedback,trial_kb.rt,trial_kb.started,trial_kb.stopped,trial_image.started,trial_image.stopped,feedback_text.started,feedback_text.stopped,new_problem_kb.started,new_problem_text.started,new_problem_kb.keys,new_problem_kb.rt,Participant #,session,date,expName,psychopyVersion,frameRate,
,,,,,,,,,,,,,,,,,,,,,,,,,,,,,,,,12.150269599980675,12.150269599980675,y,1103.1996928000008,,,,,,,,,,,,,,,,,,,,,,,,,,,,47,001,2023-05-12_09h44.46.811,uncolored_shuffled,2021.2.3,60.00823313639041,
,,,,,,,,,,,,,,,,,,,,,,,,,,,,,,,,,,,,w,2.7209603000083007,,,,,,,,,,,,,,,,,,,,,,,,,,47,001,2023-05-12_09h44.46.811,uncolored_shuffled,2021.2.3,60.00823313639041,
,,,,,,,,,,,,,,,,,,,,,,,,,,,,,,,,,,,,,,19,1122.1640809999953,None,space,18.897945399978198,1122.1640809999953,None,,,,,,,,,,,,,,,,,,,47,001,2023-05-12_09h44.46.811,uncolored_shuffled,2021.2.3,60.00823313639041,
C:\Users\subject\Desktop\SVRT Experiments\SVRT Experiment 3\svrt_images\generated_images\results_problem_19,C:\Users\subject\Desktop\SVRT Experiments\SVRT Experiment 3\svrt_images\generated_images\results_problem_19\sample_0_0013.png,,,,,,,,,,,,,,,,,,,,,,,0,0,0,0,0,0,0,0,,,,,,,,,,,,,,f,19,A,B,12,0,Incorrect!,9.229023499996401,1141.11285819998,None,1141.11285819998,None,1150.3789798999787,None,,,,,47,001,2023-05-12_09h44.46.811,uncolored_shuffled,2021.2.3,60.00823313639041,
C:\Users\subject\Desktop\SVRT Experiments\SVRT Experiment 3\svrt_images\generated_images\results_problem_19,C:\Users\subject\Desktop\SVRT Experiments\SVRT Experiment 3\svrt_images\generated_images\results_problem_19\sample_0_0012.png,,,,,,,,,,,,,,,,,,,,,,,0,0,0,0,0,1,1,1,,,,,,,,,,,,,,j,19,B,B,12,1,Correct!,1.6011833999946248,1151.428878799983,None,1151.428878799983,None,1153.0621337999764,None,,,,,47,001,2023-05-12_09h44.46.811,uncolored_shuffled,2021.2.3,60.00823313639041,
C:\Users\subject\Desktop\SVRT Experiments\SVRT Experiment 3\svrt_images\generated_images\results_problem_19,C:\Users\subject\Desktop\SVRT Experiments\SVRT Experiment 3\svrt_images\generated_images\results_problem_19\sample_0_0015.png,,,,,,,,,,,,,,,,,,,,,,,0,0,0,0,0,2,2,2,,,,,,,,,,,,,,j,19,B,B,12,1,Correct!,1.2865098000038415,1154.0953666999994,None,1154.0953666999994,None,1155.4119669999927,None,,,,,47,001,2023-05-12_09h44.46.811,uncolored_shuffled,2021.2.3,60.00823313639041,
C:\Users\subject\Desktop\SVRT Experiments\SVRT Experiment 3\svrt_images\generated_images\results_problem_19,C:\Users\subject\Desktop\SVRT Experiments\SVRT Experiment 3\svrt_images\generated_images\results_problem_19\sample_0_0014.png,,,,,,,,,,,,,,,,,,,,,,,0,0,0,0,0,3,3,3,,,,,,,,,,,,,,j,19,B,B,12,1,Correct!,0.8239567000127863,1156.4618972999742,None,1156.4618972999742,None,1157.3118418999948,None,,,,,47,001,2023-05-12_09h44.46.811,uncolored_shuffled,2021.2.3,60.00823313639041,
C:\Users\subject\Desktop\SVRT Experiments\SVRT Experiment 3\svrt_images\generated_images\results_problem_19,C:\Users\subject\Desktop\SVRT Experiments\SVRT Experiment 3\svrt_images\generated_images\results_problem_19\sample_0_0004.png,,,,,,,,,,,,,,,,,,,,,,,0,0,0,0,0,4,4,4,,,,,,,,,,,,,,j,19,B,B,12,1,Correct!,0.5726352000201587,1158.3613811999967,None,1158.3613811999967,None,1158.9616890999896,None,,,,,47,001,2023-05-12_09h44.46.811,uncolored_shuffled,2021.2.3,60.00823313639041,
C:\Users\subject\Desktop\SVRT Experiments\SVRT Experiment 3\svrt_images\generated_images\results_problem_19,C:\Users\subject\Desktop\SVRT Experiments\SVRT Experiment 3\svrt_images\generated_images\results_problem_19\sample_1_0005.png,,,,,,,,,,,,,,,,,,,,,,,0,0,0,0,0,5,5,5,,,,,,,,,,,,,,j,19,B,A,12,0,Incorrect!,0.5057481999974698,1160.028308399982,None,1160.028308399982,None,1160.5615845999855,None,,,,,47,001,2023-05-12_09h44.46.811,uncolored_shuffled,2021.2.3,60.00823313639041,
C:\Users\subject\Desktop\SVRT Experiments\SVRT Experiment 3\svrt_images\generated_images\results_problem_19,C:\Users\subject\Desktop\SVRT Experiments\SVRT Experiment 3\svrt_images\generated_images\results_problem_19\sample_1_0013.png,,,,,,,,,,,,,,,,,,,,,,,0,0,0,0,0,6,6,6,,,,,,,,,,,,,,f,19,A,A,12,1,Correct!,0.698557699972298,1161.6114953999931,None,1161.6114953999931,None,1162.3280190999794,None,,,,,47,001,2023-05-12_09h44.46.811,uncolored_shuffled,2021.2.3,60.00823313639041,
C:\Users\subject\Desktop\SVRT Experiments\SVRT Experiment 3\svrt_images\generated_images\results_problem_19,C:\Users\subject\Desktop\SVRT Experiments\SVRT Experiment 3\svrt_images\generated_images\results_problem_19\sample_1_0016.png,,,,,,,,,,,,,,,,,,,,,,,0,0,0,0,0,7,7,7,,,,,,,,,,,,,,f,19,A,A,12,1,Correct!,0.6437317999952938,1163.3943226999836,None,1163.3943226999836,None,1164.0609226999804,None,,,,,47,001,2023-05-12_09h44.46.811,uncolored_shuffled,2021.2.3,60.00823313639041,
C:\Users\subject\Desktop\SVRT Experiments\SVRT Experiment 3\svrt_images\generated_images\results_problem_19,C:\Users\subject\Desktop\SVRT Experiments\SVRT Experiment 3\svrt_images\generated_images\results_problem_19\sample_0_0016.png,,,,,,,,,,,,,,,,,,,,,,,0,0,0,0,0,8,8,8,,,,,,,,,,,,,,f,19,A,B,12,0,Incorrect!,0.46222250000573695,1165.1278101999778,None,1165.1278101999778,None,1165.6109117000015,None,,,,,47,001,2023-05-12_09h44.46.811,uncolored_shuffled,2021.2.3,60.00823313639041,
C:\Users\subject\Desktop\SVRT Experiments\SVRT Experiment 3\svrt_images\generated_images\results_problem_19,C:\Users\subject\Desktop\SVRT Experiments\SVRT Experiment 3\svrt_images\generated_images\results_problem_19\sample_1_0008.png,,,,,,,,,,,,,,,,,,,,,,,0,0,0,0,0,9,9,9,,,,,,,,,,,,,,j,19,B,A,12,0,Incorrect!,0.3684718000004068,1166.6775190999906,None,1166.6775190999906,None,1167.0774772999866,None,,,,,47,001,2023-05-12_09h44.46.811,uncolored_shuffled,2021.2.3,60.00823313639041,
C:\Users\subject\Desktop\SVRT Experiments\SVRT Experiment 3\svrt_images\generated_images\results_problem_19,C:\Users\subject\Desktop\SVRT Experiments\SVRT Experiment 3\svrt_images\generated_images\results_problem_19\sample_1_0014.png,,,,,,,,,,,,,,,,,,,,,,,0,0,0,0,0,10,10,10,,,,,,,,,,,,,,f,19,A,A,12,1,Correct!,0.549878699996043,1168.1440935999854,None,1168.1440935999854,None,1168.7107155999984,None,,,,,47,001,2023-05-12_09h44.46.811,uncolored_shuffled,2021.2.3,60.00823313639041,
C:\Users\subject\Desktop\SVRT Experiments\SVRT Experiment 3\svrt_images\generated_images\results_problem_19,C:\Users\subject\Desktop\SVRT Experiments\SVRT Experiment 3\svrt_images\generated_images\results_problem_19\sample_0_0005.png,,,,,,,,,,,,,,,,,,,,,,,0,0,0,0,0,11,11,11,,,,,,,,,,,,,,f,19,A,B,12,0,Incorrect!,1.8912994999845978,1169.810654299974,None,1169.810654299974,None,1171.7270138000022,None,,,,,47,001,2023-05-12_09h44.46.811,uncolored_shuffled,2021.2.3,60.00823313639041,
C:\Users\subject\Desktop\SVRT Experiments\SVRT Experiment 3\svrt_images\generated_images\results_problem_19,C:\Users\subject\Desktop\SVRT Experiments\SVRT Experiment 3\svrt_images\generated_images\results_problem_19\sample_1_0003.png,,,,,,,,,,,,,,,,,,,,,,,0,0,0,0,0,12,12,12,,,,,,,,,,,,,,j,19,B,A,12,0,Incorrect!,0.26774890001979657,1172.810288699984,None,1172.810288699984,None,1173.1102669999818,None,,,,,47,001,2023-05-12_09h44.46.811,uncolored_shuffled,2021.2.3,60.00823313639041,
C:\Users\subject\Desktop\SVRT Experiments\SVRT Experiment 3\svrt_images\generated_images\results_problem_19,C:\Users\subject\Desktop\SVRT Experiments\SVRT Experiment 3\svrt_images\generated_images\results_problem_19\sample_0_0009.png,,,,,,,,,,,,,,,,,,,,,,,0,0,0,0,0,13,13,13,,,,,,,,,,,,,,f,19,A,B,12,0,Incorrect!,0.2114577000029385,1174.2103813999856,None,1174.2103813999856,None,1174.4437117999769,None,,,,,47,001,2023-05-12_09h44.46.811,uncolored_shuffled,2021.2.3,60.00823313639041,
C:\Users\subject\Desktop\SVRT Experiments\SVRT Experiment 3\svrt_images\generated_images\results_problem_19,C:\Users\subject\Desktop\SVRT Experiments\SVRT Experiment 3\svrt_images\generated_images\results_problem_19\sample_0_0003.png,,,,,,,,,,,,,,,,,,,,,,,0,0,0,0,0,14,14,14,,,,,,,,,,,,,,j,19,B,B,12,1,Correct!,0.3183691000158433,1175.5436168999877,None,1175.5436168999877,None,1175.8935894999886,None,,,,,47,001,2023-05-12_09h44.46.811,uncolored_shuffled,2021.2.3,60.00823313639041,
C:\Users\subject\Desktop\SVRT Experiments\SVRT Experiment 3\svrt_images\generated_images\results_problem_19,C:\Users\subject\Desktop\SVRT Experiments\SVRT Experiment 3\svrt_images\generated_images\results_problem_19\sample_0_0000.png,,,,,,,,,,,,,,,,,,,,,,,0,0,0,0,0,15,15,15,,,,,,,,,,,,,,j,19,B,B,12,1,Correct!,1.028002099978039,1177.0100155999826,None,1177.0100155999826,None,1178.0601221999968,None,,,,,47,001,2023-05-12_09h44.46.811,uncolored_shuffled,2021.2.3,60.00823313639041,
C:\Users\subject\Desktop\SVRT Experiments\SVRT Experiment 3\svrt_images\generated_images\results_problem_19,C:\Users\subject\Desktop\SVRT Experiments\SVRT Experiment 3\svrt_images\generated_images\results_problem_19\sample_1_0000.png,,,,,,,,,,,,,,,,,,,,,,,0,0,0,0,0,16,16,16,,,,,,,,,,,,,,j,19,B,A,12,0,Incorrect!,0.8285993000026792,1179.1934027999814,None,1179.1934027999814,None,1180.0433272999944,None,,,,,47,001,2023-05-12_09h44.46.811,uncolored_shuffled,2021.2.3,60.00823313639041,
C:\Users\subject\Desktop\SVRT Experiments\SVRT Experiment 3\svrt_images\generated_images\results_problem_19,C:\Users\subject\Desktop\SVRT Experiments\SVRT Experiment 3\svrt_images\generated_images\results_problem_19\sample_1_0004.png,,,,,,,,,,,,,,,,,,,,,,,0,0,0,0,0,17,17,17,,,,,,,,,,,,,,f,19,A,A,12,1,Correct!,1.005411499994807,1181.1765975999879,None,1181.1765975999879,None,1182.2265264999878,None,,,,,47,001,2023-05-12_09h44.46.811,uncolored_shuffled,2021.2.3,60.00823313639041,
C:\Users\subject\Desktop\SVRT Experiments\SVRT Experiment 3\svrt_images\generated_images\results_problem_19,C:\Users\subject\Desktop\SVRT Experiments\SVRT Experiment 3\svrt_images\generated_images\results_problem_19\sample_1_0010.png,,,,,,,,,,,,,,,,,,,,,,,0,0,0,0,0,18,18,18,,,,,,,,,,,,,,f,19,A,A,12,1,Correct!,0.5653330000059213,1183.3764665999915,None,1183.3764665999915,None,1183.9597662999877,None,,,,,47,001,2023-05-12_09h44.46.811,uncolored_shuffled,2021.2.3,60.00823313639041,
C:\Users\subject\Desktop\SVRT Experiments\SVRT Experiment 3\svrt_images\generated_images\results_problem_19,C:\Users\subject\Desktop\SVRT Experiments\SVRT Experiment 3\svrt_images\generated_images\results_problem_19\sample_0_0010.png,,,,,,,,,,,,,,,,,,,,,,,0,0,0,0,0,19,19,19,,,,,,,,,,,,,,f,19,A,B,12,0,Incorrect!,0.5441206000105012,1185.109695799998,None,1185.109695799998,None,1185.692989699979,None,,,,,47,001,2023-05-12_09h44.46.811,uncolored_shuffled,2021.2.3,60.00823313639041,
C:\Users\subject\Desktop\SVRT Experiments\SVRT Experiment 3\svrt_images\generated_images\results_problem_19,C:\Users\subject\Desktop\SVRT Experiments\SVRT Experiment 3\svrt_images\generated_images\results_problem_19\sample_0_0006.png,,,,,,,,,,,,,,,,,,,,,,,0,0,0,0,0,20,20,20,,,,,,,,,,,,,,j,19,B,B,12,1,Correct!,0.7629077000019606,1186.842917699978,None,1186.842917699978,None,1187.626202399988,None,,,,,47,001,2023-05-12_09h44.46.811,uncolored_shuffled,2021.2.3,60.00823313639041,
C:\Users\subject\Desktop\SVRT Experiments\SVRT Experiment 3\svrt_images\generated_images\results_problem_19,C:\Users\subject\Desktop\SVRT Experiments\SVRT Experiment 3\svrt_images\generated_images\results_problem_19\sample_0_0001.png,,,,,,,,,,,,,,,,,,,,,,,0,0,0,0,0,21,21,21,,,,,,,,,,,,,,j,19,B,B,12,1,Correct!,1.7411732000182383,1188.792831699975,None,1188.792831699975,None,1190.5593590999779,None,,,,,47,001,2023-05-12_09h44.46.811,uncolored_shuffled,2021.2.3,60.00823313639041,
C:\Users\subject\Desktop\SVRT Experiments\SVRT Experiment 3\svrt_images\generated_images\results_problem_19,C:\Users\subject\Desktop\SVRT Experiments\SVRT Experiment 3\svrt_images\generated_images\results_problem_19\sample_1_0011.png,,,,,,,,,,,,,,,,,,,,,,,0,0,0,0,0,22,22,22,,,,,,,,,,,,,,j,19,B,A,12,0,Incorrect!,0.5994152000057511,1191.7426121999742,None,1191.7426121999742,None,1192.3592366999947,None,,,,,47,001,2023-05-12_09h44.46.811,uncolored_shuffled,2021.2.3,60.00823313639041,
C:\Users\subject\Desktop\SVRT Experiments\SVRT Experiment 3\svrt_images\generated_images\results_problem_19,C:\Users\subject\Desktop\SVRT Experiments\SVRT Experiment 3\svrt_images\generated_images\results_problem_19\sample_0_0008.png,,,,,,,,,,,,,,,,,,,,,,,0,0,0,0,0,23,23,23,,,,,,,,,,,,,,f,19,A,B,12,0,Incorrect!,0.4787550999899395,1193.5591880999855,None,1193.5591880999855,None,1194.0757890999957,None,,,,,47,001,2023-05-12_09h44.46.811,uncolored_shuffled,2021.2.3,60.00823313639041,
C:\Users\subject\Desktop\SVRT Experiments\SVRT Experiment 3\svrt_images\generated_images\results_problem_19,C:\Users\subject\Desktop\SVRT Experiments\SVRT Experiment 3\svrt_images\generated_images\results_problem_19\sample_1_0001.png,,,,,,,,,,,,,,,,,,,,,,,0,0,0,0,0,24,24,24,,,,,,,,,,,,,,j,19,B,A,12,0,Incorrect!,1.1301272999844514,1195.2757606999949,None,1195.2757606999949,None,1196.4423173999821,None,,,,,47,001,2023-05-12_09h44.46.811,uncolored_shuffled,2021.2.3,60.00823313639041,
C:\Users\subject\Desktop\SVRT Experiments\SVRT Experiment 3\svrt_images\generated_images\results_problem_19,C:\Users\subject\Desktop\SVRT Experiments\SVRT Experiment 3\svrt_images\generated_images\results_problem_19\sample_0_0011.png,,,,,,,,,,,,,,,,,,,,,,,0,0,0,0,0,25,25,25,,,,,,,,,,,,,,f,19,A,B,12,0,Incorrect!,0.7790511000202969,1197.6589372000017,None,1197.6589372000017,None,1198.4755261999962,None,,,,,47,001,2023-05-12_09h44.46.811,uncolored_shuffled,2021.2.3,60.00823313639041,
C:\Users\subject\Desktop\SVRT Experiments\SVRT Experiment 3\svrt_images\generated_images\results_problem_19,C:\Users\subject\Desktop\SVRT Experiments\SVRT Experiment 3\svrt_images\generated_images\results_problem_19\sample_0_0002.png,,,,,,,,,,,,,,,,,,,,,,,0,0,0,0,0,26,26,26,,,,,,,,,,,,,,j,19,B,B,12,1,Correct!,5.706028000015067,1199.691950599983,None,1199.691950599983,None,1205.4584171999886,None,,,,,47,001,2023-05-12_09h44.46.811,uncolored_shuffled,2021.2.3,60.00823313639041,
C:\Users\subject\Desktop\SVRT Experiments\SVRT Experiment 3\svrt_images\generated_images\results_problem_19,C:\Users\subject\Desktop\SVRT Experiments\SVRT Experiment 3\svrt_images\generated_images\results_problem_19\sample_1_0002.png,,,,,,,,,,,,,,,,,,,,,,,0,0,0,0,0,27,27,27,,,,,,,,,,,,,,j,19,B,A,12,0,Incorrect!,0.7070939999830443,1206.6748332999996,None,1206.6748332999996,None,1207.441617399978,None,,,,,47,001,2023-05-12_09h44.46.811,uncolored_shuffled,2021.2.3,60.00823313639041,
C:\Users\subject\Desktop\SVRT Experiments\SVRT Experiment 3\svrt_images\generated_images\results_problem_19,C:\Users\subject\Desktop\SVRT Experiments\SVRT Experiment 3\svrt_images\generated_images\results_problem_19\sample_0_0007.png,,,,,,,,,,,,,,,,,,,,,,,0,0,0,0,0,28,28,28,,,,,,,,,,,,,,f,19,A,B,12,0,Incorrect!,1.506457900017267,1208.6915590999997,None,1208.6915590999997,None,1210.2414551999827,None,,,,,47,001,2023-05-12_09h44.46.811,uncolored_shuffled,2021.2.3,60.00823313639041,
C:\Users\subject\Desktop\SVRT Experiments\SVRT Experiment 3\svrt_images\generated_images\results_problem_19,C:\Users\subject\Desktop\SVRT Experiments\SVRT Experiment 3\svrt_images\generated_images\results_problem_19\sample_1_0009.png,,,,,,,,,,,,,,,,,,,,,,,0,0,0,0,0,29,29,29,,,,,,,,,,,,,,j,19,B,A,12,0,Incorrect!,0.45061010000063106,1211.4913690999965,None,1211.4913690999965,None,1211.9746841999877,None,,,,,47,001,2023-05-12_09h44.46.811,uncolored_shuffled,2021.2.3,60.00823313639041,
C:\Users\subject\Desktop\SVRT Experiments\SVRT Experiment 3\svrt_images\generated_images\results_problem_19,C:\Users\subject\Desktop\SVRT Experiments\SVRT Experiment 3\svrt_images\generated_images\results_problem_19\sample_1_0007.png,,,,,,,,,,,,,,,,,,,,,,,0,0,0,0,0,30,30,30,,,,,,,,,,,,,,f,19,A,A,12,1,Correct!,0.8286984000005759,1213.2412723999878,None,1213.2412723999878,None,1214.1245424999797,None,,,,,47,001,2023-05-12_09h44.46.811,uncolored_shuffled,2021.2.3,60.00823313639041,
C:\Users\subject\Desktop\SVRT Experiments\SVRT Experiment 3\svrt_images\generated_images\results_problem_19,C:\Users\subject\Desktop\SVRT Experiments\SVRT Experiment 3\svrt_images\generated_images\results_problem_19\sample_1_0006.png,,,,,,,,,,,,,,,,,,,,,,,0,0,0,0,0,31,31,31,,,,,,,,,,,,,,j,19,B,A,12,0,Incorrect!,0.6787264999875333,1215.3911321999913,None,1215.3911321999913,None,1216.1410902999924,None,,,,,47,001,2023-05-12_09h44.46.811,uncolored_shuffled,2021.2.3,60.00823313639041,
C:\Users\subject\Desktop\SVRT Experiments\SVRT Experiment 3\svrt_images\generated_images\results_problem_19,C:\Users\subject\Desktop\SVRT Experiments\SVRT Experiment 3\svrt_images\generated_images\results_problem_19\sample_1_0012.png,,,,,,,,,,,,,,,,,,,,,,,0,0,0,0,0,32,32,32,,,,,,,,,,,,,,f,19,A,A,12,1,Correct!,0.6942642999929376,1217.4076892999874,None,1217.4076892999874,None,1218.1742862999963,None,,,,,47,001,2023-05-12_09h44.46.811,uncolored_shuffled,2021.2.3,60.00823313639041,
C:\Users\subject\Desktop\SVRT Experiments\SVRT Experiment 3\svrt_images\generated_images\results_problem_19,C:\Users\subject\Desktop\SVRT Experiments\SVRT Experiment 3\svrt_images\generated_images\results_problem_19\sample_1_0015.png,,,,,,,,,,,,,,,,,,,,,,,0,0,0,0,0,33,33,33,,,,,,,,,,,,,,j,19,B,A,12,0,Incorrect!,0.8523507000063546,1219.4575491999858,None,1219.4575491999858,None,1220.3575025999744,None,,,,,47,001,2023-05-12_09h44.46.811,uncolored_shuffled,2021.2.3,60.00823313639041,
C:\Users\subject\Desktop\SVRT Experiments\SVRT Experiment 3\svrt_images\generated_images\results_problem_19,,,,,,,,,,,,,,,,,,,,,,,,0,0,0,0,,,,,,,,,,,,,,,,,,,,,,,,,,,,,,,,1221.3574259000015,1221.3574259000015,space,1.8645496999961324,47,001,2023-05-12_09h44.46.811,uncolored_shuffled,2021.2.3,60.00823313639041,
C:\Users\subject\Desktop\SVRT Experiments\SVRT Experiment 3\svrt_images\generated_images\results_problem_14,,C:\Users\subject\Desktop\SVRT Experiments\SVRT Experiment 3\svrt_images\generated_images\results_problem_14\sample_1_0004.png,,,,,,,,,,,,,,,,,,,,,,0,1,1,1,0,0,0,0,,,,,,,,,,,,,,f,14,A,A,12,1,Correct!,8.685247399989748,1223.240690799983,None,1223.240690799983,None,1231.957115999976,None,,,,,47,001,2023-05-12_09h44.46.811,uncolored_shuffled,2021.2.3,60.00823313639041,
C:\Users\subject\Desktop\SVRT Experiments\SVRT Experiment 3\svrt_images\generated_images\results_problem_14,,C:\Users\subject\Desktop\SVRT Experiments\SVRT Experiment 3\svrt_images\generated_images\results_problem_14\sample_0_0015.png,,,,,,,,,,,,,,,,,,,,,,0,1,1,1,0,1,1,1,,,,,,,,,,,,,,f,14,A,B,12,0,Incorrect!,1.512192900001537,1232.9737254999927,None,1232.9737254999927,None,1234.5070517999993,None,,,,,47,001,2023-05-12_09h44.46.811,uncolored_shuffled,2021.2.3,60.00823313639041,
C:\Users\subject\Desktop\SVRT Experiments\SVRT Experiment 3\svrt_images\generated_images\results_problem_14,,C:\Users\subject\Desktop\SVRT Experiments\SVRT Experiment 3\svrt_images\generated_images\results_problem_14\sample_0_0004.png,,,,,,,,,,,,,,,,,,,,,,0,1,1,1,0,2,2,2,,,,,,,,,,,,,,j,14,B,B,12,1,Correct!,61.55333729999256,1235.5403281999752,None,1235.5403281999752,None,1297.1198534999858,None,,,,,47,001,2023-05-12_09h44.46.811,uncolored_shuffled,2021.2.3,60.00823313639041,
C:\Users\subject\Desktop\SVRT Experiments\SVRT Experiment 3\svrt_images\generated_images\results_problem_14,,C:\Users\subject\Desktop\SVRT Experiments\SVRT Experiment 3\svrt_images\generated_images\results_problem_14\sample_1_0003.png,,,,,,,,,,,,,,,,,,,,,,0,1,1,1,0,3,3,3,,,,,,,,,,,,,,j,14,B,A,12,0,Incorrect!,1.6445144999888726,1298.1531354999752,None,1298.1531354999752,None,1299.819295399997,None,,,,,47,001,2023-05-12_09h44.46.811,uncolored_shuffled,2021.2.3,60.00823313639041,
C:\Users\subject\Desktop\SVRT Experiments\SVRT Experiment 3\svrt_images\generated_images\results_problem_14,,C:\Users\subject\Desktop\SVRT Experiments\SVRT Experiment 3\svrt_images\generated_images\results_problem_14\sample_1_0002.png,,,,,,,,,,,,,,,,,,,,,,0,1,1,1,0,4,4,4,,,,,,,,,,,,,,f,14,A,A,12,1,Correct!,3.9852095999813173,1300.8525725999789,None,1300.8525725999789,None,1304.8689728999743,None,,,,,47,001,2023-05-12_09h44.46.811,uncolored_shuffled,2021.2.3,60.00823313639041,
C:\Users\subject\Desktop\SVRT Experiments\SVRT Experiment 3\svrt_images\generated_images\results_problem_14,,C:\Users\subject\Desktop\SVRT Experiments\SVRT Experiment 3\svrt_images\generated_images\results_problem_14\sample_0_0007.png,,,,,,,,,,,,,,,,,,,,,,0,1,1,1,0,5,5,5,,,,,,,,,,,,,,f,14,A,B,12,0,Incorrect!,0.726913999998942,1305.9189214999788,None,1305.9189214999788,None,1306.6688505999919,None,,,,,47,001,2023-05-12_09h44.46.811,uncolored_shuffled,2021.2.3,60.00823313639041,
C:\Users\subject\Desktop\SVRT Experiments\SVRT Experiment 3\svrt_images\generated_images\results_problem_14,,C:\Users\subject\Desktop\SVRT Experiments\SVRT Experiment 3\svrt_images\generated_images\results_problem_14\sample_1_0014.png,,,,,,,,,,,,,,,,,,,,,,0,1,1,1,0,6,6,6,,,,,,,,,,,,,,j,14,B,A,12,0,Incorrect!,21.19870219999575,1307.7191980999778,None,1307.7191980999778,None,1328.950792299991,None,,,,,47,001,2023-05-12_09h44.46.811,uncolored_shuffled,2021.2.3,60.00823313639041,
C:\Users\subject\Desktop\SVRT Experiments\SVRT Experiment 3\svrt_images\generated_images\results_problem_14,,C:\Users\subject\Desktop\SVRT Experiments\SVRT Experiment 3\svrt_images\generated_images\results_problem_14\sample_1_0006.png,,,,,,,,,,,,,,,,,,,,,,0,1,1,1,0,7,7,7,,,,,,,,,,,,,,f,14,A,A,12,1,Correct!,6.612242500006687,1330.0173584999866,None,1330.0173584999866,None,1336.6503497999802,None,,,,,47,001,2023-05-12_09h44.46.811,uncolored_shuffled,2021.2.3,60.00823313639041,
C:\Users\subject\Desktop\SVRT Experiments\SVRT Experiment 3\svrt_images\generated_images\results_problem_14,,C:\Users\subject\Desktop\SVRT Experiments\SVRT Experiment 3\svrt_images\generated_images\results_problem_14\sample_1_0016.png,,,,,,,,,,,,,,,,,,,,,,0,1,1,1,0,8,8,8,,,,,,,,,,,,,,f,14,A,A,12,1,Correct!,0.8006800999864936,1337.7170065999962,None,1337.7170065999962,None,1338.5502286999836,None,,,,,47,001,2023-05-12_09h44.46.811,uncolored_shuffled,2021.2.3,60.00823313639041,
C:\Users\subject\Desktop\SVRT Experiments\SVRT Experiment 3\svrt_images\generated_images\results_problem_14,,C:\Users\subject\Desktop\SVRT Experiments\SVRT Experiment 3\svrt_images\generated_images\results_problem_14\sample_0_0009.png,,,,,,,,,,,,,,,,,,,,,,0,1,1,1,0,9,9,9,,,,,,,,,,,,,,f,14,A,B,12,0,Incorrect!,0.7569901999959257,1339.6168203999987,None,1339.6168203999987,None,1340.4001156000013,None,,,,,47,001,2023-05-12_09h44.46.811,uncolored_shuffled,2021.2.3,60.00823313639041,
C:\Users\subject\Desktop\SVRT Experiments\SVRT Experiment 3\svrt_images\generated_images\results_problem_14,,C:\Users\subject\Desktop\SVRT Experiments\SVRT Experiment 3\svrt_images\generated_images\results_problem_14\sample_1_0007.png,,,,,,,,,,,,,,,,,,,,,,0,1,1,1,0,10,10,10,,,,,,,,,,,,,,f,14,A,A,12,1,Correct!,48.7150629000098,1341.466535399988,None,1341.466535399988,None,1390.2135517999995,None,,,,,47,001,2023-05-12_09h44.46.811,uncolored_shuffled,2021.2.3,60.00823313639041,
C:\Users\subject\Desktop\SVRT Experiments\SVRT Experiment 3\svrt_images\generated_images\results_problem_14,,C:\Users\subject\Desktop\SVRT Experiments\SVRT Experiment 3\svrt_images\generated_images\results_problem_14\sample_1_0011.png,,,,,,,,,,,,,,,,,,,,,,0,1,1,1,0,11,11,11,,,,,,,,,,,,,,f,14,A,A,12,1,Correct!,2.740855499985628,1391.2968150999804,None,1391.2968150999804,None,1394.0632946999976,None,,,,,47,001,2023-05-12_09h44.46.811,uncolored_shuffled,2021.2.3,60.00823313639041,
C:\Users\subject\Desktop\SVRT Experiments\SVRT Experiment 3\svrt_images\generated_images\results_problem_14,,C:\Users\subject\Desktop\SVRT Experiments\SVRT Experiment 3\svrt_images\generated_images\results_problem_14\sample_1_0010.png,,,,,,,,,,,,,,,,,,,,,,0,1,1,1,0,12,12,12,,,,,,,,,,,,,,f,14,A,A,12,1,Correct!,1.5310670000035316,1395.146572699974,None,1395.146572699974,None,1396.6964753999782,None,,,,,47,001,2023-05-12_09h44.46.811,uncolored_shuffled,2021.2.3,60.00823313639041,
C:\Users\subject\Desktop\SVRT Experiments\SVRT Experiment 3\svrt_images\generated_images\results_problem_14,,C:\Users\subject\Desktop\SVRT Experiments\SVRT Experiment 3\svrt_images\generated_images\results_problem_14\sample_0_0002.png,,,,,,,,,,,,,,,,,,,,,,0,1,1,1,0,13,13,13,,,,,,,,,,,,,,j,14,B,B,12,1,Correct!,0.9126014999928884,1397.8130738999753,None,1397.8130738999753,None,1398.7465285999933,None,,,,,47,001,2023-05-12_09h44.46.811,uncolored_shuffled,2021.2.3,60.00823313639041,
C:\Users\subject\Desktop\SVRT Experiments\SVRT Experiment 3\svrt_images\generated_images\results_problem_14,,C:\Users\subject\Desktop\SVRT Experiments\SVRT Experiment 3\svrt_images\generated_images\results_problem_14\sample_0_0011.png,,,,,,,,,,,,,,,,,,,,,,0,1,1,1,0,14,14,14,,,,,,,,,,,,,,j,14,B,B,12,1,Correct!,0.7031431999930646,1399.8464553999947,None,1399.8464553999947,None,1400.596406799974,None,,,,,47,001,2023-05-12_09h44.46.811,uncolored_shuffled,2021.2.3,60.00823313639041,
C:\Users\subject\Desktop\SVRT Experiments\SVRT Experiment 3\svrt_images\generated_images\results_problem_14,,C:\Users\subject\Desktop\SVRT Experiments\SVRT Experiment 3\svrt_images\generated_images\results_problem_14\sample_0_0010.png,,,,,,,,,,,,,,,,,,,,,,0,1,1,1,0,15,15,15,,,,,,,,,,,,,,j,14,B,B,12,1,Correct!,0.7406116999918595,1401.7130324999744,None,1401.7130324999744,None,1402.4962956999952,None,,,,,47,001,2023-05-12_09h44.46.811,uncolored_shuffled,2021.2.3,60.00823313639041,
C:\Users\subject\Desktop\SVRT Experiments\SVRT Experiment 3\svrt_images\generated_images\results_problem_14,,C:\Users\subject\Desktop\SVRT Experiments\SVRT Experiment 3\svrt_images\generated_images\results_problem_14\sample_1_0013.png,,,,,,,,,,,,,,,,,,,,,,0,1,1,1,0,16,16,16,,,,,,,,,,,,,,j,14,B,A,12,0,Incorrect!,0.6802580999792553,1403.6294345999777,None,1403.6294345999777,None,1404.3462022999884,None,,,,,47,001,2023-05-12_09h44.46.811,uncolored_shuffled,2021.2.3,60.00823313639041,
C:\Users\subject\Desktop\SVRT Experiments\SVRT Experiment 3\svrt_images\generated_images\results_problem_14,,C:\Users\subject\Desktop\SVRT Experiments\SVRT Experiment 3\svrt_images\generated_images\results_problem_14\sample_1_0001.png,,,,,,,,,,,,,,,,,,,,,,0,1,1,1,0,17,17,17,,,,,,,,,,,,,,f,14,A,A,12,1,Correct!,0.7660362000169698,1405.479453899985,None,1405.479453899985,None,1406.262726099987,None,,,,,47,001,2023-05-12_09h44.46.811,uncolored_shuffled,2021.2.3,60.00823313639041,
C:\Users\subject\Desktop\SVRT Experiments\SVRT Experiment 3\svrt_images\generated_images\results_problem_14,,C:\Users\subject\Desktop\SVRT Experiments\SVRT Experiment 3\svrt_images\generated_images\results_problem_14\sample_0_0000.png,,,,,,,,,,,,,,,,,,,,,,0,1,1,1,0,18,18,18,,,,,,,,,,,,,,j,14,B,B,12,1,Correct!,0.8330448000051547,1407.4126999999862,None,1407.4126999999862,None,1408.2626227999863,None,,,,,47,001,2023-05-12_09h44.46.811,uncolored_shuffled,2021.2.3,60.00823313639041,
C:\Users\subject\Desktop\SVRT Experiments\SVRT Experiment 3\svrt_images\generated_images\results_problem_14,,C:\Users\subject\Desktop\SVRT Experiments\SVRT Experiment 3\svrt_images\generated_images\results_problem_14\sample_0_0014.png,,,,,,,,,,,,,,,,,,,,,,0,1,1,1,0,19,19,19,,,,,,,,,,,,,,j,14,B,B,12,1,Correct!,0.8811751000175718,1409.4124996999744,None,1409.4124996999744,None,1410.3291512999858,None,,,,,47,001,2023-05-12_09h44.46.811,uncolored_shuffled,2021.2.3,60.00823313639041,
C:\Users\subject\Desktop\SVRT Experiments\SVRT Experiment 3\svrt_images\generated_images\results_problem_14,,C:\Users\subject\Desktop\SVRT Experiments\SVRT Experiment 3\svrt_images\generated_images\results_problem_14\sample_0_0013.png,,,,,,,,,,,,,,,,,,,,,,0,1,1,1,0,20,20,20,,,,,,,,,,,,,,f,14,A,B,12,0,Incorrect!,1.1332298000052106,1411.5124162999855,None,1411.5124162999855,None,1412.662351899984,None,,,,,47,001,2023-05-12_09h44.46.811,uncolored_shuffled,2021.2.3,60.00823313639041,
C:\Users\subject\Desktop\SVRT Experiments\SVRT Experiment 3\svrt_images\generated_images\results_problem_14,,C:\Users\subject\Desktop\SVRT Experiments\SVRT Experiment 3\svrt_images\generated_images\results_problem_14\sample_1_0015.png,,,,,,,,,,,,,,,,,,,,,,0,1,1,1,0,21,21,21,,,,,,,,,,,,,,j,14,B,A,12,0,Incorrect!,1.2959840999974404,1413.8456525999936,None,1413.8456525999936,None,1415.162202699983,None,,,,,47,001,2023-05-12_09h44.46.811,uncolored_shuffled,2021.2.3,60.00823313639041,
C:\Users\subject\Desktop\SVRT Experiments\SVRT Experiment 3\svrt_images\generated_images\results_problem_14,,C:\Users\subject\Desktop\SVRT Experiments\SVRT Experiment 3\svrt_images\generated_images\results_problem_14\sample_0_0006.png,,,,,,,,,,,,,,,,,,,,,,0,1,1,1,0,22,22,22,,,,,,,,,,,,,,j,14,B,B,12,1,Correct!,0.7482214999909047,1416.3454200999986,None,1416.3454200999986,None,1417.1120749999827,None,,,,,47,001,2023-05-12_09h44.46.811,uncolored_shuffled,2021.2.3,60.00823313639041,
C:\Users\subject\Desktop\SVRT Experiments\SVRT Experiment 3\svrt_images\generated_images\results_problem_14,,C:\Users\subject\Desktop\SVRT Experiments\SVRT Experiment 3\svrt_images\generated_images\results_problem_14\sample_0_0003.png,,,,,,,,,,,,,,,,,,,,,,0,1,1,1,0,23,23,23,,,,,,,,,,,,,,j,14,B,B,12,1,Correct!,0.8456232000025921,1418.3120057999913,None,1418.3120057999913,None,1419.1786105999781,None,,,,,47,001,2023-05-12_09h44.46.811,uncolored_shuffled,2021.2.3,60.00823313639041,
C:\Users\subject\Desktop\SVRT Experiments\SVRT Experiment 3\svrt_images\generated_images\results_problem_14,,C:\Users\subject\Desktop\SVRT Experiments\SVRT Experiment 3\svrt_images\generated_images\results_problem_14\sample_0_0016.png,,,,,,,,,,,,,,,,,,,,,,0,1,1,1,0,24,24,24,,,,,,,,,,,,,,j,14,B,B,12,1,Correct!,0.9709526999795344,1420.3785547000007,None,1420.3785547000007,None,1421.395144399983,None,,,,,47,001,2023-05-12_09h44.46.811,uncolored_shuffled,2021.2.3,60.00823313639041,
C:\Users\subject\Desktop\SVRT Experiments\SVRT Experiment 3\svrt_images\generated_images\results_problem_14,,C:\Users\subject\Desktop\SVRT Experiments\SVRT Experiment 3\svrt_images\generated_images\results_problem_14\sample_0_0005.png,,,,,,,,,,,,,,,,,,,,,,0,1,1,1,0,25,25,25,,,,,,,,,,,,,,f,14,A,B,12,0,Incorrect!,0.609358899993822,1422.6282715999987,None,1422.6282715999987,None,1423.2950294999755,None,,,,,47,001,2023-05-12_09h44.46.811,uncolored_shuffled,2021.2.3,60.00823313639041,
C:\Users\subject\Desktop\SVRT Experiments\SVRT Experiment 3\svrt_images\generated_images\results_problem_14,,C:\Users\subject\Desktop\SVRT Experiments\SVRT Experiment 3\svrt_images\generated_images\results_problem_14\sample_1_0009.png,,,,,,,,,,,,,,,,,,,,,,0,1,1,1,0,26,26,26,,,,,,,,,,,,,,f,14,A,A,12,1,Correct!,0.8525588999909814,1424.5449543999857,None,1424.5449543999857,None,1425.4615940999938,None,,,,,47,001,2023-05-12_09h44.46.811,uncolored_shuffled,2021.2.3,60.00823313639041,
C:\Users\subject\Desktop\SVRT Experiments\SVRT Experiment 3\svrt_images\generated_images\results_problem_14,,C:\Users\subject\Desktop\SVRT Experiments\SVRT Experiment 3\svrt_images\generated_images\results_problem_14\sample_0_0008.png,,,,,,,,,,,,,,,,,,,,,,0,1,1,1,0,27,27,27,,,,,,,,,,,,,,j,14,B,B,12,1,Correct!,0.8940375000238419,1426.7114727000007,None,1426.7114727000007,None,1427.6447859999898,None,,,,,47,001,2023-05-12_09h44.46.811,uncolored_shuffled,2021.2.3,60.00823313639041,
C:\Users\subject\Desktop\SVRT Experiments\SVRT Experiment 3\svrt_images\generated_images\results_problem_14,,C:\Users\subject\Desktop\SVRT Experiments\SVRT Experiment 3\svrt_images\generated_images\results_problem_14\sample_1_0005.png,,,,,,,,,,,,,,,,,,,,,,0,1,1,1,0,28,28,28,,,,,,,,,,,,,,j,14,B,A,12,0,Incorrect!,2.943295200006105,1428.9822762999975,None,1428.9822762999975,None,1431.9944796999916,None,,,,,47,001,2023-05-12_09h44.46.811,uncolored_shuffled,2021.2.3,60.00823313639041,
C:\Users\subject\Desktop\SVRT Experiments\SVRT Experiment 3\svrt_images\generated_images\results_problem_14,,C:\Users\subject\Desktop\SVRT Experiments\SVRT Experiment 3\svrt_images\generated_images\results_problem_14\sample_1_0012.png,,,,,,,,,,,,,,,,,,,,,,0,1,1,1,0,29,29,29,,,,,,,,,,,,,,f,14,A,A,12,1,Correct!,0.7925738999911118,1433.2610991999973,None,1433.2610991999973,None,1434.0776935999747,None,,,,,47,001,2023-05-12_09h44.46.811,uncolored_shuffled,2021.2.3,60.00823313639041,
C:\Users\subject\Desktop\SVRT Experiments\SVRT Experiment 3\svrt_images\generated_images\results_problem_14,,C:\Users\subject\Desktop\SVRT Experiments\SVRT Experiment 3\svrt_images\generated_images\results_problem_14\sample_1_0000.png,,,,,,,,,,,,,,,,,,,,,,0,1,1,1,0,30,30,30,,,,,,,,,,,,,,f,14,A,A,12,1,Correct!,0.6620146000059322,1435.327623499994,None,1435.327623499994,None,1436.0109248999797,None,,,,,47,001,2023-05-12_09h44.46.811,uncolored_shuffled,2021.2.3,60.00823313639041,
C:\Users\subject\Desktop\SVRT Experiments\SVRT Experiment 3\svrt_images\generated_images\results_problem_14,,C:\Users\subject\Desktop\SVRT Experiments\SVRT Experiment 3\svrt_images\generated_images\results_problem_14\sample_1_0008.png,,,,,,,,,,,,,,,,,,,,,,0,1,1,1,0,31,31,31,,,,,,,,,,,,,,f,14,A,A,12,1,Correct!,0.8401111999992281,1437.2775207999803,None,1437.2775207999803,None,1438.160784399981,None,,,,,47,001,2023-05-12_09h44.46.811,uncolored_shuffled,2021.2.3,60.00823313639041,
C:\Users\subject\Desktop\SVRT Experiments\SVRT Experiment 3\svrt_images\generated_images\results_problem_14,,C:\Users\subject\Desktop\SVRT Experiments\SVRT Experiment 3\svrt_images\generated_images\results_problem_14\sample_0_0012.png,,,,,,,,,,,,,,,,,,,,,,0,1,1,1,0,32,32,32,,,,,,,,,,,,,,f,14,A,B,12,0,Incorrect!,0.5136050000146497,1439.4440393999976,None,1439.4440393999976,None,1439.9940072000027,None,,,,,47,001,2023-05-12_09h44.46.811,uncolored_shuffled,2021.2.3,60.00823313639041,
C:\Users\subject\Desktop\SVRT Experiments\SVRT Experiment 3\svrt_images\generated_images\results_problem_14,,C:\Users\subject\Desktop\SVRT Experiments\SVRT Experiment 3\svrt_images\generated_images\results_problem_14\sample_0_0001.png,,,,,,,,,,,,,,,,,,,,,,0,1,1,1,0,33,33,33,,,,,,,,,,,,,,j,14,B,B,12,1,Correct!,0.6796944999950938,1441.2939224999864,None,1441.2939224999864,None,1442.0605357000022,None,,,,,47,001,2023-05-12_09h44.46.811,uncolored_shuffled,2021.2.3,60.00823313639041,
C:\Users\subject\Desktop\SVRT Experiments\SVRT Experiment 3\svrt_images\generated_images\results_problem_14,,,,,,,,,,,,,,,,,,,,,,,,0,1,1,1,,,,,,,,,,,,,,,,,,,,,,,,,,,,,,,,1443.0604590000003,1443.0604590000003,space,1.488962100003846,47,001,2023-05-12_09h44.46.811,uncolored_shuffled,2021.2.3,60.00823313639041,
C:\Users\subject\Desktop\SVRT Experiments\SVRT Experiment 3\svrt_images\generated_images\results_problem_17,,,C:\Users\subject\Desktop\SVRT Experiments\SVRT Experiment 3\svrt_images\generated_images\results_problem_17\sample_1_0016.png,,,,,,,,,,,,,,,,,,,,,0,2,2,2,0,0,0,0,,,,,,,,,,,,,,j,17,B,A,12,0,Incorrect!,8.484480999992229,1444.5771022999834,None,1444.5771022999834,None,1453.0935632999754,None,,,,,47,001,2023-05-12_09h44.46.811,uncolored_shuffled,2021.2.3,60.00823313639041,
C:\Users\subject\Desktop\SVRT Experiments\SVRT Experiment 3\svrt_images\generated_images\results_problem_17,,,C:\Users\subject\Desktop\SVRT Experiments\SVRT Experiment 3\svrt_images\generated_images\results_problem_17\sample_1_0002.png,,,,,,,,,,,,,,,,,,,,,0,2,2,2,0,1,1,1,,,,,,,,,,,,,,f,17,A,A,12,1,Correct!,2.278600200021174,1454.1268255999894,None,1454.1268255999894,None,1456.426727299986,None,,,,,47,001,2023-05-12_09h44.46.811,uncolored_shuffled,2021.2.3,60.00823313639041,
C:\Users\subject\Desktop\SVRT Experiments\SVRT Experiment 3\svrt_images\generated_images\results_problem_17,,,C:\Users\subject\Desktop\SVRT Experiments\SVRT Experiment 3\svrt_images\generated_images\results_problem_17\sample_1_0006.png,,,,,,,,,,,,,,,,,,,,,0,2,2,2,0,2,2,2,,,,,,,,,,,,,,f,17,A,A,12,1,Correct!,0.7213375999999698,1457.4600796999875,None,1457.4600796999875,None,1458.2100406999816,None,,,,,47,001,2023-05-12_09h44.46.811,uncolored_shuffled,2021.2.3,60.00823313639041,
C:\Users\subject\Desktop\SVRT Experiments\SVRT Experiment 3\svrt_images\generated_images\results_problem_17,,,C:\Users\subject\Desktop\SVRT Experiments\SVRT Experiment 3\svrt_images\generated_images\results_problem_17\sample_0_0010.png,,,,,,,,,,,,,,,,,,,,,0,2,2,2,0,3,3,3,,,,,,,,,,,,,,f,17,A,B,12,0,Incorrect!,0.7295984999800567,1459.2599505999824,None,1459.2599505999824,None,1460.0098484999908,None,,,,,47,001,2023-05-12_09h44.46.811,uncolored_shuffled,2021.2.3,60.00823313639041,
C:\Users\subject\Desktop\SVRT Experiments\SVRT Experiment 3\svrt_images\generated_images\results_problem_17,,,C:\Users\subject\Desktop\SVRT Experiments\SVRT Experiment 3\svrt_images\generated_images\results_problem_17\sample_1_0015.png,,,,,,,,,,,,,,,,,,,,,0,2,2,2,0,4,4,4,,,,,,,,,,,,,,f,17,A,A,12,1,Correct!,3.2818155999993905,1461.0597828999744,None,1461.0597828999744,None,1464.3591927999805,None,,,,,47,001,2023-05-12_09h44.46.811,uncolored_shuffled,2021.2.3,60.00823313639041,
C:\Users\subject\Desktop\SVRT Experiments\SVRT Experiment 3\svrt_images\generated_images\results_problem_17,,,C:\Users\subject\Desktop\SVRT Experiments\SVRT Experiment 3\svrt_images\generated_images\results_problem_17\sample_0_0014.png,,,,,,,,,,,,,,,,,,,,,0,2,2,2,0,5,5,5,,,,,,,,,,,,,,j,17,B,B,12,1,Correct!,0.5810790000250563,1465.3924742999952,None,1465.3924742999952,None,1465.9927708999894,None,,,,,47,001,2023-05-12_09h44.46.811,uncolored_shuffled,2021.2.3,60.00823313639041,
C:\Users\subject\Desktop\SVRT Experiments\SVRT Experiment 3\svrt_images\generated_images\results_problem_17,,,C:\Users\subject\Desktop\SVRT Experiments\SVRT Experiment 3\svrt_images\generated_images\results_problem_17\sample_1_0012.png,,,,,,,,,,,,,,,,,,,,,0,2,2,2,0,6,6,6,,,,,,,,,,,,,,j,17,B,A,12,0,Incorrect!,0.6907873999734875,1467.0427313999971,None,1467.0427313999971,None,1467.758949399984,None,,,,,47,001,2023-05-12_09h44.46.811,uncolored_shuffled,2021.2.3,60.00823313639041,
C:\Users\subject\Desktop\SVRT Experiments\SVRT Experiment 3\svrt_images\generated_images\results_problem_17,,,C:\Users\subject\Desktop\SVRT Experiments\SVRT Experiment 3\svrt_images\generated_images\results_problem_17\sample_0_0006.png,,,,,,,,,,,,,,,,,,,,,0,2,2,2,0,7,7,7,,,,,,,,,,,,,,f,17,A,B,12,0,Incorrect!,7.179860600008396,1468.8255440999928,None,1468.8255440999928,None,1476.0251616000023,None,,,,,47,001,2023-05-12_09h44.46.811,uncolored_shuffled,2021.2.3,60.00823313639041,
C:\Users\subject\Desktop\SVRT Experiments\SVRT Experiment 3\svrt_images\generated_images\results_problem_17,,,C:\Users\subject\Desktop\SVRT Experiments\SVRT Experiment 3\svrt_images\generated_images\results_problem_17\sample_0_0011.png,,,,,,,,,,,,,,,,,,,,,0,2,2,2,0,8,8,8,,,,,,,,,,,,,,f,17,A,B,12,0,Incorrect!,9.313787899998715,1477.0917859999754,None,1477.0917859999754,None,1486.4245399999782,None,,,,,47,001,2023-05-12_09h44.46.811,uncolored_shuffled,2021.2.3,60.00823313639041,
C:\Users\subject\Desktop\SVRT Experiments\SVRT Experiment 3\svrt_images\generated_images\results_problem_17,,,C:\Users\subject\Desktop\SVRT Experiments\SVRT Experiment 3\svrt_images\generated_images\results_problem_17\sample_0_0013.png,,,,,,,,,,,,,,,,,,,,,0,2,2,2,0,9,9,9,,,,,,,,,,,,,,j,17,B,B,12,1,Correct!,0.770414799975697,1487.4911459999857,None,1487.4911459999857,None,1488.291097999987,None,,,,,47,001,2023-05-12_09h44.46.811,uncolored_shuffled,2021.2.3,60.00823313639041,
C:\Users\subject\Desktop\SVRT Experiments\SVRT Experiment 3\svrt_images\generated_images\results_problem_17,,,C:\Users\subject\Desktop\SVRT Experiments\SVRT Experiment 3\svrt_images\generated_images\results_problem_17\sample_1_0003.png,,,,,,,,,,,,,,,,,,,,,0,2,2,2,0,10,10,10,,,,,,,,,,,,,,j,17,B,A,12,0,Incorrect!,0.8231351000140421,1489.3743659000029,None,1489.3743659000029,None,1490.224312699982,None,,,,,47,001,2023-05-12_09h44.46.811,uncolored_shuffled,2021.2.3,60.00823313639041,
C:\Users\subject\Desktop\SVRT Experiments\SVRT Experiment 3\svrt_images\generated_images\results_problem_17,,,C:\Users\subject\Desktop\SVRT Experiments\SVRT Experiment 3\svrt_images\generated_images\results_problem_17\sample_0_0003.png,,,,,,,,,,,,,,,,,,,,,0,2,2,2,0,11,11,11,,,,,,,,,,,,,,f,17,A,B,12,0,Incorrect!,0.8099373000150081,1491.3075814999756,None,1491.3075814999756,None,1492.1408583000011,None,,,,,47,001,2023-05-12_09h44.46.811,uncolored_shuffled,2021.2.3,60.00823313639041,
C:\Users\subject\Desktop\SVRT Experiments\SVRT Experiment 3\svrt_images\generated_images\results_problem_17,,,C:\Users\subject\Desktop\SVRT Experiments\SVRT Experiment 3\svrt_images\generated_images\results_problem_17\sample_1_0014.png,,,,,,,,,,,,,,,,,,,,,0,2,2,2,0,12,12,12,,,,,,,,,,,,,,f,17,A,A,12,1,Correct!,1.773247299977811,1493.2241318000015,None,1493.2241318000015,None,1495.0238347999984,None,,,,,47,001,2023-05-12_09h44.46.811,uncolored_shuffled,2021.2.3,60.00823313639041,
C:\Users\subject\Desktop\SVRT Experiments\SVRT Experiment 3\svrt_images\generated_images\results_problem_17,,,C:\Users\subject\Desktop\SVRT Experiments\SVRT Experiment 3\svrt_images\generated_images\results_problem_17\sample_0_0001.png,,,,,,,,,,,,,,,,,,,,,0,2,2,2,0,13,13,13,,,,,,,,,,,,,,f,17,A,B,12,0,Incorrect!,9.337729999999283,1496.1237735999748,None,1496.1237735999748,None,1505.4898503999866,None,,,,,47,001,2023-05-12_09h44.46.811,uncolored_shuffled,2021.2.3,60.00823313639041,
C:\Users\subject\Desktop\SVRT Experiments\SVRT Experiment 3\svrt_images\generated_images\results_problem_17,,,C:\Users\subject\Desktop\SVRT Experiments\SVRT Experiment 3\svrt_images\generated_images\results_problem_17\sample_0_0007.png,,,,,,,,,,,,,,,,,,,,,0,2,2,2,0,14,14,14,,,,,,,,,,,,,,j,17,B,B,12,1,Correct!,0.9197557999868877,1506.5897950999788,None,1506.5897950999788,None,1507.5399225,None,,,,,47,001,2023-05-12_09h44.46.811,uncolored_shuffled,2021.2.3,60.00823313639041,
C:\Users\subject\Desktop\SVRT Experiments\SVRT Experiment 3\svrt_images\generated_images\results_problem_17,,,C:\Users\subject\Desktop\SVRT Experiments\SVRT Experiment 3\svrt_images\generated_images\results_problem_17\sample_1_0001.png,,,,,,,,,,,,,,,,,,,,,0,2,2,2,0,15,15,15,,,,,,,,,,,,,,j,17,B,A,12,0,Incorrect!,2.948981699999422,1508.6565255000023,None,1508.6565255000023,None,1511.6396680999896,None,,,,,47,001,2023-05-12_09h44.46.811,uncolored_shuffled,2021.2.3,60.00823313639041,
C:\Users\subject\Desktop\SVRT Experiments\SVRT Experiment 3\svrt_images\generated_images\results_problem_17,,,C:\Users\subject\Desktop\SVRT Experiments\SVRT Experiment 3\svrt_images\generated_images\results_problem_17\sample_0_0004.png,,,,,,,,,,,,,,,,,,,,,0,2,2,2,0,16,16,16,,,,,,,,,,,,,,f,17,A,B,12,0,Incorrect!,7.296497000003001,1512.7729551999946,None,1512.7729551999946,None,1520.089185299992,None,,,,,47,001,2023-05-12_09h44.46.811,uncolored_shuffled,2021.2.3,60.00823313639041,
C:\Users\subject\Desktop\SVRT Experiments\SVRT Experiment 3\svrt_images\generated_images\results_problem_17,,,C:\Users\subject\Desktop\SVRT Experiments\SVRT Experiment 3\svrt_images\generated_images\results_problem_17\sample_0_0002.png,,,,,,,,,,,,,,,,,,,,,0,2,2,2,0,17,17,17,,,,,,,,,,,,,,j,17,B,B,12,1,Correct!,1.727114299981622,1521.2224504999758,None,1521.2224504999758,None,1522.972334399994,None,,,,,47,001,2023-05-12_09h44.46.811,uncolored_shuffled,2021.2.3,60.00823313639041,
C:\Users\subject\Desktop\SVRT Experiments\SVRT Experiment 3\svrt_images\generated_images\results_problem_17,,,C:\Users\subject\Desktop\SVRT Experiments\SVRT Experiment 3\svrt_images\generated_images\results_problem_17\sample_1_0000.png,,,,,,,,,,,,,,,,,,,,,0,2,2,2,0,18,18,18,,,,,,,,,,,,,,j,17,B,A,12,0,Incorrect!,2.667274500010535,1524.1222695999895,None,1524.1222695999895,None,1526.8387598999834,None,,,,,47,001,2023-05-12_09h44.46.811,uncolored_shuffled,2021.2.3,60.00823313639041,
C:\Users\subject\Desktop\SVRT Experiments\SVRT Experiment 3\svrt_images\generated_images\results_problem_17,,,C:\Users\subject\Desktop\SVRT Experiments\SVRT Experiment 3\svrt_images\generated_images\results_problem_17\sample_1_0007.png,,,,,,,,,,,,,,,,,,,,,0,2,2,2,0,19,19,19,,,,,,,,,,,,,,j,17,B,A,12,0,Incorrect!,7.840155700017931,1528.0053610999894,None,1528.0053610999894,None,1535.8882080999902,None,,,,,47,001,2023-05-12_09h44.46.811,uncolored_shuffled,2021.2.3,60.00823313639041,
C:\Users\subject\Desktop\SVRT Experiments\SVRT Experiment 3\svrt_images\generated_images\results_problem_17,,,C:\Users\subject\Desktop\SVRT Experiments\SVRT Experiment 3\svrt_images\generated_images\results_problem_17\sample_0_0012.png,,,,,,,,,,,,,,,,,,,,,0,2,2,2,0,20,20,20,,,,,,,,,,,,,,j,17,B,B,12,1,Correct!,1.1746098999865353,1537.0548231999855,None,1537.0548231999855,None,1538.271479499992,None,,,,,47,001,2023-05-12_09h44.46.811,uncolored_shuffled,2021.2.3,60.00823313639041,
C:\Users\subject\Desktop\SVRT Experiments\SVRT Experiment 3\svrt_images\generated_images\results_problem_17,,,C:\Users\subject\Desktop\SVRT Experiments\SVRT Experiment 3\svrt_images\generated_images\results_problem_17\sample_1_0009.png,,,,,,,,,,,,,,,,,,,,,0,2,2,2,0,21,21,21,,,,,,,,,,,,,,f,17,A,A,12,1,Correct!,10.950691600010032,1539.4546677999897,None,1539.4546677999897,None,1550.4373260999855,None,,,,,47,001,2023-05-12_09h44.46.811,uncolored_shuffled,2021.2.3,60.00823313639041,
C:\Users\subject\Desktop\SVRT Experiments\SVRT Experiment 3\svrt_images\generated_images\results_problem_17,,,C:\Users\subject\Desktop\SVRT Experiments\SVRT Experiment 3\svrt_images\generated_images\results_problem_17\sample_0_0008.png,,,,,,,,,,,,,,,,,,,,,0,2,2,2,0,22,22,22,,,,,,,,,,,,,,f,17,A,B,12,0,Incorrect!,1.1849164000013843,1551.6205949999858,None,1551.6205949999858,None,1552.837172999978,None,,,,,47,001,2023-05-12_09h44.46.811,uncolored_shuffled,2021.2.3,60.00823313639041,
C:\Users\subject\Desktop\SVRT Experiments\SVRT Experiment 3\svrt_images\generated_images\results_problem_17,,,C:\Users\subject\Desktop\SVRT Experiments\SVRT Experiment 3\svrt_images\generated_images\results_problem_17\sample_1_0008.png,,,,,,,,,,,,,,,,,,,,,0,2,2,2,0,23,23,23,,,,,,,,,,,,,,f,17,A,A,12,1,Correct!,9.18484879998141,1554.020441999979,None,1554.020441999979,None,1563.2365575000003,None,,,,,47,001,2023-05-12_09h44.46.811,uncolored_shuffled,2021.2.3,60.00823313639041,
C:\Users\subject\Desktop\SVRT Experiments\SVRT Experiment 3\svrt_images\generated_images\results_problem_17,,,C:\Users\subject\Desktop\SVRT Experiments\SVRT Experiment 3\svrt_images\generated_images\results_problem_17\sample_1_0005.png,,,,,,,,,,,,,,,,,,,,,0,2,2,2,0,24,24,24,,,,,,,,,,,,,,f,17,A,A,12,1,Correct!,3.9528319999808446,1564.4364920999797,None,1564.4364920999797,None,1568.4529075999744,None,,,,,47,001,2023-05-12_09h44.46.811,uncolored_shuffled,2021.2.3,60.00823313639041,
C:\Users\subject\Desktop\SVRT Experiments\SVRT Experiment 3\svrt_images\generated_images\results_problem_17,,,C:\Users\subject\Desktop\SVRT Experiments\SVRT Experiment 3\svrt_images\generated_images\results_problem_17\sample_0_0009.png,,,,,,,,,,,,,,,,,,,,,0,2,2,2,0,25,25,25,,,,,,,,,,,,,,j,17,B,B,12,1,Correct!,0.719885600003181,1569.6694942999748,None,1569.6694942999748,None,1570.4361237999983,None,,,,,47,001,2023-05-12_09h44.46.811,uncolored_shuffled,2021.2.3,60.00823313639041,
C:\Users\subject\Desktop\SVRT Experiments\SVRT Experiment 3\svrt_images\generated_images\results_problem_17,,,C:\Users\subject\Desktop\SVRT Experiments\SVRT Experiment 3\svrt_images\generated_images\results_problem_17\sample_0_0005.png,,,,,,,,,,,,,,,,,,,,,0,2,2,2,0,26,26,26,,,,,,,,,,,,,,j,17,B,B,12,1,Correct!,1.6158694000041578,1571.6694024999742,None,1571.6694024999742,None,1573.3359549999877,None,,,,,47,001,2023-05-12_09h44.46.811,uncolored_shuffled,2021.2.3,60.00823313639041,
C:\Users\subject\Desktop\SVRT Experiments\SVRT Experiment 3\svrt_images\generated_images\results_problem_17,,,C:\Users\subject\Desktop\SVRT Experiments\SVRT Experiment 3\svrt_images\generated_images\results_problem_17\sample_1_0010.png,,,,,,,,,,,,,,,,,,,,,0,2,2,2,0,27,27,27,,,,,,,,,,,,,,j,17,B,A,12,0,Incorrect!,3.7882086999888998,1574.569210799993,None,1574.569210799993,None,1578.4023141999787,None,,,,,47,001,2023-05-12_09h44.46.811,uncolored_shuffled,2021.2.3,60.00823313639041,
C:\Users\subject\Desktop\SVRT Experiments\SVRT Experiment 3\svrt_images\generated_images\results_problem_17,,,C:\Users\subject\Desktop\SVRT Experiments\SVRT Experiment 3\svrt_images\generated_images\results_problem_17\sample_0_0000.png,,,,,,,,,,,,,,,,,,,,,0,2,2,2,0,28,28,28,,,,,,,,,,,,,,j,17,B,B,12,1,Correct!,0.8170974999957252,1579.6522403999988,None,1579.6522403999988,None,1580.5355096999847,None,,,,,47,001,2023-05-12_09h44.46.811,uncolored_shuffled,2021.2.3,60.00823313639041,
C:\Users\subject\Desktop\SVRT Experiments\SVRT Experiment 3\svrt_images\generated_images\results_problem_17,,,C:\Users\subject\Desktop\SVRT Experiments\SVRT Experiment 3\svrt_images\generated_images\results_problem_17\sample_1_0011.png,,,,,,,,,,,,,,,,,,,,,0,2,2,2,0,29,29,29,,,,,,,,,,,,,,f,17,A,A,12,1,Correct!,0.7159133999957703,1581.7854737000016,None,1581.7854737000016,None,1582.5353516999749,None,,,,,47,001,2023-05-12_09h44.46.811,uncolored_shuffled,2021.2.3,60.00823313639041,
C:\Users\subject\Desktop\SVRT Experiments\SVRT Experiment 3\svrt_images\generated_images\results_problem_17,,,C:\Users\subject\Desktop\SVRT Experiments\SVRT Experiment 3\svrt_images\generated_images\results_problem_17\sample_1_0013.png,,,,,,,,,,,,,,,,,,,,,0,2,2,2,0,30,30,30,,,,,,,,,,,,,,f,17,A,A,12,1,Correct!,0.6994115999841597,1583.802017799986,None,1583.802017799986,None,1584.5519295999839,None,,,,,47,001,2023-05-12_09h44.46.811,uncolored_shuffled,2021.2.3,60.00823313639041,
C:\Users\subject\Desktop\SVRT Experiments\SVRT Experiment 3\svrt_images\generated_images\results_problem_17,,,C:\Users\subject\Desktop\SVRT Experiments\SVRT Experiment 3\svrt_images\generated_images\results_problem_17\sample_0_0015.png,,,,,,,,,,,,,,,,,,,,,0,2,2,2,0,31,31,31,,,,,,,,,,,,,,j,17,B,B,12,1,Correct!,3.1459790999942925,1585.8351896999811,None,1585.8351896999811,None,1589.0016417999868,None,,,,,47,001,2023-05-12_09h44.46.811,uncolored_shuffled,2021.2.3,60.00823313639041,
C:\Users\subject\Desktop\SVRT Experiments\SVRT Experiment 3\svrt_images\generated_images\results_problem_17,,,C:\Users\subject\Desktop\SVRT Experiments\SVRT Experiment 3\svrt_images\generated_images\results_problem_17\sample_1_0004.png,,,,,,,,,,,,,,,,,,,,,0,2,2,2,0,32,32,32,,,,,,,,,,,,,,f,17,A,A,12,1,Correct!,1.7195698999857996,1590.3016953999759,None,1590.3016953999759,None,1592.1014530999819,None,,,,,47,001,2023-05-12_09h44.46.811,uncolored_shuffled,2021.2.3,60.00823313639041,
C:\Users\subject\Desktop\SVRT Experiments\SVRT Experiment 3\svrt_images\generated_images\results_problem_17,,,C:\Users\subject\Desktop\SVRT Experiments\SVRT Experiment 3\svrt_images\generated_images\results_problem_17\sample_0_0016.png,,,,,,,,,,,,,,,,,,,,,0,2,2,2,0,33,33,33,,,,,,,,,,,,,,j,17,B,B,12,1,Correct!,1.0990297000098508,1593.4180941999948,None,1593.4180941999948,None,1594.601331199985,None,,,,,47,001,2023-05-12_09h44.46.811,uncolored_shuffled,2021.2.3,60.00823313639041,
C:\Users\subject\Desktop\SVRT Experiments\SVRT Experiment 3\svrt_images\generated_images\results_problem_17,,,,,,,,,,,,,,,,,,,,,,,,0,2,2,2,,,,,,,,,,,,,,,,,,,,,,,,,,,,,,,,1595.6012723999738,1595.6012723999738,space,0.9639192000031471,47,001,2023-05-12_09h44.46.811,uncolored_shuffled,2021.2.3,60.00823313639041,
C:\Users\subject\Desktop\SVRT Experiments\SVRT Experiment 3\svrt_images\generated_images\results_problem_13,,,,C:\Users\subject\Desktop\SVRT Experiments\SVRT Experiment 3\svrt_images\generated_images\results_problem_13\sample_0_0002.png,,,,,,,,,,,,,,,,,,,,0,3,3,3,0,0,0,0,,,,,,,,,,,,,,f,13,A,B,12,0,Incorrect!,4.171891699981643,1596.6013084999868,None,1596.6013084999868,None,1600.800952599995,None,,,,,47,001,2023-05-12_09h44.46.811,uncolored_shuffled,2021.2.3,60.00823313639041,
C:\Users\subject\Desktop\SVRT Experiments\SVRT Experiment 3\svrt_images\generated_images\results_problem_13,,,,C:\Users\subject\Desktop\SVRT Experiments\SVRT Experiment 3\svrt_images\generated_images\results_problem_13\sample_1_0009.png,,,,,,,,,,,,,,,,,,,,0,3,3,3,0,1,1,1,,,,,,,,,,,,,,j,13,B,A,12,0,Incorrect!,3.851648899988504,1601.8175413999998,None,1601.8175413999998,None,1605.7007024999766,None,,,,,47,001,2023-05-12_09h44.46.811,uncolored_shuffled,2021.2.3,60.00823313639041,
C:\Users\subject\Desktop\SVRT Experiments\SVRT Experiment 3\svrt_images\generated_images\results_problem_13,,,,C:\Users\subject\Desktop\SVRT Experiments\SVRT Experiment 3\svrt_images\generated_images\results_problem_13\sample_0_0012.png,,,,,,,,,,,,,,,,,,,,0,3,3,3,0,2,2,2,,,,,,,,,,,,,,f,13,A,B,12,0,Incorrect!,2.7761118999915197,1606.7170578999794,None,1606.7170578999794,None,1609.5171360999811,None,,,,,47,001,2023-05-12_09h44.46.811,uncolored_shuffled,2021.2.3,60.00823313639041,
C:\Users\subject\Desktop\SVRT Experiments\SVRT Experiment 3\svrt_images\generated_images\results_problem_13,,,,C:\Users\subject\Desktop\SVRT Experiments\SVRT Experiment 3\svrt_images\generated_images\results_problem_13\sample_0_0004.png,,,,,,,,,,,,,,,,,,,,0,3,3,3,0,3,3,3,,,,,,,,,,,,,,f,13,A,B,12,0,Incorrect!,1.2147266999818385,1610.5504044999834,None,1610.5504044999834,None,1611.783663099981,None,,,,,47,001,2023-05-12_09h44.46.811,uncolored_shuffled,2021.2.3,60.00823313639041,
C:\Users\subject\Desktop\SVRT Experiments\SVRT Experiment 3\svrt_images\generated_images\results_problem_13,,,,C:\Users\subject\Desktop\SVRT Experiments\SVRT Experiment 3\svrt_images\generated_images\results_problem_13\sample_1_0008.png,,,,,,,,,,,,,,,,,,,,0,3,3,3,0,4,4,4,,,,,,,,,,,,,,f,13,A,A,12,1,Correct!,1.6201884999754839,1612.8169195999799,None,1612.8169195999799,None,1614.4667764999904,None,,,,,47,001,2023-05-12_09h44.46.811,uncolored_shuffled,2021.2.3,60.00823313639041,
C:\Users\subject\Desktop\SVRT Experiments\SVRT Experiment 3\svrt_images\generated_images\results_problem_13,,,,C:\Users\subject\Desktop\SVRT Experiments\SVRT Experiment 3\svrt_images\generated_images\results_problem_13\sample_1_0011.png,,,,,,,,,,,,,,,,,,,,0,3,3,3,0,5,5,5,,,,,,,,,,,,,,j,13,B,A,12,0,Incorrect!,12.408411799988244,1615.5167783999932,None,1615.5167783999932,None,1627.9493394999881,None,,,,,47,001,2023-05-12_09h44.46.811,uncolored_shuffled,2021.2.3,60.00823313639041,
C:\Users\subject\Desktop\SVRT Experiments\SVRT Experiment 3\svrt_images\generated_images\results_problem_13,,,,C:\Users\subject\Desktop\SVRT Experiments\SVRT Experiment 3\svrt_images\generated_images\results_problem_13\sample_1_0010.png,,,,,,,,,,,,,,,,,,,,0,3,3,3,0,6,6,6,,,,,,,,,,,,,,f,13,A,A,12,1,Correct!,0.8460993000189774,1628.9992778000014,None,1628.9992778000014,None,1629.8658960999746,None,,,,,47,001,2023-05-12_09h44.46.811,uncolored_shuffled,2021.2.3,60.00823313639041,
C:\Users\subject\Desktop\SVRT Experiments\SVRT Experiment 3\svrt_images\generated_images\results_problem_13,,,,C:\Users\subject\Desktop\SVRT Experiments\SVRT Experiment 3\svrt_images\generated_images\results_problem_13\sample_1_0006.png,,,,,,,,,,,,,,,,,,,,0,3,3,3,0,7,7,7,,,,,,,,,,,,,,f,13,A,A,12,1,Correct!,3.2654265000019222,1630.9157991999818,None,1630.9157991999818,None,1634.1989704000007,None,,,,,47,001,2023-05-12_09h44.46.811,uncolored_shuffled,2021.2.3,60.00823313639041,
C:\Users\subject\Desktop\SVRT Experiments\SVRT Experiment 3\svrt_images\generated_images\results_problem_13,,,,C:\Users\subject\Desktop\SVRT Experiments\SVRT Experiment 3\svrt_images\generated_images\results_problem_13\sample_1_0012.png,,,,,,,,,,,,,,,,,,,,0,3,3,3,0,8,8,8,,,,,,,,,,,,,,f,13,A,A,12,1,Correct!,3.523080500017386,1635.2662734999903,None,1635.2662734999903,None,1638.8153631000023,None,,,,,47,001,2023-05-12_09h44.46.811,uncolored_shuffled,2021.2.3,60.00823313639041,
C:\Users\subject\Desktop\SVRT Experiments\SVRT Experiment 3\svrt_images\generated_images\results_problem_13,,,,C:\Users\subject\Desktop\SVRT Experiments\SVRT Experiment 3\svrt_images\generated_images\results_problem_13\sample_0_0010.png,,,,,,,,,,,,,,,,,,,,0,3,3,3,0,9,9,9,,,,,,,,,,,,,,j,13,B,B,12,1,Correct!,0.7953322999819648,1639.8819803999795,None,1639.8819803999795,None,1640.6985945999913,None,,,,,47,001,2023-05-12_09h44.46.811,uncolored_shuffled,2021.2.3,60.00823313639041,
C:\Users\subject\Desktop\SVRT Experiments\SVRT Experiment 3\svrt_images\generated_images\results_problem_13,,,,C:\Users\subject\Desktop\SVRT Experiments\SVRT Experiment 3\svrt_images\generated_images\results_problem_13\sample_1_0005.png,,,,,,,,,,,,,,,,,,,,0,3,3,3,0,10,10,10,,,,,,,,,,,,,,j,13,B,A,12,0,Incorrect!,0.575453400000697,1641.781865899975,None,1641.781865899975,None,1642.381824399985,None,,,,,47,001,2023-05-12_09h44.46.811,uncolored_shuffled,2021.2.3,60.00823313639041,
C:\Users\subject\Desktop\SVRT Experiments\SVRT Experiment 3\svrt_images\generated_images\results_problem_13,,,,C:\Users\subject\Desktop\SVRT Experiments\SVRT Experiment 3\svrt_images\generated_images\results_problem_13\sample_0_0005.png,,,,,,,,,,,,,,,,,,,,0,3,3,3,0,11,11,11,,,,,,,,,,,,,,f,13,A,B,12,0,Incorrect!,8.12423950000084,1643.4650995999982,None,1643.4650995999982,None,1651.6144152999914,None,,,,,47,001,2023-05-12_09h44.46.811,uncolored_shuffled,2021.2.3,60.00823313639041,
C:\Users\subject\Desktop\SVRT Experiments\SVRT Experiment 3\svrt_images\generated_images\results_problem_13,,,,C:\Users\subject\Desktop\SVRT Experiments\SVRT Experiment 3\svrt_images\generated_images\results_problem_13\sample_1_0004.png,,,,,,,,,,,,,,,,,,,,0,3,3,3,0,12,12,12,,,,,,,,,,,,,,j,13,B,A,12,0,Incorrect!,9.546730900008697,1652.7145493999997,None,1652.7145493999997,None,1662.280454599997,None,,,,,47,001,2023-05-12_09h44.46.811,uncolored_shuffled,2021.2.3,60.00823313639041,
C:\Users\subject\Desktop\SVRT Experiments\SVRT Experiment 3\svrt_images\generated_images\results_problem_13,,,,C:\Users\subject\Desktop\SVRT Experiments\SVRT Experiment 3\svrt_images\generated_images\results_problem_13\sample_1_0002.png,,,,,,,,,,,,,,,,,,,,0,3,3,3,0,13,13,13,,,,,,,,,,,,,,f,13,A,A,12,1,Correct!,11.456836900004419,1663.3803904999804,None,1663.3803904999804,None,1674.8630325999984,None,,,,,47,001,2023-05-12_09h44.46.811,uncolored_shuffled,2021.2.3,60.00823313639041,
C:\Users\subject\Desktop\SVRT Experiments\SVRT Experiment 3\svrt_images\generated_images\results_problem_13,,,,C:\Users\subject\Desktop\SVRT Experiments\SVRT Experiment 3\svrt_images\generated_images\results_problem_13\sample_1_0016.png,,,,,,,,,,,,,,,,,,,,0,3,3,3,0,14,14,14,,,,,,,,,,,,,,f,13,A,A,12,1,Correct!,1.2102804000023752,1675.9629743999976,None,1675.9629743999976,None,1677.2130597999785,None,,,,,47,001,2023-05-12_09h44.46.811,uncolored_shuffled,2021.2.3,60.00823313639041,
C:\Users\subject\Desktop\SVRT Experiments\SVRT Experiment 3\svrt_images\generated_images\results_problem_13,,,,C:\Users\subject\Desktop\SVRT Experiments\SVRT Experiment 3\svrt_images\generated_images\results_problem_13\sample_0_0015.png,,,,,,,,,,,,,,,,,,,,0,3,3,3,0,15,15,15,,,,,,,,,,,,,,j,13,B,B,12,1,Correct!,3.194946000003256,1678.3463403999922,None,1678.3463403999922,None,1681.5628227999841,None,,,,,47,001,2023-05-12_09h44.46.811,uncolored_shuffled,2021.2.3,60.00823313639041,
C:\Users\subject\Desktop\SVRT Experiments\SVRT Experiment 3\svrt_images\generated_images\results_problem_13,,,,C:\Users\subject\Desktop\SVRT Experiments\SVRT Experiment 3\svrt_images\generated_images\results_problem_13\sample_1_0001.png,,,,,,,,,,,,,,,,,,,,0,3,3,3,0,16,16,16,,,,,,,,,,,,,,f,13,A,A,12,1,Correct!,4.653175599989481,1682.6960954999959,None,1682.6960954999959,None,1687.3791290999798,None,,,,,47,001,2023-05-12_09h44.46.811,uncolored_shuffled,2021.2.3,60.00823313639041,
C:\Users\subject\Desktop\SVRT Experiments\SVRT Experiment 3\svrt_images\generated_images\results_problem_13,,,,C:\Users\subject\Desktop\SVRT Experiments\SVRT Experiment 3\svrt_images\generated_images\results_problem_13\sample_0_0016.png,,,,,,,,,,,,,,,,,,,,0,3,3,3,0,17,17,17,,,,,,,,,,,,,,j,13,B,B,12,1,Correct!,3.380235399992671,1688.5290677000012,None,1688.5290677000012,None,1691.9455273999774,None,,,,,47,001,2023-05-12_09h44.46.811,uncolored_shuffled,2021.2.3,60.00823313639041,
C:\Users\subject\Desktop\SVRT Experiments\SVRT Experiment 3\svrt_images\generated_images\results_problem_13,,,,C:\Users\subject\Desktop\SVRT Experiments\SVRT Experiment 3\svrt_images\generated_images\results_problem_13\sample_1_0015.png,,,,,,,,,,,,,,,,,,,,0,3,3,3,0,18,18,18,,,,,,,,,,,,,,f,13,A,A,12,1,Correct!,3.2777704000181984,1693.095455499977,None,1693.095455499977,None,1696.4119336000003,None,,,,,47,001,2023-05-12_09h44.46.811,uncolored_shuffled,2021.2.3,60.00823313639041,
C:\Users\subject\Desktop\SVRT Experiments\SVRT Experiment 3\svrt_images\generated_images\results_problem_13,,,,C:\Users\subject\Desktop\SVRT Experiments\SVRT Experiment 3\svrt_images\generated_images\results_problem_13\sample_0_0006.png,,,,,,,,,,,,,,,,,,,,0,3,3,3,0,19,19,19,,,,,,,,,,,,,,j,13,B,B,12,1,Correct!,7.050740699982271,1697.578571399994,None,1697.578571399994,None,1704.6614434999938,None,,,,,47,001,2023-05-12_09h44.46.811,uncolored_shuffled,2021.2.3,60.00823313639041,
C:\Users\subject\Desktop\SVRT Experiments\SVRT Experiment 3\svrt_images\generated_images\results_problem_13,,,,C:\Users\subject\Desktop\SVRT Experiments\SVRT Experiment 3\svrt_images\generated_images\results_problem_13\sample_1_0007.png,,,,,,,,,,,,,,,,,,,,0,3,3,3,0,20,20,20,,,,,,,,,,,,,,,,,,,,,,,,,,,,1705.6613881999801,1705.6613881999801,space,0.8398644000117201,47,001,2023-05-12_09h44.46.811,uncolored_shuffled,2021.2.3,60.00823313639041,
C:\Users\subject\Desktop\SVRT Experiments\SVRT Experiment 3\svrt_images\generated_images\results_problem_12,,,,C:\Users\subject\Desktop\SVRT Experiments\SVRT Experiment 3\svrt_images\generated_images\results_problem_13\sample_1_0007.png,C:\Users\subject\Desktop\SVRT Experiments\SVRT Experiment 3\svrt_images\generated_images\results_problem_12\sample_1_0002.png,,,,,,,,,,,,,,,,,,,0,4,4,4,0,0,0,0,,,,,,,,,,,,,,f,12,A,A,12,1,Correct!,2.6293944000208285,1706.5278146999772,None,1706.5278146999772,None,1709.1778379000025,None,,,,,47,001,2023-05-12_09h44.46.811,uncolored_shuffled,2021.2.3,60.00823313639041,
C:\Users\subject\Desktop\SVRT Experiments\SVRT Experiment 3\svrt_images\generated_images\results_problem_12,,,,C:\Users\subject\Desktop\SVRT Experiments\SVRT Experiment 3\svrt_images\generated_images\results_problem_13\sample_1_0007.png,C:\Users\subject\Desktop\SVRT Experiments\SVRT Experiment 3\svrt_images\generated_images\results_problem_12\sample_1_0016.png,,,,,,,,,,,,,,,,,,,0,4,4,4,0,1,1,1,,,,,,,,,,,,,,j,12,B,A,12,0,Incorrect!,1.9545241000014357,1710.194648899982,None,1710.194648899982,None,1712.1778526999988,None,,,,,47,001,2023-05-12_09h44.46.811,uncolored_shuffled,2021.2.3,60.00823313639041,
C:\Users\subject\Desktop\SVRT Experiments\SVRT Experiment 3\svrt_images\generated_images\results_problem_12,,,,C:\Users\subject\Desktop\SVRT Experiments\SVRT Experiment 3\svrt_images\generated_images\results_problem_13\sample_1_0007.png,C:\Users\subject\Desktop\SVRT Experiments\SVRT Experiment 3\svrt_images\generated_images\results_problem_12\sample_0_0010.png,,,,,,,,,,,,,,,,,,,0,4,4,4,0,2,2,2,,,,,,,,,,,,,,f,12,A,B,12,0,Incorrect!,3.5779955000034533,1713.2112278999994,None,1713.2112278999994,None,1716.8110127999971,None,,,,,47,001,2023-05-12_09h44.46.811,uncolored_shuffled,2021.2.3,60.00823313639041,
C:\Users\subject\Desktop\SVRT Experiments\SVRT Experiment 3\svrt_images\generated_images\results_problem_12,,,,C:\Users\subject\Desktop\SVRT Experiments\SVRT Experiment 3\svrt_images\generated_images\results_problem_13\sample_1_0007.png,C:\Users\subject\Desktop\SVRT Experiments\SVRT Experiment 3\svrt_images\generated_images\results_problem_12\sample_1_0008.png,,,,,,,,,,,,,,,,,,,0,4,4,4,0,3,3,3,,,,,,,,,,,,,,f,12,A,A,12,1,Correct!,2.22417190001579,1717.8609856999828,None,1717.8609856999828,None,1720.110931299976,None,,,,,47,001,2023-05-12_09h44.46.811,uncolored_shuffled,2021.2.3,60.00823313639041,
C:\Users\subject\Desktop\SVRT Experiments\SVRT Experiment 3\svrt_images\generated_images\results_problem_12,,,,C:\Users\subject\Desktop\SVRT Experiments\SVRT Experiment 3\svrt_images\generated_images\results_problem_13\sample_1_0007.png,C:\Users\subject\Desktop\SVRT Experiments\SVRT Experiment 3\svrt_images\generated_images\results_problem_12\sample_1_0011.png,,,,,,,,,,,,,,,,,,,0,4,4,4,0,4,4,4,,,,,,,,,,,,,,f,12,A,A,12,1,Correct!,2.6364540999929886,1721.1608321999956,None,1721.1608321999956,None,1723.8269563999784,None,,,,,47,001,2023-05-12_09h44.46.811,uncolored_shuffled,2021.2.3,60.00823313639041,
C:\Users\subject\Desktop\SVRT Experiments\SVRT Experiment 3\svrt_images\generated_images\results_problem_12,,,,C:\Users\subject\Desktop\SVRT Experiments\SVRT Experiment 3\svrt_images\generated_images\results_problem_13\sample_1_0007.png,C:\Users\subject\Desktop\SVRT Experiments\SVRT Experiment 3\svrt_images\generated_images\results_problem_12\sample_1_0014.png,,,,,,,,,,,,,,,,,,,0,4,4,4,0,5,5,5,,,,,,,,,,,,,,f,12,A,A,12,1,Correct!,1.6563443999912124,1724.8768828999891,None,1724.8768828999891,None,1726.5601016999863,None,,,,,47,001,2023-05-12_09h44.46.811,uncolored_shuffled,2021.2.3,60.00823313639041,
C:\Users\subject\Desktop\SVRT Experiments\SVRT Experiment 3\svrt_images\generated_images\results_problem_12,,,,C:\Users\subject\Desktop\SVRT Experiments\SVRT Experiment 3\svrt_images\generated_images\results_problem_13\sample_1_0007.png,C:\Users\subject\Desktop\SVRT Experiments\SVRT Experiment 3\svrt_images\generated_images\results_problem_12\sample_1_0009.png,,,,,,,,,,,,,,,,,,,0,4,4,4,0,6,6,6,,,,,,,,,,,,,,f,12,A,A,12,1,Correct!,1.2585025999869686,1727.6267107999884,None,1727.6267107999884,None,1728.9099319999805,None,,,,,47,001,2023-05-12_09h44.46.811,uncolored_shuffled,2021.2.3,60.00823313639041,
C:\Users\subject\Desktop\SVRT Experiments\SVRT Experiment 3\svrt_images\generated_images\results_problem_12,,,,C:\Users\subject\Desktop\SVRT Experiments\SVRT Experiment 3\svrt_images\generated_images\results_problem_13\sample_1_0007.png,C:\Users\subject\Desktop\SVRT Experiments\SVRT Experiment 3\svrt_images\generated_images\results_problem_12\sample_0_0003.png,,,,,,,,,,,,,,,,,,,0,4,4,4,0,7,7,7,,,,,,,,,,,,,,j,12,B,B,12,1,Correct!,1.1311898999847472,1729.9780083999794,None,1729.9780083999794,None,1731.1264150999777,None,,,,,47,001,2023-05-12_09h44.46.811,uncolored_shuffled,2021.2.3,60.00823313639041,
C:\Users\subject\Desktop\SVRT Experiments\SVRT Experiment 3\svrt_images\generated_images\results_problem_12,,,,C:\Users\subject\Desktop\SVRT Experiments\SVRT Experiment 3\svrt_images\generated_images\results_problem_13\sample_1_0007.png,C:\Users\subject\Desktop\SVRT Experiments\SVRT Experiment 3\svrt_images\generated_images\results_problem_12\sample_1_0010.png,,,,,,,,,,,,,,,,,,,0,4,4,4,0,8,8,8,,,,,,,,,,,,,,f,12,A,A,12,1,Correct!,5.012138599995524,1732.1930280999804,None,1732.1930280999804,None,1737.2261666999839,None,,,,,47,001,2023-05-12_09h44.46.811,uncolored_shuffled,2021.2.3,60.00823313639041,
C:\Users\subject\Desktop\SVRT Experiments\SVRT Experiment 3\svrt_images\generated_images\results_problem_12,,,,C:\Users\subject\Desktop\SVRT Experiments\SVRT Experiment 3\svrt_images\generated_images\results_problem_13\sample_1_0007.png,C:\Users\subject\Desktop\SVRT Experiments\SVRT Experiment 3\svrt_images\generated_images\results_problem_12\sample_0_0002.png,,,,,,,,,,,,,,,,,,,0,4,4,4,0,9,9,9,,,,,,,,,,,,,,j,12,B,B,12,1,Correct!,1.8563717000070028,1738.2927812999988,None,1738.2927812999988,None,1740.1759918999742,None,,,,,47,001,2023-05-12_09h44.46.811,uncolored_shuffled,2021.2.3,60.00823313639041,
C:\Users\subject\Desktop\SVRT Experiments\SVRT Experiment 3\svrt_images\generated_images\results_problem_12,,,,C:\Users\subject\Desktop\SVRT Experiments\SVRT Experiment 3\svrt_images\generated_images\results_problem_13\sample_1_0007.png,C:\Users\subject\Desktop\SVRT Experiments\SVRT Experiment 3\svrt_images\generated_images\results_problem_12\sample_1_0007.png,,,,,,,,,,,,,,,,,,,0,4,4,4,0,10,10,10,,,,,,,,,,,,,,,,,,,,,,,,,,,,1741.1759317999822,1741.1759317999822,space,1.3412605999910738,47,001,2023-05-12_09h44.46.811,uncolored_shuffled,2021.2.3,60.00823313639041,
C:\Users\subject\Desktop\SVRT Experiments\SVRT Experiment 3\svrt_images\generated_images\results_problem_23,,,,C:\Users\subject\Desktop\SVRT Experiments\SVRT Experiment 3\svrt_images\generated_images\results_problem_13\sample_1_0007.png,C:\Users\subject\Desktop\SVRT Experiments\SVRT Experiment 3\svrt_images\generated_images\results_problem_12\sample_1_0007.png,C:\Users\subject\Desktop\SVRT Experiments\SVRT Experiment 3\svrt_images\generated_images\results_problem_23\sample_0_0009.png,,,,,,,,,,,,,,,,,,0,5,5,5,0,0,0,0,,,,,,,,,,,,,,j,23,B,B,12,1,Correct!,5.429792000009911,1742.5591917999845,None,1742.5591917999845,None,1748.0088657999877,None,,,,,47,001,2023-05-12_09h44.46.811,uncolored_shuffled,2021.2.3,60.00823313639041,
C:\Users\subject\Desktop\SVRT Experiments\SVRT Experiment 3\svrt_images\generated_images\results_problem_23,,,,C:\Users\subject\Desktop\SVRT Experiments\SVRT Experiment 3\svrt_images\generated_images\results_problem_13\sample_1_0007.png,C:\Users\subject\Desktop\SVRT Experiments\SVRT Experiment 3\svrt_images\generated_images\results_problem_12\sample_1_0007.png,C:\Users\subject\Desktop\SVRT Experiments\SVRT Experiment 3\svrt_images\generated_images\results_problem_23\sample_1_0010.png,,,,,,,,,,,,,,,,,,0,5,5,5,0,1,1,1,,,,,,,,,,,,,,f,23,A,A,12,1,Correct!,1.0749977999948896,1749.0421336999862,None,1749.0421336999862,None,1750.1420670999796,None,,,,,47,001,2023-05-12_09h44.46.811,uncolored_shuffled,2021.2.3,60.00823313639041,
C:\Users\subject\Desktop\SVRT Experiments\SVRT Experiment 3\svrt_images\generated_images\results_problem_23,,,,C:\Users\subject\Desktop\SVRT Experiments\SVRT Experiment 3\svrt_images\generated_images\results_problem_13\sample_1_0007.png,C:\Users\subject\Desktop\SVRT Experiments\SVRT Experiment 3\svrt_images\generated_images\results_problem_12\sample_1_0007.png,C:\Users\subject\Desktop\SVRT Experiments\SVRT Experiment 3\svrt_images\generated_images\results_problem_23\sample_1_0016.png,,,,,,,,,,,,,,,,,,0,5,5,5,0,2,2,2,,,,,,,,,,,,,,f,23,A,A,12,1,Correct!,1.981662200007122,1751.1753411999962,None,1751.1753411999962,None,1753.1751722999907,None,,,,,47,001,2023-05-12_09h44.46.811,uncolored_shuffled,2021.2.3,60.00823313639041,
C:\Users\subject\Desktop\SVRT Experiments\SVRT Experiment 3\svrt_images\generated_images\results_problem_23,,,,C:\Users\subject\Desktop\SVRT Experiments\SVRT Experiment 3\svrt_images\generated_images\results_problem_13\sample_1_0007.png,C:\Users\subject\Desktop\SVRT Experiments\SVRT Experiment 3\svrt_images\generated_images\results_problem_12\sample_1_0007.png,C:\Users\subject\Desktop\SVRT Experiments\SVRT Experiment 3\svrt_images\generated_images\results_problem_23\sample_1_0013.png,,,,,,,,,,,,,,,,,,0,5,5,5,0,3,3,3,,,,,,,,,,,,,,f,23,A,A,12,1,Correct!,1.0118855999899097,1754.2253110999882,None,1754.2253110999882,None,1755.258609899989,None,,,,,47,001,2023-05-12_09h44.46.811,uncolored_shuffled,2021.2.3,60.00823313639041,
C:\Users\subject\Desktop\SVRT Experiments\SVRT Experiment 3\svrt_images\generated_images\results_problem_23,,,,C:\Users\subject\Desktop\SVRT Experiments\SVRT Experiment 3\svrt_images\generated_images\results_problem_13\sample_1_0007.png,C:\Users\subject\Desktop\SVRT Experiments\SVRT Experiment 3\svrt_images\generated_images\results_problem_12\sample_1_0007.png,C:\Users\subject\Desktop\SVRT Experiments\SVRT Experiment 3\svrt_images\generated_images\results_problem_23\sample_0_0001.png,,,,,,,,,,,,,,,,,,0,5,5,5,0,4,4,4,,,,,,,,,,,,,,f,23,A,B,12,0,Incorrect!,0.5126370000070892,1756.3085291999741,None,1756.3085291999741,None,1756.8418070999905,None,,,,,47,001,2023-05-12_09h44.46.811,uncolored_shuffled,2021.2.3,60.00823313639041,
C:\Users\subject\Desktop\SVRT Experiments\SVRT Experiment 3\svrt_images\generated_images\results_problem_23,,,,C:\Users\subject\Desktop\SVRT Experiments\SVRT Experiment 3\svrt_images\generated_images\results_problem_13\sample_1_0007.png,C:\Users\subject\Desktop\SVRT Experiments\SVRT Experiment 3\svrt_images\generated_images\results_problem_12\sample_1_0007.png,C:\Users\subject\Desktop\SVRT Experiments\SVRT Experiment 3\svrt_images\generated_images\results_problem_23\sample_0_0008.png,,,,,,,,,,,,,,,,,,0,5,5,5,0,5,5,5,,,,,,,,,,,,,,j,23,B,B,12,1,Correct!,6.5124668999924324,1757.908463699976,None,1757.908463699976,None,1764.4411111999943,None,,,,,47,001,2023-05-12_09h44.46.811,uncolored_shuffled,2021.2.3,60.00823313639041,
C:\Users\subject\Desktop\SVRT Experiments\SVRT Experiment 3\svrt_images\generated_images\results_problem_23,,,,C:\Users\subject\Desktop\SVRT Experiments\SVRT Experiment 3\svrt_images\generated_images\results_problem_13\sample_1_0007.png,C:\Users\subject\Desktop\SVRT Experiments\SVRT Experiment 3\svrt_images\generated_images\results_problem_12\sample_1_0007.png,C:\Users\subject\Desktop\SVRT Experiments\SVRT Experiment 3\svrt_images\generated_images\results_problem_23\sample_0_0005.png,,,,,,,,,,,,,,,,,,0,5,5,5,0,6,6,6,,,,,,,,,,,,,,j,23,B,B,12,1,Correct!,0.8653754999977536,1765.5077334999805,None,1765.5077334999805,None,1766.3912813999923,None,,,,,47,001,2023-05-12_09h44.46.811,uncolored_shuffled,2021.2.3,60.00823313639041,
C:\Users\subject\Desktop\SVRT Experiments\SVRT Experiment 3\svrt_images\generated_images\results_problem_23,,,,C:\Users\subject\Desktop\SVRT Experiments\SVRT Experiment 3\svrt_images\generated_images\results_problem_13\sample_1_0007.png,C:\Users\subject\Desktop\SVRT Experiments\SVRT Experiment 3\svrt_images\generated_images\results_problem_12\sample_1_0007.png,C:\Users\subject\Desktop\SVRT Experiments\SVRT Experiment 3\svrt_images\generated_images\results_problem_23\sample_0_0010.png,,,,,,,,,,,,,,,,,,0,5,5,5,0,7,7,7,,,,,,,,,,,,,,f,23,A,B,12,0,Incorrect!,0.72357619999093,1767.4576106999884,None,1767.4576106999884,None,1768.207479899982,None,,,,,47,001,2023-05-12_09h44.46.811,uncolored_shuffled,2021.2.3,60.00823313639041,
C:\Users\subject\Desktop\SVRT Experiments\SVRT Experiment 3\svrt_images\generated_images\results_problem_23,,,,C:\Users\subject\Desktop\SVRT Experiments\SVRT Experiment 3\svrt_images\generated_images\results_problem_13\sample_1_0007.png,C:\Users\subject\Desktop\SVRT Experiments\SVRT Experiment 3\svrt_images\generated_images\results_problem_12\sample_1_0007.png,C:\Users\subject\Desktop\SVRT Experiments\SVRT Experiment 3\svrt_images\generated_images\results_problem_23\sample_0_0013.png,,,,,,,,,,,,,,,,,,0,5,5,5,0,8,8,8,,,,,,,,,,,,,,j,23,B,B,12,1,Correct!,1.8820023000007495,1769.2909243999748,None,1769.2909243999748,None,1771.1908079999848,None,,,,,47,001,2023-05-12_09h44.46.811,uncolored_shuffled,2021.2.3,60.00823313639041,
C:\Users\subject\Desktop\SVRT Experiments\SVRT Experiment 3\svrt_images\generated_images\results_problem_23,,,,C:\Users\subject\Desktop\SVRT Experiments\SVRT Experiment 3\svrt_images\generated_images\results_problem_13\sample_1_0007.png,C:\Users\subject\Desktop\SVRT Experiments\SVRT Experiment 3\svrt_images\generated_images\results_problem_12\sample_1_0007.png,C:\Users\subject\Desktop\SVRT Experiments\SVRT Experiment 3\svrt_images\generated_images\results_problem_23\sample_0_0003.png,,,,,,,,,,,,,,,,,,0,5,5,5,0,9,9,9,,,,,,,,,,,,,,j,23,B,B,12,1,Correct!,0.6277166999934707,1772.2574591999874,None,1772.2574591999874,None,1772.9073761999898,None,,,,,47,001,2023-05-12_09h44.46.811,uncolored_shuffled,2021.2.3,60.00823313639041,
C:\Users\subject\Desktop\SVRT Experiments\SVRT Experiment 3\svrt_images\generated_images\results_problem_23,,,,C:\Users\subject\Desktop\SVRT Experiments\SVRT Experiment 3\svrt_images\generated_images\results_problem_13\sample_1_0007.png,C:\Users\subject\Desktop\SVRT Experiments\SVRT Experiment 3\svrt_images\generated_images\results_problem_12\sample_1_0007.png,C:\Users\subject\Desktop\SVRT Experiments\SVRT Experiment 3\svrt_images\generated_images\results_problem_23\sample_1_0015.png,,,,,,,,,,,,,,,,,,0,5,5,5,0,10,10,10,,,,,,,,,,,,,,f,23,A,A,12,1,Correct!,2.1264401999942493,1773.9906353999977,None,1773.9906353999977,None,1776.1403342999984,None,,,,,47,001,2023-05-12_09h44.46.811,uncolored_shuffled,2021.2.3,60.00823313639041,
C:\Users\subject\Desktop\SVRT Experiments\SVRT Experiment 3\svrt_images\generated_images\results_problem_23,,,,C:\Users\subject\Desktop\SVRT Experiments\SVRT Experiment 3\svrt_images\generated_images\results_problem_13\sample_1_0007.png,C:\Users\subject\Desktop\SVRT Experiments\SVRT Experiment 3\svrt_images\generated_images\results_problem_12\sample_1_0007.png,C:\Users\subject\Desktop\SVRT Experiments\SVRT Experiment 3\svrt_images\generated_images\results_problem_23\sample_0_0006.png,,,,,,,,,,,,,,,,,,0,5,5,5,0,11,11,11,,,,,,,,,,,,,,j,23,B,B,12,1,Correct!,2.9893687999865506,1777.2236012999783,None,1777.2236012999783,None,1780.2401032999915,None,,,,,47,001,2023-05-12_09h44.46.811,uncolored_shuffled,2021.2.3,60.00823313639041,
C:\Users\subject\Desktop\SVRT Experiments\SVRT Experiment 3\svrt_images\generated_images\results_problem_23,,,,C:\Users\subject\Desktop\SVRT Experiments\SVRT Experiment 3\svrt_images\generated_images\results_problem_13\sample_1_0007.png,C:\Users\subject\Desktop\SVRT Experiments\SVRT Experiment 3\svrt_images\generated_images\results_problem_12\sample_1_0007.png,C:\Users\subject\Desktop\SVRT Experiments\SVRT Experiment 3\svrt_images\generated_images\results_problem_23\sample_0_0012.png,,,,,,,,,,,,,,,,,,0,5,5,5,0,12,12,12,,,,,,,,,,,,,,j,23,B,B,12,1,Correct!,0.8090392000158317,1781.3400223999924,None,1781.3400223999924,None,1782.1734932999825,None,,,,,47,001,2023-05-12_09h44.46.811,uncolored_shuffled,2021.2.3,60.00823313639041,
C:\Users\subject\Desktop\SVRT Experiments\SVRT Experiment 3\svrt_images\generated_images\results_problem_23,,,,C:\Users\subject\Desktop\SVRT Experiments\SVRT Experiment 3\svrt_images\generated_images\results_problem_13\sample_1_0007.png,C:\Users\subject\Desktop\SVRT Experiments\SVRT Experiment 3\svrt_images\generated_images\results_problem_12\sample_1_0007.png,C:\Users\subject\Desktop\SVRT Experiments\SVRT Experiment 3\svrt_images\generated_images\results_problem_23\sample_0_0002.png,,,,,,,,,,,,,,,,,,0,5,5,5,0,13,13,13,,,,,,,,,,,,,,j,23,B,B,12,1,Correct!,2.475606500025606,1783.273420499987,None,1783.273420499987,None,1785.7730887999933,None,,,,,47,001,2023-05-12_09h44.46.811,uncolored_shuffled,2021.2.3,60.00823313639041,
C:\Users\subject\Desktop\SVRT Experiments\SVRT Experiment 3\svrt_images\generated_images\results_problem_23,,,,C:\Users\subject\Desktop\SVRT Experiments\SVRT Experiment 3\svrt_images\generated_images\results_problem_13\sample_1_0007.png,C:\Users\subject\Desktop\SVRT Experiments\SVRT Experiment 3\svrt_images\generated_images\results_problem_12\sample_1_0007.png,C:\Users\subject\Desktop\SVRT Experiments\SVRT Experiment 3\svrt_images\generated_images\results_problem_23\sample_1_0011.png,,,,,,,,,,,,,,,,,,0,5,5,5,0,14,14,14,,,,,,,,,,,,,,f,23,A,A,12,1,Correct!,5.275391999981366,1786.8896784999815,None,1786.8896784999815,None,1792.1895455999766,None,,,,,47,001,2023-05-12_09h44.46.811,uncolored_shuffled,2021.2.3,60.00823313639041,
C:\Users\subject\Desktop\SVRT Experiments\SVRT Experiment 3\svrt_images\generated_images\results_problem_23,,,,C:\Users\subject\Desktop\SVRT Experiments\SVRT Experiment 3\svrt_images\generated_images\results_problem_13\sample_1_0007.png,C:\Users\subject\Desktop\SVRT Experiments\SVRT Experiment 3\svrt_images\generated_images\results_problem_12\sample_1_0007.png,C:\Users\subject\Desktop\SVRT Experiments\SVRT Experiment 3\svrt_images\generated_images\results_problem_23\sample_0_0015.png,,,,,,,,,,,,,,,,,,0,5,5,5,0,15,15,15,,,,,,,,,,,,,,,,,,,,,,,,,,,,1793.1894784999895,1793.1894784999895,space,1.2315944000147283,47,001,2023-05-12_09h44.46.811,uncolored_shuffled,2021.2.3,60.00823313639041,
C:\Users\subject\Desktop\SVRT Experiments\SVRT Experiment 3\svrt_images\generated_images\results_problem_3,,,,C:\Users\subject\Desktop\SVRT Experiments\SVRT Experiment 3\svrt_images\generated_images\results_problem_13\sample_1_0007.png,C:\Users\subject\Desktop\SVRT Experiments\SVRT Experiment 3\svrt_images\generated_images\results_problem_12\sample_1_0007.png,C:\Users\subject\Desktop\SVRT Experiments\SVRT Experiment 3\svrt_images\generated_images\results_problem_23\sample_0_0015.png,C:\Users\subject\Desktop\SVRT Experiments\SVRT Experiment 3\svrt_images\generated_images\results_problem_3\sample_1_0000.png,,,,,,,,,,,,,,,,,0,6,6,6,0,0,0,0,,,,,,,,,,,,,,f,3,A,A,12,1,Correct!,3.2128766999812797,1794.4560788999952,None,1794.4560788999952,None,1797.689188599994,None,,,,,47,001,2023-05-12_09h44.46.811,uncolored_shuffled,2021.2.3,60.00823313639041,
C:\Users\subject\Desktop\SVRT Experiments\SVRT Experiment 3\svrt_images\generated_images\results_problem_3,,,,C:\Users\subject\Desktop\SVRT Experiments\SVRT Experiment 3\svrt_images\generated_images\results_problem_13\sample_1_0007.png,C:\Users\subject\Desktop\SVRT Experiments\SVRT Experiment 3\svrt_images\generated_images\results_problem_12\sample_1_0007.png,C:\Users\subject\Desktop\SVRT Experiments\SVRT Experiment 3\svrt_images\generated_images\results_problem_23\sample_0_0015.png,C:\Users\subject\Desktop\SVRT Experiments\SVRT Experiment 3\svrt_images\generated_images\results_problem_3\sample_1_0002.png,,,,,,,,,,,,,,,,,0,6,6,6,0,1,1,1,,,,,,,,,,,,,,j,3,B,A,12,0,Incorrect!,1.0113088999933098,1798.7058126999764,None,1798.7058126999764,None,1799.739092599979,None,,,,,47,001,2023-05-12_09h44.46.811,uncolored_shuffled,2021.2.3,60.00823313639041,
C:\Users\subject\Desktop\SVRT Experiments\SVRT Experiment 3\svrt_images\generated_images\results_problem_3,,,,C:\Users\subject\Desktop\SVRT Experiments\SVRT Experiment 3\svrt_images\generated_images\results_problem_13\sample_1_0007.png,C:\Users\subject\Desktop\SVRT Experiments\SVRT Experiment 3\svrt_images\generated_images\results_problem_12\sample_1_0007.png,C:\Users\subject\Desktop\SVRT Experiments\SVRT Experiment 3\svrt_images\generated_images\results_problem_23\sample_0_0015.png,C:\Users\subject\Desktop\SVRT Experiments\SVRT Experiment 3\svrt_images\generated_images\results_problem_3\sample_0_0002.png,,,,,,,,,,,,,,,,,0,6,6,6,0,2,2,2,,,,,,,,,,,,,,j,3,B,B,12,1,Correct!,1.0725663999910466,1800.7723808999872,None,1800.7723808999872,None,1801.8723010999965,None,,,,,47,001,2023-05-12_09h44.46.811,uncolored_shuffled,2021.2.3,60.00823313639041,
C:\Users\subject\Desktop\SVRT Experiments\SVRT Experiment 3\svrt_images\generated_images\results_problem_3,,,,C:\Users\subject\Desktop\SVRT Experiments\SVRT Experiment 3\svrt_images\generated_images\results_problem_13\sample_1_0007.png,C:\Users\subject\Desktop\SVRT Experiments\SVRT Experiment 3\svrt_images\generated_images\results_problem_12\sample_1_0007.png,C:\Users\subject\Desktop\SVRT Experiments\SVRT Experiment 3\svrt_images\generated_images\results_problem_23\sample_0_0015.png,C:\Users\subject\Desktop\SVRT Experiments\SVRT Experiment 3\svrt_images\generated_images\results_problem_3\sample_0_0006.png,,,,,,,,,,,,,,,,,0,6,6,6,0,3,3,3,,,,,,,,,,,,,,j,3,B,B,12,1,Correct!,2.5227426000055857,1802.9223236999824,None,1802.9223236999824,None,1805.4720747999963,None,,,,,47,001,2023-05-12_09h44.46.811,uncolored_shuffled,2021.2.3,60.00823313639041,
C:\Users\subject\Desktop\SVRT Experiments\SVRT Experiment 3\svrt_images\generated_images\results_problem_3,,,,C:\Users\subject\Desktop\SVRT Experiments\SVRT Experiment 3\svrt_images\generated_images\results_problem_13\sample_1_0007.png,C:\Users\subject\Desktop\SVRT Experiments\SVRT Experiment 3\svrt_images\generated_images\results_problem_12\sample_1_0007.png,C:\Users\subject\Desktop\SVRT Experiments\SVRT Experiment 3\svrt_images\generated_images\results_problem_23\sample_0_0015.png,C:\Users\subject\Desktop\SVRT Experiments\SVRT Experiment 3\svrt_images\generated_images\results_problem_3\sample_0_0009.png,,,,,,,,,,,,,,,,,0,6,6,6,0,4,4,4,,,,,,,,,,,,,,j,3,B,B,12,1,Correct!,1.3708863999927416,1806.5220193999994,None,1806.5220193999994,None,1807.9219444999762,None,,,,,47,001,2023-05-12_09h44.46.811,uncolored_shuffled,2021.2.3,60.00823313639041,
C:\Users\subject\Desktop\SVRT Experiments\SVRT Experiment 3\svrt_images\generated_images\results_problem_3,,,,C:\Users\subject\Desktop\SVRT Experiments\SVRT Experiment 3\svrt_images\generated_images\results_problem_13\sample_1_0007.png,C:\Users\subject\Desktop\SVRT Experiments\SVRT Experiment 3\svrt_images\generated_images\results_problem_12\sample_1_0007.png,C:\Users\subject\Desktop\SVRT Experiments\SVRT Experiment 3\svrt_images\generated_images\results_problem_23\sample_0_0015.png,C:\Users\subject\Desktop\SVRT Experiments\SVRT Experiment 3\svrt_images\generated_images\results_problem_3\sample_0_0011.png,,,,,,,,,,,,,,,,,0,6,6,6,0,5,5,5,,,,,,,,,,,,,,j,3,B,B,12,1,Correct!,0.9371415000059642,1808.9719181999972,None,1808.9719181999972,None,1809.9384844999877,None,,,,,47,001,2023-05-12_09h44.46.811,uncolored_shuffled,2021.2.3,60.00823313639041,
C:\Users\subject\Desktop\SVRT Experiments\SVRT Experiment 3\svrt_images\generated_images\results_problem_3,,,,C:\Users\subject\Desktop\SVRT Experiments\SVRT Experiment 3\svrt_images\generated_images\results_problem_13\sample_1_0007.png,C:\Users\subject\Desktop\SVRT Experiments\SVRT Experiment 3\svrt_images\generated_images\results_problem_12\sample_1_0007.png,C:\Users\subject\Desktop\SVRT Experiments\SVRT Experiment 3\svrt_images\generated_images\results_problem_23\sample_0_0015.png,C:\Users\subject\Desktop\SVRT Experiments\SVRT Experiment 3\svrt_images\generated_images\results_problem_3\sample_1_0013.png,,,,,,,,,,,,,,,,,0,6,6,6,0,6,6,6,,,,,,,,,,,,,,f,3,A,A,12,1,Correct!,1.0804716999991797,1810.9884245999856,None,1810.9884245999856,None,1812.0883685000008,None,,,,,47,001,2023-05-12_09h44.46.811,uncolored_shuffled,2021.2.3,60.00823313639041,
C:\Users\subject\Desktop\SVRT Experiments\SVRT Experiment 3\svrt_images\generated_images\results_problem_3,,,,C:\Users\subject\Desktop\SVRT Experiments\SVRT Experiment 3\svrt_images\generated_images\results_problem_13\sample_1_0007.png,C:\Users\subject\Desktop\SVRT Experiments\SVRT Experiment 3\svrt_images\generated_images\results_problem_12\sample_1_0007.png,C:\Users\subject\Desktop\SVRT Experiments\SVRT Experiment 3\svrt_images\generated_images\results_problem_23\sample_0_0015.png,C:\Users\subject\Desktop\SVRT Experiments\SVRT Experiment 3\svrt_images\generated_images\results_problem_3\sample_1_0012.png,,,,,,,,,,,,,,,,,0,6,6,6,0,7,7,7,,,,,,,,,,,,,,f,3,A,A,12,1,Correct!,0.7860510000027716,1813.1549840999942,None,1813.1549840999942,None,1813.9715840999852,None,,,,,47,001,2023-05-12_09h44.46.811,uncolored_shuffled,2021.2.3,60.00823313639041,
C:\Users\subject\Desktop\SVRT Experiments\SVRT Experiment 3\svrt_images\generated_images\results_problem_3,,,,C:\Users\subject\Desktop\SVRT Experiments\SVRT Experiment 3\svrt_images\generated_images\results_problem_13\sample_1_0007.png,C:\Users\subject\Desktop\SVRT Experiments\SVRT Experiment 3\svrt_images\generated_images\results_problem_12\sample_1_0007.png,C:\Users\subject\Desktop\SVRT Experiments\SVRT Experiment 3\svrt_images\generated_images\results_problem_23\sample_0_0015.png,C:\Users\subject\Desktop\SVRT Experiments\SVRT Experiment 3\svrt_images\generated_images\results_problem_3\sample_1_0016.png,,,,,,,,,,,,,,,,,0,6,6,6,0,8,8,8,,,,,,,,,,,,,,f,3,A,A,12,1,Correct!,0.6788984000158962,1815.0381942999957,None,1815.0381942999957,None,1815.7381488999818,None,,,,,47,001,2023-05-12_09h44.46.811,uncolored_shuffled,2021.2.3,60.00823313639041,
C:\Users\subject\Desktop\SVRT Experiments\SVRT Experiment 3\svrt_images\generated_images\results_problem_3,,,,C:\Users\subject\Desktop\SVRT Experiments\SVRT Experiment 3\svrt_images\generated_images\results_problem_13\sample_1_0007.png,C:\Users\subject\Desktop\SVRT Experiments\SVRT Experiment 3\svrt_images\generated_images\results_problem_12\sample_1_0007.png,C:\Users\subject\Desktop\SVRT Experiments\SVRT Experiment 3\svrt_images\generated_images\results_problem_23\sample_0_0015.png,C:\Users\subject\Desktop\SVRT Experiments\SVRT Experiment 3\svrt_images\generated_images\results_problem_3\sample_0_0007.png,,,,,,,,,,,,,,,,,0,6,6,6,0,9,9,9,,,,,,,,,,,,,,,,,,,,,,,,,,,,1816.7380888999905,1816.7380888999905,space,0.8029258999740705,47,001,2023-05-12_09h44.46.811,uncolored_shuffled,2021.2.3,60.00823313639041,
C:\Users\subject\Desktop\SVRT Experiments\SVRT Experiment 3\svrt_images\generated_images\results_problem_2,,,,C:\Users\subject\Desktop\SVRT Experiments\SVRT Experiment 3\svrt_images\generated_images\results_problem_13\sample_1_0007.png,C:\Users\subject\Desktop\SVRT Experiments\SVRT Experiment 3\svrt_images\generated_images\results_problem_12\sample_1_0007.png,C:\Users\subject\Desktop\SVRT Experiments\SVRT Experiment 3\svrt_images\generated_images\results_problem_23\sample_0_0015.png,C:\Users\subject\Desktop\SVRT Experiments\SVRT Experiment 3\svrt_images\generated_images\results_problem_3\sample_0_0007.png,C:\Users\subject\Desktop\SVRT Experiments\SVRT Experiment 3\svrt_images\generated_images\results_problem_2\sample_0_0003.png,,,,,,,,,,,,,,,,0,7,7,7,0,0,0,0,,,,,,,,,,,,,,f,2,A,B,12,0,Incorrect!,7.2335552999866195,1817.5713785999978,None,1817.5713785999978,None,1824.8379299999797,None,,,,,47,001,2023-05-12_09h44.46.811,uncolored_shuffled,2021.2.3,60.00823313639041,
C:\Users\subject\Desktop\SVRT Experiments\SVRT Experiment 3\svrt_images\generated_images\results_problem_2,,,,C:\Users\subject\Desktop\SVRT Experiments\SVRT Experiment 3\svrt_images\generated_images\results_problem_13\sample_1_0007.png,C:\Users\subject\Desktop\SVRT Experiments\SVRT Experiment 3\svrt_images\generated_images\results_problem_12\sample_1_0007.png,C:\Users\subject\Desktop\SVRT Experiments\SVRT Experiment 3\svrt_images\generated_images\results_problem_23\sample_0_0015.png,C:\Users\subject\Desktop\SVRT Experiments\SVRT Experiment 3\svrt_images\generated_images\results_problem_3\sample_0_0007.png,C:\Users\subject\Desktop\SVRT Experiments\SVRT Experiment 3\svrt_images\generated_images\results_problem_2\sample_0_0016.png,,,,,,,,,,,,,,,,0,7,7,7,0,1,1,1,,,,,,,,,,,,,,f,2,A,B,12,0,Incorrect!,1.3498899000114761,1825.8712087999738,None,1825.8712087999738,None,1827.237802699994,None,,,,,47,001,2023-05-12_09h44.46.811,uncolored_shuffled,2021.2.3,60.00823313639041,
C:\Users\subject\Desktop\SVRT Experiments\SVRT Experiment 3\svrt_images\generated_images\results_problem_2,,,,C:\Users\subject\Desktop\SVRT Experiments\SVRT Experiment 3\svrt_images\generated_images\results_problem_13\sample_1_0007.png,C:\Users\subject\Desktop\SVRT Experiments\SVRT Experiment 3\svrt_images\generated_images\results_problem_12\sample_1_0007.png,C:\Users\subject\Desktop\SVRT Experiments\SVRT Experiment 3\svrt_images\generated_images\results_problem_23\sample_0_0015.png,C:\Users\subject\Desktop\SVRT Experiments\SVRT Experiment 3\svrt_images\generated_images\results_problem_3\sample_0_0007.png,C:\Users\subject\Desktop\SVRT Experiments\SVRT Experiment 3\svrt_images\generated_images\results_problem_2\sample_0_0001.png,,,,,,,,,,,,,,,,0,7,7,7,0,2,2,2,,,,,,,,,,,,,,j,2,B,B,12,1,Correct!,0.805710899992846,1828.271174399997,None,1828.271174399997,None,1829.104436499998,None,,,,,47,001,2023-05-12_09h44.46.811,uncolored_shuffled,2021.2.3,60.00823313639041,
C:\Users\subject\Desktop\SVRT Experiments\SVRT Experiment 3\svrt_images\generated_images\results_problem_2,,,,C:\Users\subject\Desktop\SVRT Experiments\SVRT Experiment 3\svrt_images\generated_images\results_problem_13\sample_1_0007.png,C:\Users\subject\Desktop\SVRT Experiments\SVRT Experiment 3\svrt_images\generated_images\results_problem_12\sample_1_0007.png,C:\Users\subject\Desktop\SVRT Experiments\SVRT Experiment 3\svrt_images\generated_images\results_problem_23\sample_0_0015.png,C:\Users\subject\Desktop\SVRT Experiments\SVRT Experiment 3\svrt_images\generated_images\results_problem_3\sample_0_0007.png,C:\Users\subject\Desktop\SVRT Experiments\SVRT Experiment 3\svrt_images\generated_images\results_problem_2\sample_1_0003.png,,,,,,,,,,,,,,,,0,7,7,7,0,3,3,3,,,,,,,,,,,,,,j,2,B,A,12,0,Incorrect!,0.5705830999941099,1830.154392700002,None,1830.154392700002,None,1830.7542900999833,None,,,,,47,001,2023-05-12_09h44.46.811,uncolored_shuffled,2021.2.3,60.00823313639041,
C:\Users\subject\Desktop\SVRT Experiments\SVRT Experiment 3\svrt_images\generated_images\results_problem_2,,,,C:\Users\subject\Desktop\SVRT Experiments\SVRT Experiment 3\svrt_images\generated_images\results_problem_13\sample_1_0007.png,C:\Users\subject\Desktop\SVRT Experiments\SVRT Experiment 3\svrt_images\generated_images\results_problem_12\sample_1_0007.png,C:\Users\subject\Desktop\SVRT Experiments\SVRT Experiment 3\svrt_images\generated_images\results_problem_23\sample_0_0015.png,C:\Users\subject\Desktop\SVRT Experiments\SVRT Experiment 3\svrt_images\generated_images\results_problem_3\sample_0_0007.png,C:\Users\subject\Desktop\SVRT Experiments\SVRT Experiment 3\svrt_images\generated_images\results_problem_2\sample_0_0010.png,,,,,,,,,,,,,,,,0,7,7,7,0,4,4,4,,,,,,,,,,,,,,j,2,B,B,12,1,Correct!,3.2888682000047993,1831.804237799981,None,1831.804237799981,None,1835.120310999977,None,,,,,47,001,2023-05-12_09h44.46.811,uncolored_shuffled,2021.2.3,60.00823313639041,
C:\Users\subject\Desktop\SVRT Experiments\SVRT Experiment 3\svrt_images\generated_images\results_problem_2,,,,C:\Users\subject\Desktop\SVRT Experiments\SVRT Experiment 3\svrt_images\generated_images\results_problem_13\sample_1_0007.png,C:\Users\subject\Desktop\SVRT Experiments\SVRT Experiment 3\svrt_images\generated_images\results_problem_12\sample_1_0007.png,C:\Users\subject\Desktop\SVRT Experiments\SVRT Experiment 3\svrt_images\generated_images\results_problem_23\sample_0_0015.png,C:\Users\subject\Desktop\SVRT Experiments\SVRT Experiment 3\svrt_images\generated_images\results_problem_3\sample_0_0007.png,C:\Users\subject\Desktop\SVRT Experiments\SVRT Experiment 3\svrt_images\generated_images\results_problem_2\sample_0_0006.png,,,,,,,,,,,,,,,,0,7,7,7,0,5,5,5,,,,,,,,,,,,,,j,2,B,B,12,1,Correct!,5.53070510001271,1836.1702509000024,None,1836.1702509000024,None,1841.7198869999847,None,,,,,47,001,2023-05-12_09h44.46.811,uncolored_shuffled,2021.2.3,60.00823313639041,
C:\Users\subject\Desktop\SVRT Experiments\SVRT Experiment 3\svrt_images\generated_images\results_problem_2,,,,C:\Users\subject\Desktop\SVRT Experiments\SVRT Experiment 3\svrt_images\generated_images\results_problem_13\sample_1_0007.png,C:\Users\subject\Desktop\SVRT Experiments\SVRT Experiment 3\svrt_images\generated_images\results_problem_12\sample_1_0007.png,C:\Users\subject\Desktop\SVRT Experiments\SVRT Experiment 3\svrt_images\generated_images\results_problem_23\sample_0_0015.png,C:\Users\subject\Desktop\SVRT Experiments\SVRT Experiment 3\svrt_images\generated_images\results_problem_3\sample_0_0007.png,C:\Users\subject\Desktop\SVRT Experiments\SVRT Experiment 3\svrt_images\generated_images\results_problem_2\sample_0_0015.png,,,,,,,,,,,,,,,,0,7,7,7,0,6,6,6,,,,,,,,,,,,,,f,2,A,B,12,0,Incorrect!,2.337813499994809,1842.803162999975,None,1842.803162999975,None,1845.1696502999985,None,,,,,47,001,2023-05-12_09h44.46.811,uncolored_shuffled,2021.2.3,60.00823313639041,
C:\Users\subject\Desktop\SVRT Experiments\SVRT Experiment 3\svrt_images\generated_images\results_problem_2,,,,C:\Users\subject\Desktop\SVRT Experiments\SVRT Experiment 3\svrt_images\generated_images\results_problem_13\sample_1_0007.png,C:\Users\subject\Desktop\SVRT Experiments\SVRT Experiment 3\svrt_images\generated_images\results_problem_12\sample_1_0007.png,C:\Users\subject\Desktop\SVRT Experiments\SVRT Experiment 3\svrt_images\generated_images\results_problem_23\sample_0_0015.png,C:\Users\subject\Desktop\SVRT Experiments\SVRT Experiment 3\svrt_images\generated_images\results_problem_3\sample_0_0007.png,C:\Users\subject\Desktop\SVRT Experiments\SVRT Experiment 3\svrt_images\generated_images\results_problem_2\sample_1_0001.png,,,,,,,,,,,,,,,,0,7,7,7,0,7,7,7,,,,,,,,,,,,,,j,2,B,A,12,0,Incorrect!,0.7759390999854077,1846.252941099985,None,1846.252941099985,None,1847.0530993999855,None,,,,,47,001,2023-05-12_09h44.46.811,uncolored_shuffled,2021.2.3,60.00823313639041,
C:\Users\subject\Desktop\SVRT Experiments\SVRT Experiment 3\svrt_images\generated_images\results_problem_2,,,,C:\Users\subject\Desktop\SVRT Experiments\SVRT Experiment 3\svrt_images\generated_images\results_problem_13\sample_1_0007.png,C:\Users\subject\Desktop\SVRT Experiments\SVRT Experiment 3\svrt_images\generated_images\results_problem_12\sample_1_0007.png,C:\Users\subject\Desktop\SVRT Experiments\SVRT Experiment 3\svrt_images\generated_images\results_problem_23\sample_0_0015.png,C:\Users\subject\Desktop\SVRT Experiments\SVRT Experiment 3\svrt_images\generated_images\results_problem_3\sample_0_0007.png,C:\Users\subject\Desktop\SVRT Experiments\SVRT Experiment 3\svrt_images\generated_images\results_problem_2\sample_0_0011.png,,,,,,,,,,,,,,,,0,7,7,7,0,8,8,8,,,,,,,,,,,,,,f,2,A,B,12,0,Incorrect!,0.7486816999735311,1848.1363644999801,None,1848.1363644999801,None,1848.9028239999898,None,,,,,47,001,2023-05-12_09h44.46.811,uncolored_shuffled,2021.2.3,60.00823313639041,
C:\Users\subject\Desktop\SVRT Experiments\SVRT Experiment 3\svrt_images\generated_images\results_problem_2,,,,C:\Users\subject\Desktop\SVRT Experiments\SVRT Experiment 3\svrt_images\generated_images\results_problem_13\sample_1_0007.png,C:\Users\subject\Desktop\SVRT Experiments\SVRT Experiment 3\svrt_images\generated_images\results_problem_12\sample_1_0007.png,C:\Users\subject\Desktop\SVRT Experiments\SVRT Experiment 3\svrt_images\generated_images\results_problem_23\sample_0_0015.png,C:\Users\subject\Desktop\SVRT Experiments\SVRT Experiment 3\svrt_images\generated_images\results_problem_3\sample_0_0007.png,C:\Users\subject\Desktop\SVRT Experiments\SVRT Experiment 3\svrt_images\generated_images\results_problem_2\sample_1_0005.png,,,,,,,,,,,,,,,,0,7,7,7,0,9,9,9,,,,,,,,,,,,,,j,2,B,A,12,0,Incorrect!,0.7702461000008043,1849.9868028999772,None,1849.9868028999772,None,1850.7860527999874,None,,,,,47,001,2023-05-12_09h44.46.811,uncolored_shuffled,2021.2.3,60.00823313639041,
C:\Users\subject\Desktop\SVRT Experiments\SVRT Experiment 3\svrt_images\generated_images\results_problem_2,,,,C:\Users\subject\Desktop\SVRT Experiments\SVRT Experiment 3\svrt_images\generated_images\results_problem_13\sample_1_0007.png,C:\Users\subject\Desktop\SVRT Experiments\SVRT Experiment 3\svrt_images\generated_images\results_problem_12\sample_1_0007.png,C:\Users\subject\Desktop\SVRT Experiments\SVRT Experiment 3\svrt_images\generated_images\results_problem_23\sample_0_0015.png,C:\Users\subject\Desktop\SVRT Experiments\SVRT Experiment 3\svrt_images\generated_images\results_problem_3\sample_0_0007.png,C:\Users\subject\Desktop\SVRT Experiments\SVRT Experiment 3\svrt_images\generated_images\results_problem_2\sample_0_0012.png,,,,,,,,,,,,,,,,0,7,7,7,0,10,10,10,,,,,,,,,,,,,,f,2,A,B,12,0,Incorrect!,2.2316366999875754,1851.8693436999747,None,1851.8693436999747,None,1854.118992099975,None,,,,,47,001,2023-05-12_09h44.46.811,uncolored_shuffled,2021.2.3,60.00823313639041,
