folder,results_problem_19,results_problem_14,results_problem_17,results_problem_13,results_problem_12,results_problem_23,results_problem_3,results_problem_2,results_problem_5,results_problem_8,results_problem_16,results_problem_11,results_problem_18,results_problem_4,results_problem_7,results_problem_21,results_problem_10,results_problem_9,results_problem_22,results_problem_6,results_problem_15,results_problem_1,results_problem_20,categories.thisRepN,categories.thisTrialN,categories.thisN,categories.thisIndex,trials.thisRepN,trials.thisTrialN,trials.thisN,trials.thisIndex,consent_text.started,consent_kb.started,consent_kb.keys,consent_kb.rt,Gender.keys,Gender.rt,Age,instructions_text.started,instructions_text.stopped,instructions_kb.keys,instructions_kb.rt,instructions_kb.started,instructions_kb.stopped,trial_kb.keys,current_problem_num,category_resp,answer,seed,accuracy,feedback,trial_kb.rt,trial_kb.started,trial_kb.stopped,trial_image.started,trial_image.stopped,feedback_text.started,feedback_text.stopped,new_problem_kb.started,new_problem_text.started,new_problem_kb.keys,new_problem_kb.rt,Participant #,session,date,expName,psychopyVersion,frameRate,
,,,,,,,,,,,,,,,,,,,,,,,,,,,,,,,,13.65322079998441,13.65322079998441,y,90.06973670003936,,,,,,,,,,,,,,,,,,,,,,,,,,,,48,001,2023-05-12_15h32.52.955,uncolored_sorted,2021.2.3,60.018641750411135,
,,,,,,,,,,,,,,,,,,,,,,,,,,,,,,,,,,,,m,4.434156400151551,,,,,,,,,,,,,,,,,,,,,,,,,,48,001,2023-05-12_15h32.52.955,uncolored_sorted,2021.2.3,60.018641750411135,
,,,,,,,,,,,,,,,,,,,,,,,,,,,,,,,,,,,,,,20,114.5444571999833,None,space,55.52231859997846,114.5444571999833,None,,,,,,,,,,,,,,,,,,,48,001,2023-05-12_15h32.52.955,uncolored_sorted,2021.2.3,60.018641750411135,
C:\Users\subject\Desktop\SVRT Experiments\SVRT Experiment 3\svrt_images\generated_images\results_problem_19,C:\Users\subject\Desktop\SVRT Experiments\SVRT Experiment 3\svrt_images\generated_images\results_problem_19\sample_0_0012.png,,,,,,,,,,,,,,,,,,,,,,,0,0,0,0,0,0,0,0,,,,,,,,,,,,,,f,19,A,B,12,0,Incorrect!,19.17864409997128,170.11228709993884,None,170.11228709993884,None,189.32922139996663,None,,,,,48,001,2023-05-12_15h32.52.955,uncolored_sorted,2021.2.3,60.018641750411135,
C:\Users\subject\Desktop\SVRT Experiments\SVRT Experiment 3\svrt_images\generated_images\results_problem_19,C:\Users\subject\Desktop\SVRT Experiments\SVRT Experiment 3\svrt_images\generated_images\results_problem_19\sample_0_0014.png,,,,,,,,,,,,,,,,,,,,,,,0,0,0,0,0,1,1,1,,,,,,,,,,,,,,j,19,B,B,12,1,Correct!,6.201052600052208,190.3458771998994,None,190.3458771998994,None,196.57933539990336,None,,,,,48,001,2023-05-12_15h32.52.955,uncolored_sorted,2021.2.3,60.018641750411135,
C:\Users\subject\Desktop\SVRT Experiments\SVRT Experiment 3\svrt_images\generated_images\results_problem_19,C:\Users\subject\Desktop\SVRT Experiments\SVRT Experiment 3\svrt_images\generated_images\results_problem_19\sample_0_0013.png,,,,,,,,,,,,,,,,,,,,,,,0,0,0,0,0,2,2,2,,,,,,,,,,,,,,j,19,B,B,12,1,Correct!,4.198923099786043,197.59601129987277,None,197.59601129987277,None,201.81273399991915,None,,,,,48,001,2023-05-12_15h32.52.955,uncolored_sorted,2021.2.3,60.018641750411135,
C:\Users\subject\Desktop\SVRT Experiments\SVRT Experiment 3\svrt_images\generated_images\results_problem_19,C:\Users\subject\Desktop\SVRT Experiments\SVRT Experiment 3\svrt_images\generated_images\results_problem_19\sample_1_0002.png,,,,,,,,,,,,,,,,,,,,,,,0,0,0,0,0,3,3,3,,,,,,,,,,,,,,j,19,B,A,12,0,Incorrect!,0.9487670999951661,202.8460967000574,None,202.8460967000574,None,203.8127536000684,None,,,,,48,001,2023-05-12_15h32.52.955,uncolored_sorted,2021.2.3,60.018641750411135,
C:\Users\subject\Desktop\SVRT Experiments\SVRT Experiment 3\svrt_images\generated_images\results_problem_19,C:\Users\subject\Desktop\SVRT Experiments\SVRT Experiment 3\svrt_images\generated_images\results_problem_19\sample_1_0008.png,,,,,,,,,,,,,,,,,,,,,,,0,0,0,0,0,4,4,4,,,,,,,,,,,,,,j,19,B,A,12,0,Incorrect!,17.6840153997764,204.86279809987172,None,204.86279809987172,None,222.57967259990983,None,,,,,48,001,2023-05-12_15h32.52.955,uncolored_sorted,2021.2.3,60.018641750411135,
C:\Users\subject\Desktop\SVRT Experiments\SVRT Experiment 3\svrt_images\generated_images\results_problem_19,C:\Users\subject\Desktop\SVRT Experiments\SVRT Experiment 3\svrt_images\generated_images\results_problem_19\sample_1_0014.png,,,,,,,,,,,,,,,,,,,,,,,0,0,0,0,0,5,5,5,,,,,,,,,,,,,,j,19,B,A,12,0,Incorrect!,10.517110700020567,223.62971829995513,None,223.62971829995513,None,234.1798072999809,None,,,,,48,001,2023-05-12_15h32.52.955,uncolored_sorted,2021.2.3,60.018641750411135,
C:\Users\subject\Desktop\SVRT Experiments\SVRT Experiment 3\svrt_images\generated_images\results_problem_19,C:\Users\subject\Desktop\SVRT Experiments\SVRT Experiment 3\svrt_images\generated_images\results_problem_19\sample_1_0009.png,,,,,,,,,,,,,,,,,,,,,,,0,0,0,0,0,6,6,6,,,,,,,,,,,,,,j,19,B,A,12,0,Incorrect!,3.4923380999825895,235.24653099989519,None,235.24653099989519,None,238.76323929987848,None,,,,,48,001,2023-05-12_15h32.52.955,uncolored_sorted,2021.2.3,60.018641750411135,
C:\Users\subject\Desktop\SVRT Experiments\SVRT Experiment 3\svrt_images\generated_images\results_problem_19,C:\Users\subject\Desktop\SVRT Experiments\SVRT Experiment 3\svrt_images\generated_images\results_problem_19\sample_1_0006.png,,,,,,,,,,,,,,,,,,,,,,,0,0,0,0,0,7,7,7,,,,,,,,,,,,,,f,19,A,A,12,1,Correct!,20.59692839998752,239.82993949996307,None,239.82993949996307,None,260.44678919995204,None,,,,,48,001,2023-05-12_15h32.52.955,uncolored_sorted,2021.2.3,60.018641750411135,
C:\Users\subject\Desktop\SVRT Experiments\SVRT Experiment 3\svrt_images\generated_images\results_problem_19,C:\Users\subject\Desktop\SVRT Experiments\SVRT Experiment 3\svrt_images\generated_images\results_problem_19\sample_1_0010.png,,,,,,,,,,,,,,,,,,,,,,,0,0,0,0,0,8,8,8,,,,,,,,,,,,,,f,19,A,A,12,1,Correct!,0.9127424000762403,261.53021320002154,None,261.53021320002154,None,262.46354250004515,None,,,,,48,001,2023-05-12_15h32.52.955,uncolored_sorted,2021.2.3,60.018641750411135,
C:\Users\subject\Desktop\SVRT Experiments\SVRT Experiment 3\svrt_images\generated_images\results_problem_19,C:\Users\subject\Desktop\SVRT Experiments\SVRT Experiment 3\svrt_images\generated_images\results_problem_19\sample_1_0012.png,,,,,,,,,,,,,,,,,,,,,,,0,0,0,0,0,9,9,9,,,,,,,,,,,,,,f,19,A,A,12,1,Correct!,0.6232457000296563,263.56352490000427,None,263.56352490000427,None,264.2135065998882,None,,,,,48,001,2023-05-12_15h32.52.955,uncolored_sorted,2021.2.3,60.018641750411135,
C:\Users\subject\Desktop\SVRT Experiments\SVRT Experiment 3\svrt_images\generated_images\results_problem_19,C:\Users\subject\Desktop\SVRT Experiments\SVRT Experiment 3\svrt_images\generated_images\results_problem_19\sample_1_0007.png,,,,,,,,,,,,,,,,,,,,,,,0,0,0,0,0,10,10,10,,,,,,,,,,,,,,f,19,A,A,12,1,Correct!,0.6333919998724014,265.3134983999189,None,265.3134983999189,None,265.9801485000644,None,,,,,48,001,2023-05-12_15h32.52.955,uncolored_sorted,2021.2.3,60.018641750411135,
C:\Users\subject\Desktop\SVRT Experiments\SVRT Experiment 3\svrt_images\generated_images\results_problem_19,C:\Users\subject\Desktop\SVRT Experiments\SVRT Experiment 3\svrt_images\generated_images\results_problem_19\sample_0_0005.png,,,,,,,,,,,,,,,,,,,,,,,0,0,0,0,0,11,11,11,,,,,,,,,,,,,,j,19,B,B,12,1,Correct!,1.4900680999271572,267.09682069998235,None,267.09682069998235,None,268.6134087999817,None,,,,,48,001,2023-05-12_15h32.52.955,uncolored_sorted,2021.2.3,60.018641750411135,
C:\Users\subject\Desktop\SVRT Experiments\SVRT Experiment 3\svrt_images\generated_images\results_problem_19,C:\Users\subject\Desktop\SVRT Experiments\SVRT Experiment 3\svrt_images\generated_images\results_problem_19\sample_0_0000.png,,,,,,,,,,,,,,,,,,,,,,,0,0,0,0,0,12,12,12,,,,,,,,,,,,,,j,19,B,B,12,1,Correct!,1.5040524997748435,269.74673909996636,None,269.74673909996636,None,271.29667399986647,None,,,,,48,001,2023-05-12_15h32.52.955,uncolored_sorted,2021.2.3,60.018641750411135,
C:\Users\subject\Desktop\SVRT Experiments\SVRT Experiment 3\svrt_images\generated_images\results_problem_19,C:\Users\subject\Desktop\SVRT Experiments\SVRT Experiment 3\svrt_images\generated_images\results_problem_19\sample_0_0003.png,,,,,,,,,,,,,,,,,,,,,,,0,0,0,0,0,13,13,13,,,,,,,,,,,,,,j,19,B,B,12,1,Correct!,1.1329063999000937,272.4299909998663,None,272.4299909998663,None,273.5799626999069,None,,,,,48,001,2023-05-12_15h32.52.955,uncolored_sorted,2021.2.3,60.018641750411135,
C:\Users\subject\Desktop\SVRT Experiments\SVRT Experiment 3\svrt_images\generated_images\results_problem_19,C:\Users\subject\Desktop\SVRT Experiments\SVRT Experiment 3\svrt_images\generated_images\results_problem_19\sample_0_0015.png,,,,,,,,,,,,,,,,,,,,,,,0,0,0,0,0,14,14,14,,,,,,,,,,,,,,,,,,,,,,,,,,,,274.57995379995555,274.57995379995555,space,1.9829224001150578,48,001,2023-05-12_15h32.52.955,uncolored_sorted,2021.2.3,60.018641750411135,
C:\Users\subject\Desktop\SVRT Experiments\SVRT Experiment 3\svrt_images\generated_images\results_problem_14,C:\Users\subject\Desktop\SVRT Experiments\SVRT Experiment 3\svrt_images\generated_images\results_problem_19\sample_0_0015.png,C:\Users\subject\Desktop\SVRT Experiments\SVRT Experiment 3\svrt_images\generated_images\results_problem_14\sample_0_0002.png,,,,,,,,,,,,,,,,,,,,,,0,1,1,1,0,0,0,0,,,,,,,,,,,,,,f,14,A,B,12,0,Incorrect!,3.758935899939388,276.5798953999765,None,276.5798953999765,None,280.36315299989656,None,,,,,48,001,2023-05-12_15h32.52.955,uncolored_sorted,2021.2.3,60.018641750411135,
C:\Users\subject\Desktop\SVRT Experiments\SVRT Experiment 3\svrt_images\generated_images\results_problem_14,C:\Users\subject\Desktop\SVRT Experiments\SVRT Experiment 3\svrt_images\generated_images\results_problem_19\sample_0_0015.png,C:\Users\subject\Desktop\SVRT Experiments\SVRT Experiment 3\svrt_images\generated_images\results_problem_14\sample_1_0004.png,,,,,,,,,,,,,,,,,,,,,,0,1,1,1,0,1,1,1,,,,,,,,,,,,,,f,14,A,A,12,1,Correct!,2.7669354998506606,281.37987339985557,None,281.37987339985557,None,284.1797463998664,None,,,,,48,001,2023-05-12_15h32.52.955,uncolored_sorted,2021.2.3,60.018641750411135,
C:\Users\subject\Desktop\SVRT Experiments\SVRT Experiment 3\svrt_images\generated_images\results_problem_14,C:\Users\subject\Desktop\SVRT Experiments\SVRT Experiment 3\svrt_images\generated_images\results_problem_19\sample_0_0015.png,C:\Users\subject\Desktop\SVRT Experiments\SVRT Experiment 3\svrt_images\generated_images\results_problem_14\sample_0_0009.png,,,,,,,,,,,,,,,,,,,,,,0,1,1,1,0,2,2,2,,,,,,,,,,,,,,j,14,B,B,12,1,Correct!,3.8857646000105888,285.2130489000119,None,285.2130489000119,None,289.1296182998922,None,,,,,48,001,2023-05-12_15h32.52.955,uncolored_sorted,2021.2.3,60.018641750411135,
C:\Users\subject\Desktop\SVRT Experiments\SVRT Experiment 3\svrt_images\generated_images\results_problem_14,C:\Users\subject\Desktop\SVRT Experiments\SVRT Experiment 3\svrt_images\generated_images\results_problem_19\sample_0_0015.png,C:\Users\subject\Desktop\SVRT Experiments\SVRT Experiment 3\svrt_images\generated_images\results_problem_14\sample_1_0016.png,,,,,,,,,,,,,,,,,,,,,,0,1,1,1,0,3,3,3,,,,,,,,,,,,,,f,14,A,A,12,1,Correct!,1.0800243001431227,290.1628892000299,None,290.1628892000299,None,291.262875800021,None,,,,,48,001,2023-05-12_15h32.52.955,uncolored_sorted,2021.2.3,60.018641750411135,
C:\Users\subject\Desktop\SVRT Experiments\SVRT Experiment 3\svrt_images\generated_images\results_problem_14,C:\Users\subject\Desktop\SVRT Experiments\SVRT Experiment 3\svrt_images\generated_images\results_problem_19\sample_0_0015.png,C:\Users\subject\Desktop\SVRT Experiments\SVRT Experiment 3\svrt_images\generated_images\results_problem_14\sample_0_0015.png,,,,,,,,,,,,,,,,,,,,,,0,1,1,1,0,4,4,4,,,,,,,,,,,,,,j,14,B,B,12,1,Correct!,0.873840400017798,292.31287349993363,None,292.31287349993363,None,293.21287079993635,None,,,,,48,001,2023-05-12_15h32.52.955,uncolored_sorted,2021.2.3,60.018641750411135,
C:\Users\subject\Desktop\SVRT Experiments\SVRT Experiment 3\svrt_images\generated_images\results_problem_14,C:\Users\subject\Desktop\SVRT Experiments\SVRT Experiment 3\svrt_images\generated_images\results_problem_19\sample_0_0015.png,C:\Users\subject\Desktop\SVRT Experiments\SVRT Experiment 3\svrt_images\generated_images\results_problem_14\sample_1_0007.png,,,,,,,,,,,,,,,,,,,,,,0,1,1,1,0,5,5,5,,,,,,,,,,,,,,f,14,A,A,12,1,Correct!,0.7239818000234663,294.2627902000677,None,294.2627902000677,None,295.01278280001134,None,,,,,48,001,2023-05-12_15h32.52.955,uncolored_sorted,2021.2.3,60.018641750411135,
C:\Users\subject\Desktop\SVRT Experiments\SVRT Experiment 3\svrt_images\generated_images\results_problem_14,C:\Users\subject\Desktop\SVRT Experiments\SVRT Experiment 3\svrt_images\generated_images\results_problem_19\sample_0_0015.png,C:\Users\subject\Desktop\SVRT Experiments\SVRT Experiment 3\svrt_images\generated_images\results_problem_14\sample_0_0013.png,,,,,,,,,,,,,,,,,,,,,,0,1,1,1,0,6,6,6,,,,,,,,,,,,,,f,14,A,B,12,0,Incorrect!,0.7152212001383305,296.0794905000366,None,296.0794905000366,None,296.81283720000647,None,,,,,48,001,2023-05-12_15h32.52.955,uncolored_sorted,2021.2.3,60.018641750411135,
C:\Users\subject\Desktop\SVRT Experiments\SVRT Experiment 3\svrt_images\generated_images\results_problem_14,C:\Users\subject\Desktop\SVRT Experiments\SVRT Experiment 3\svrt_images\generated_images\results_problem_19\sample_0_0015.png,C:\Users\subject\Desktop\SVRT Experiments\SVRT Experiment 3\svrt_images\generated_images\results_problem_14\sample_0_0012.png,,,,,,,,,,,,,,,,,,,,,,0,1,1,1,0,7,7,7,,,,,,,,,,,,,,f,14,A,B,12,0,Incorrect!,0.786680200137198,297.8961086999625,None,297.8961086999625,None,298.7127431000117,None,,,,,48,001,2023-05-12_15h32.52.955,uncolored_sorted,2021.2.3,60.018641750411135,
C:\Users\subject\Desktop\SVRT Experiments\SVRT Experiment 3\svrt_images\generated_images\results_problem_14,C:\Users\subject\Desktop\SVRT Experiments\SVRT Experiment 3\svrt_images\generated_images\results_problem_19\sample_0_0015.png,C:\Users\subject\Desktop\SVRT Experiments\SVRT Experiment 3\svrt_images\generated_images\results_problem_14\sample_1_0015.png,,,,,,,,,,,,,,,,,,,,,,0,1,1,1,0,8,8,8,,,,,,,,,,,,,,f,14,A,A,12,1,Correct!,2.8066912998910993,299.79608029988594,None,299.79608029988594,None,302.62932759989053,None,,,,,48,001,2023-05-12_15h32.52.955,uncolored_sorted,2021.2.3,60.018641750411135,
C:\Users\subject\Desktop\SVRT Experiments\SVRT Experiment 3\svrt_images\generated_images\results_problem_14,C:\Users\subject\Desktop\SVRT Experiments\SVRT Experiment 3\svrt_images\generated_images\results_problem_19\sample_0_0015.png,C:\Users\subject\Desktop\SVRT Experiments\SVRT Experiment 3\svrt_images\generated_images\results_problem_14\sample_1_0003.png,,,,,,,,,,,,,,,,,,,,,,0,1,1,1,0,9,9,9,,,,,,,,,,,,,,j,14,B,A,12,0,Incorrect!,1.8496296999510378,303.72929869988,None,303.72929869988,None,305.5959069998935,None,,,,,48,001,2023-05-12_15h32.52.955,uncolored_sorted,2021.2.3,60.018641750411135,
C:\Users\subject\Desktop\SVRT Experiments\SVRT Experiment 3\svrt_images\generated_images\results_problem_14,C:\Users\subject\Desktop\SVRT Experiments\SVRT Experiment 3\svrt_images\generated_images\results_problem_19\sample_0_0015.png,C:\Users\subject\Desktop\SVRT Experiments\SVRT Experiment 3\svrt_images\generated_images\results_problem_14\sample_0_0003.png,,,,,,,,,,,,,,,,,,,,,,0,1,1,1,0,10,10,10,,,,,,,,,,,,,,j,14,B,B,12,1,Correct!,6.850883700186387,306.6958643998951,None,306.6958643998951,None,313.5790697999764,None,,,,,48,001,2023-05-12_15h32.52.955,uncolored_sorted,2021.2.3,60.018641750411135,
C:\Users\subject\Desktop\SVRT Experiments\SVRT Experiment 3\svrt_images\generated_images\results_problem_14,C:\Users\subject\Desktop\SVRT Experiments\SVRT Experiment 3\svrt_images\generated_images\results_problem_19\sample_0_0015.png,C:\Users\subject\Desktop\SVRT Experiments\SVRT Experiment 3\svrt_images\generated_images\results_problem_14\sample_0_0016.png,,,,,,,,,,,,,,,,,,,,,,0,1,1,1,0,11,11,11,,,,,,,,,,,,,,j,14,B,B,12,1,Correct!,1.5551289999857545,314.6957349998411,None,314.6957349998411,None,316.2790135999676,None,,,,,48,001,2023-05-12_15h32.52.955,uncolored_sorted,2021.2.3,60.018641750411135,
C:\Users\subject\Desktop\SVRT Experiments\SVRT Experiment 3\svrt_images\generated_images\results_problem_14,C:\Users\subject\Desktop\SVRT Experiments\SVRT Experiment 3\svrt_images\generated_images\results_problem_19\sample_0_0015.png,C:\Users\subject\Desktop\SVRT Experiments\SVRT Experiment 3\svrt_images\generated_images\results_problem_14\sample_0_0004.png,,,,,,,,,,,,,,,,,,,,,,0,1,1,1,0,12,12,12,,,,,,,,,,,,,,f,14,A,B,12,0,Incorrect!,2.335054500028491,317.39566039992496,None,317.39566039992496,None,319.77893709996715,None,,,,,48,001,2023-05-12_15h32.52.955,uncolored_sorted,2021.2.3,60.018641750411135,
C:\Users\subject\Desktop\SVRT Experiments\SVRT Experiment 3\svrt_images\generated_images\results_problem_14,C:\Users\subject\Desktop\SVRT Experiments\SVRT Experiment 3\svrt_images\generated_images\results_problem_19\sample_0_0015.png,C:\Users\subject\Desktop\SVRT Experiments\SVRT Experiment 3\svrt_images\generated_images\results_problem_14\sample_1_0002.png,,,,,,,,,,,,,,,,,,,,,,0,1,1,1,0,13,13,13,,,,,,,,,,,,,,f,14,A,A,12,1,Correct!,1.5058504999615252,320.92891759984195,None,320.92891759984195,None,322.4789137998596,None,,,,,48,001,2023-05-12_15h32.52.955,uncolored_sorted,2021.2.3,60.018641750411135,
C:\Users\subject\Desktop\SVRT Experiments\SVRT Experiment 3\svrt_images\generated_images\results_problem_14,C:\Users\subject\Desktop\SVRT Experiments\SVRT Experiment 3\svrt_images\generated_images\results_problem_19\sample_0_0015.png,C:\Users\subject\Desktop\SVRT Experiments\SVRT Experiment 3\svrt_images\generated_images\results_problem_14\sample_0_0007.png,,,,,,,,,,,,,,,,,,,,,,0,1,1,1,0,14,14,14,,,,,,,,,,,,,,j,14,B,B,12,1,Correct!,0.8459874000400305,323.628839999903,None,323.628839999903,None,324.5121828999836,None,,,,,48,001,2023-05-12_15h32.52.955,uncolored_sorted,2021.2.3,60.018641750411135,
C:\Users\subject\Desktop\SVRT Experiments\SVRT Experiment 3\svrt_images\generated_images\results_problem_14,C:\Users\subject\Desktop\SVRT Experiments\SVRT Experiment 3\svrt_images\generated_images\results_problem_19\sample_0_0015.png,C:\Users\subject\Desktop\SVRT Experiments\SVRT Experiment 3\svrt_images\generated_images\results_problem_14\sample_0_0008.png,,,,,,,,,,,,,,,,,,,,,,0,1,1,1,0,15,15,15,,,,,,,,,,,,,,j,14,B,B,12,1,Correct!,3.756018999963999,325.67881079996005,None,325.67881079996005,None,329.4620576000307,None,,,,,48,001,2023-05-12_15h32.52.955,uncolored_sorted,2021.2.3,60.018641750411135,
C:\Users\subject\Desktop\SVRT Experiments\SVRT Experiment 3\svrt_images\generated_images\results_problem_14,C:\Users\subject\Desktop\SVRT Experiments\SVRT Experiment 3\svrt_images\generated_images\results_problem_19\sample_0_0015.png,C:\Users\subject\Desktop\SVRT Experiments\SVRT Experiment 3\svrt_images\generated_images\results_problem_14\sample_1_0000.png,,,,,,,,,,,,,,,,,,,,,,0,1,1,1,0,16,16,16,,,,,,,,,,,,,,f,14,A,A,12,1,Correct!,1.4853338999673724,330.6453907999676,None,330.6453907999676,None,332.16200080001727,None,,,,,48,001,2023-05-12_15h32.52.955,uncolored_sorted,2021.2.3,60.018641750411135,
C:\Users\subject\Desktop\SVRT Experiments\SVRT Experiment 3\svrt_images\generated_images\results_problem_14,C:\Users\subject\Desktop\SVRT Experiments\SVRT Experiment 3\svrt_images\generated_images\results_problem_19\sample_0_0015.png,C:\Users\subject\Desktop\SVRT Experiments\SVRT Experiment 3\svrt_images\generated_images\results_problem_14\sample_0_0010.png,,,,,,,,,,,,,,,,,,,,,,0,1,1,1,0,17,17,17,,,,,,,,,,,,,,j,14,B,B,12,1,Correct!,0.6174903998617083,333.3452723000664,None,333.3452723000664,None,334.0286163999699,None,,,,,48,001,2023-05-12_15h32.52.955,uncolored_sorted,2021.2.3,60.018641750411135,
C:\Users\subject\Desktop\SVRT Experiments\SVRT Experiment 3\svrt_images\generated_images\results_problem_14,C:\Users\subject\Desktop\SVRT Experiments\SVRT Experiment 3\svrt_images\generated_images\results_problem_19\sample_0_0015.png,C:\Users\subject\Desktop\SVRT Experiments\SVRT Experiment 3\svrt_images\generated_images\results_problem_14\sample_1_0013.png,,,,,,,,,,,,,,,,,,,,,,0,1,1,1,0,18,18,18,,,,,,,,,,,,,,f,14,A,A,12,1,Correct!,0.9662724998779595,335.22860959987156,None,335.22860959987156,None,336.2452430999838,None,,,,,48,001,2023-05-12_15h32.52.955,uncolored_sorted,2021.2.3,60.018641750411135,
C:\Users\subject\Desktop\SVRT Experiments\SVRT Experiment 3\svrt_images\generated_images\results_problem_14,C:\Users\subject\Desktop\SVRT Experiments\SVRT Experiment 3\svrt_images\generated_images\results_problem_19\sample_0_0015.png,C:\Users\subject\Desktop\SVRT Experiments\SVRT Experiment 3\svrt_images\generated_images\results_problem_14\sample_0_0011.png,,,,,,,,,,,,,,,,,,,,,,0,1,1,1,0,19,19,19,,,,,,,,,,,,,,j,14,B,B,12,1,Correct!,0.8928788998164237,337.46186439995654,None,337.46186439995654,None,338.37851749989204,None,,,,,48,001,2023-05-12_15h32.52.955,uncolored_sorted,2021.2.3,60.018641750411135,
C:\Users\subject\Desktop\SVRT Experiments\SVRT Experiment 3\svrt_images\generated_images\results_problem_14,C:\Users\subject\Desktop\SVRT Experiments\SVRT Experiment 3\svrt_images\generated_images\results_problem_19\sample_0_0015.png,C:\Users\subject\Desktop\SVRT Experiments\SVRT Experiment 3\svrt_images\generated_images\results_problem_14\sample_0_0005.png,,,,,,,,,,,,,,,,,,,,,,0,1,1,1,0,20,20,20,,,,,,,,,,,,,,,,,,,,,,,,,,,,339.37850819993764,339.37850819993764,space,1.400391299976036,48,001,2023-05-12_15h32.52.955,uncolored_sorted,2021.2.3,60.018641750411135,
C:\Users\subject\Desktop\SVRT Experiments\SVRT Experiment 3\svrt_images\generated_images\results_problem_17,C:\Users\subject\Desktop\SVRT Experiments\SVRT Experiment 3\svrt_images\generated_images\results_problem_19\sample_0_0015.png,C:\Users\subject\Desktop\SVRT Experiments\SVRT Experiment 3\svrt_images\generated_images\results_problem_14\sample_0_0005.png,C:\Users\subject\Desktop\SVRT Experiments\SVRT Experiment 3\svrt_images\generated_images\results_problem_17\sample_0_0005.png,,,,,,,,,,,,,,,,,,,,,0,2,2,2,0,0,0,0,,,,,,,,,,,,,,f,17,A,B,12,0,Incorrect!,1.9589750999584794,340.8118239999749,None,340.8118239999749,None,342.7950853998773,None,,,,,48,001,2023-05-12_15h32.52.955,uncolored_sorted,2021.2.3,60.018641750411135,
C:\Users\subject\Desktop\SVRT Experiments\SVRT Experiment 3\svrt_images\generated_images\results_problem_17,C:\Users\subject\Desktop\SVRT Experiments\SVRT Experiment 3\svrt_images\generated_images\results_problem_19\sample_0_0015.png,C:\Users\subject\Desktop\SVRT Experiments\SVRT Experiment 3\svrt_images\generated_images\results_problem_14\sample_0_0005.png,C:\Users\subject\Desktop\SVRT Experiments\SVRT Experiment 3\svrt_images\generated_images\results_problem_17\sample_1_0008.png,,,,,,,,,,,,,,,,,,,,,0,2,2,2,0,1,1,1,,,,,,,,,,,,,,f,17,A,A,12,1,Correct!,6.454909199848771,343.81175810005516,None,343.81175810005516,None,350.29491920000874,None,,,,,48,001,2023-05-12_15h32.52.955,uncolored_sorted,2021.2.3,60.018641750411135,
C:\Users\subject\Desktop\SVRT Experiments\SVRT Experiment 3\svrt_images\generated_images\results_problem_17,C:\Users\subject\Desktop\SVRT Experiments\SVRT Experiment 3\svrt_images\generated_images\results_problem_19\sample_0_0015.png,C:\Users\subject\Desktop\SVRT Experiments\SVRT Experiment 3\svrt_images\generated_images\results_problem_14\sample_0_0005.png,C:\Users\subject\Desktop\SVRT Experiments\SVRT Experiment 3\svrt_images\generated_images\results_problem_17\sample_1_0015.png,,,,,,,,,,,,,,,,,,,,,0,2,2,2,0,2,2,2,,,,,,,,,,,,,,f,17,A,A,12,1,Correct!,11.707257800037041,351.3115685998928,None,351.3115685998928,None,363.0446661999449,None,,,,,48,001,2023-05-12_15h32.52.955,uncolored_sorted,2021.2.3,60.018641750411135,
C:\Users\subject\Desktop\SVRT Experiments\SVRT Experiment 3\svrt_images\generated_images\results_problem_17,C:\Users\subject\Desktop\SVRT Experiments\SVRT Experiment 3\svrt_images\generated_images\results_problem_19\sample_0_0015.png,C:\Users\subject\Desktop\SVRT Experiments\SVRT Experiment 3\svrt_images\generated_images\results_problem_14\sample_0_0005.png,C:\Users\subject\Desktop\SVRT Experiments\SVRT Experiment 3\svrt_images\generated_images\results_problem_17\sample_1_0003.png,,,,,,,,,,,,,,,,,,,,,0,2,2,2,0,3,3,3,,,,,,,,,,,,,,f,17,A,A,12,1,Correct!,4.204767999937758,364.07798389997333,None,364.07798389997333,None,368.31120519991964,None,,,,,48,001,2023-05-12_15h32.52.955,uncolored_sorted,2021.2.3,60.018641750411135,
C:\Users\subject\Desktop\SVRT Experiments\SVRT Experiment 3\svrt_images\generated_images\results_problem_17,C:\Users\subject\Desktop\SVRT Experiments\SVRT Experiment 3\svrt_images\generated_images\results_problem_19\sample_0_0015.png,C:\Users\subject\Desktop\SVRT Experiments\SVRT Experiment 3\svrt_images\generated_images\results_problem_14\sample_0_0005.png,C:\Users\subject\Desktop\SVRT Experiments\SVRT Experiment 3\svrt_images\generated_images\results_problem_17\sample_1_0007.png,,,,,,,,,,,,,,,,,,,,,0,2,2,2,0,4,4,4,,,,,,,,,,,,,,j,17,B,A,12,0,Incorrect!,7.554176100064069,369.3445279998705,None,369.3445279998705,None,376.92771379998885,None,,,,,48,001,2023-05-12_15h32.52.955,uncolored_sorted,2021.2.3,60.018641750411135,
C:\Users\subject\Desktop\SVRT Experiments\SVRT Experiment 3\svrt_images\generated_images\results_problem_17,C:\Users\subject\Desktop\SVRT Experiments\SVRT Experiment 3\svrt_images\generated_images\results_problem_19\sample_0_0015.png,C:\Users\subject\Desktop\SVRT Experiments\SVRT Experiment 3\svrt_images\generated_images\results_problem_14\sample_0_0005.png,C:\Users\subject\Desktop\SVRT Experiments\SVRT Experiment 3\svrt_images\generated_images\results_problem_17\sample_0_0009.png,,,,,,,,,,,,,,,,,,,,,0,2,2,2,0,5,5,5,,,,,,,,,,,,,,f,17,A,B,12,0,Incorrect!,1.89706419990398,377.97767349984497,None,377.97767349984497,None,379.8942835999187,None,,,,,48,001,2023-05-12_15h32.52.955,uncolored_sorted,2021.2.3,60.018641750411135,
C:\Users\subject\Desktop\SVRT Experiments\SVRT Experiment 3\svrt_images\generated_images\results_problem_17,C:\Users\subject\Desktop\SVRT Experiments\SVRT Experiment 3\svrt_images\generated_images\results_problem_19\sample_0_0015.png,C:\Users\subject\Desktop\SVRT Experiments\SVRT Experiment 3\svrt_images\generated_images\results_problem_14\sample_0_0005.png,C:\Users\subject\Desktop\SVRT Experiments\SVRT Experiment 3\svrt_images\generated_images\results_problem_17\sample_0_0010.png,,,,,,,,,,,,,,,,,,,,,0,2,2,2,0,6,6,6,,,,,,,,,,,,,,j,17,B,B,12,1,Correct!,33.545826100045815,380.9609511999879,None,380.9609511999879,None,414.5268508999143,None,,,,,48,001,2023-05-12_15h32.52.955,uncolored_sorted,2021.2.3,60.018641750411135,
C:\Users\subject\Desktop\SVRT Experiments\SVRT Experiment 3\svrt_images\generated_images\results_problem_17,C:\Users\subject\Desktop\SVRT Experiments\SVRT Experiment 3\svrt_images\generated_images\results_problem_19\sample_0_0015.png,C:\Users\subject\Desktop\SVRT Experiments\SVRT Experiment 3\svrt_images\generated_images\results_problem_14\sample_0_0005.png,C:\Users\subject\Desktop\SVRT Experiments\SVRT Experiment 3\svrt_images\generated_images\results_problem_17\sample_0_0004.png,,,,,,,,,,,,,,,,,,,,,0,2,2,2,0,7,7,7,,,,,,,,,,,,,,f,17,A,B,12,0,Incorrect!,27.657201800029725,415.5935533000156,None,415.5935533000156,None,443.2762911999598,None,,,,,48,001,2023-05-12_15h32.52.955,uncolored_sorted,2021.2.3,60.018641750411135,
C:\Users\subject\Desktop\SVRT Experiments\SVRT Experiment 3\svrt_images\generated_images\results_problem_17,C:\Users\subject\Desktop\SVRT Experiments\SVRT Experiment 3\svrt_images\generated_images\results_problem_19\sample_0_0015.png,C:\Users\subject\Desktop\SVRT Experiments\SVRT Experiment 3\svrt_images\generated_images\results_problem_14\sample_0_0005.png,C:\Users\subject\Desktop\SVRT Experiments\SVRT Experiment 3\svrt_images\generated_images\results_problem_17\sample_1_0001.png,,,,,,,,,,,,,,,,,,,,,0,2,2,2,0,8,8,8,,,,,,,,,,,,,,f,17,A,A,12,1,Correct!,11.43502869992517,444.3596326999832,None,444.3596326999832,None,455.82605679985136,None,,,,,48,001,2023-05-12_15h32.52.955,uncolored_sorted,2021.2.3,60.018641750411135,
C:\Users\subject\Desktop\SVRT Experiments\SVRT Experiment 3\svrt_images\generated_images\results_problem_17,C:\Users\subject\Desktop\SVRT Experiments\SVRT Experiment 3\svrt_images\generated_images\results_problem_19\sample_0_0015.png,C:\Users\subject\Desktop\SVRT Experiments\SVRT Experiment 3\svrt_images\generated_images\results_problem_14\sample_0_0005.png,C:\Users\subject\Desktop\SVRT Experiments\SVRT Experiment 3\svrt_images\generated_images\results_problem_17\sample_1_0016.png,,,,,,,,,,,,,,,,,,,,,0,2,2,2,0,9,9,9,,,,,,,,,,,,,,f,17,A,A,12,1,Correct!,1.4127929999958724,456.9260183000006,None,456.9260183000006,None,458.359332999913,None,,,,,48,001,2023-05-12_15h32.52.955,uncolored_sorted,2021.2.3,60.018641750411135,
C:\Users\subject\Desktop\SVRT Experiments\SVRT Experiment 3\svrt_images\generated_images\results_problem_17,C:\Users\subject\Desktop\SVRT Experiments\SVRT Experiment 3\svrt_images\generated_images\results_problem_19\sample_0_0015.png,C:\Users\subject\Desktop\SVRT Experiments\SVRT Experiment 3\svrt_images\generated_images\results_problem_14\sample_0_0005.png,C:\Users\subject\Desktop\SVRT Experiments\SVRT Experiment 3\svrt_images\generated_images\results_problem_17\sample_1_0005.png,,,,,,,,,,,,,,,,,,,,,0,2,2,2,0,10,10,10,,,,,,,,,,,,,,f,17,A,A,12,1,Correct!,0.7753922000993043,459.45930580003187,None,459.45930580003187,None,460.2592573999427,None,,,,,48,001,2023-05-12_15h32.52.955,uncolored_sorted,2021.2.3,60.018641750411135,
C:\Users\subject\Desktop\SVRT Experiments\SVRT Experiment 3\svrt_images\generated_images\results_problem_17,C:\Users\subject\Desktop\SVRT Experiments\SVRT Experiment 3\svrt_images\generated_images\results_problem_19\sample_0_0015.png,C:\Users\subject\Desktop\SVRT Experiments\SVRT Experiment 3\svrt_images\generated_images\results_problem_14\sample_0_0005.png,C:\Users\subject\Desktop\SVRT Experiments\SVRT Experiment 3\svrt_images\generated_images\results_problem_17\sample_1_0009.png,,,,,,,,,,,,,,,,,,,,,0,2,2,2,0,11,11,11,,,,,,,,,,,,,,f,17,A,A,12,1,Correct!,3.45881410012953,461.37592069990933,None,461.37592069990933,None,464.85918759997,None,,,,,48,001,2023-05-12_15h32.52.955,uncolored_sorted,2021.2.3,60.018641750411135,
C:\Users\subject\Desktop\SVRT Experiments\SVRT Experiment 3\svrt_images\generated_images\results_problem_17,C:\Users\subject\Desktop\SVRT Experiments\SVRT Experiment 3\svrt_images\generated_images\results_problem_19\sample_0_0015.png,C:\Users\subject\Desktop\SVRT Experiments\SVRT Experiment 3\svrt_images\generated_images\results_problem_14\sample_0_0005.png,C:\Users\subject\Desktop\SVRT Experiments\SVRT Experiment 3\svrt_images\generated_images\results_problem_17\sample_1_0006.png,,,,,,,,,,,,,,,,,,,,,0,2,2,2,0,12,12,12,,,,,,,,,,,,,,j,17,B,A,12,0,Incorrect!,1.866175000090152,465.9924967000261,None,465.9924967000261,None,467.8757944998797,None,,,,,48,001,2023-05-12_15h32.52.955,uncolored_sorted,2021.2.3,60.018641750411135,
C:\Users\subject\Desktop\SVRT Experiments\SVRT Experiment 3\svrt_images\generated_images\results_problem_17,C:\Users\subject\Desktop\SVRT Experiments\SVRT Experiment 3\svrt_images\generated_images\results_problem_19\sample_0_0015.png,C:\Users\subject\Desktop\SVRT Experiments\SVRT Experiment 3\svrt_images\generated_images\results_problem_14\sample_0_0005.png,C:\Users\subject\Desktop\SVRT Experiments\SVRT Experiment 3\svrt_images\generated_images\results_problem_17\sample_1_0010.png,,,,,,,,,,,,,,,,,,,,,0,2,2,2,0,13,13,13,,,,,,,,,,,,,,f,17,A,A,12,1,Correct!,0.6337397000752389,469.00910359993577,None,469.00910359993577,None,469.6924501999747,None,,,,,48,001,2023-05-12_15h32.52.955,uncolored_sorted,2021.2.3,60.018641750411135,
C:\Users\subject\Desktop\SVRT Experiments\SVRT Experiment 3\svrt_images\generated_images\results_problem_17,C:\Users\subject\Desktop\SVRT Experiments\SVRT Experiment 3\svrt_images\generated_images\results_problem_19\sample_0_0015.png,C:\Users\subject\Desktop\SVRT Experiments\SVRT Experiment 3\svrt_images\generated_images\results_problem_14\sample_0_0005.png,C:\Users\subject\Desktop\SVRT Experiments\SVRT Experiment 3\svrt_images\generated_images\results_problem_17\sample_1_0011.png,,,,,,,,,,,,,,,,,,,,,0,2,2,2,0,14,14,14,,,,,,,,,,,,,,j,17,B,A,12,0,Incorrect!,1.8323367999400944,470.84239779994823,None,470.84239779994823,None,472.6923547000624,None,,,,,48,001,2023-05-12_15h32.52.955,uncolored_sorted,2021.2.3,60.018641750411135,
C:\Users\subject\Desktop\SVRT Experiments\SVRT Experiment 3\svrt_images\generated_images\results_problem_17,C:\Users\subject\Desktop\SVRT Experiments\SVRT Experiment 3\svrt_images\generated_images\results_problem_19\sample_0_0015.png,C:\Users\subject\Desktop\SVRT Experiments\SVRT Experiment 3\svrt_images\generated_images\results_problem_14\sample_0_0005.png,C:\Users\subject\Desktop\SVRT Experiments\SVRT Experiment 3\svrt_images\generated_images\results_problem_17\sample_0_0001.png,,,,,,,,,,,,,,,,,,,,,0,2,2,2,0,15,15,15,,,,,,,,,,,,,,j,17,B,B,12,1,Correct!,29.479629599954933,473.85902119986713,None,473.85902119986713,None,503.3750554998405,None,,,,,48,001,2023-05-12_15h32.52.955,uncolored_sorted,2021.2.3,60.018641750411135,
C:\Users\subject\Desktop\SVRT Experiments\SVRT Experiment 3\svrt_images\generated_images\results_problem_17,C:\Users\subject\Desktop\SVRT Experiments\SVRT Experiment 3\svrt_images\generated_images\results_problem_19\sample_0_0015.png,C:\Users\subject\Desktop\SVRT Experiments\SVRT Experiment 3\svrt_images\generated_images\results_problem_14\sample_0_0005.png,C:\Users\subject\Desktop\SVRT Experiments\SVRT Experiment 3\svrt_images\generated_images\results_problem_17\sample_0_0008.png,,,,,,,,,,,,,,,,,,,,,0,2,2,2,0,16,16,16,,,,,,,,,,,,,,f,17,A,B,12,0,Incorrect!,3.3322813000995666,504.55837109987624,None,504.55837109987624,None,507.90831169998273,None,,,,,48,001,2023-05-12_15h32.52.955,uncolored_sorted,2021.2.3,60.018641750411135,
C:\Users\subject\Desktop\SVRT Experiments\SVRT Experiment 3\svrt_images\generated_images\results_problem_17,C:\Users\subject\Desktop\SVRT Experiments\SVRT Experiment 3\svrt_images\generated_images\results_problem_19\sample_0_0015.png,C:\Users\subject\Desktop\SVRT Experiments\SVRT Experiment 3\svrt_images\generated_images\results_problem_14\sample_0_0005.png,C:\Users\subject\Desktop\SVRT Experiments\SVRT Experiment 3\svrt_images\generated_images\results_problem_17\sample_0_0012.png,,,,,,,,,,,,,,,,,,,,,0,2,2,2,0,17,17,17,,,,,,,,,,,,,,j,17,B,B,12,1,Correct!,63.454444400034845,509.10828169994056,None,509.10828169994056,None,572.5903547999915,None,,,,,48,001,2023-05-12_15h32.52.955,uncolored_sorted,2021.2.3,60.018641750411135,
C:\Users\subject\Desktop\SVRT Experiments\SVRT Experiment 3\svrt_images\generated_images\results_problem_17,C:\Users\subject\Desktop\SVRT Experiments\SVRT Experiment 3\svrt_images\generated_images\results_problem_19\sample_0_0015.png,C:\Users\subject\Desktop\SVRT Experiments\SVRT Experiment 3\svrt_images\generated_images\results_problem_14\sample_0_0005.png,C:\Users\subject\Desktop\SVRT Experiments\SVRT Experiment 3\svrt_images\generated_images\results_problem_17\sample_0_0003.png,,,,,,,,,,,,,,,,,,,,,0,2,2,2,0,18,18,18,,,,,,,,,,,,,,j,17,B,B,12,1,Correct!,0.8763705000746995,573.7903197999112,None,573.7903197999112,None,574.7069518000353,None,,,,,48,001,2023-05-12_15h32.52.955,uncolored_sorted,2021.2.3,60.018641750411135,
C:\Users\subject\Desktop\SVRT Experiments\SVRT Experiment 3\svrt_images\generated_images\results_problem_17,C:\Users\subject\Desktop\SVRT Experiments\SVRT Experiment 3\svrt_images\generated_images\results_problem_19\sample_0_0015.png,C:\Users\subject\Desktop\SVRT Experiments\SVRT Experiment 3\svrt_images\generated_images\results_problem_14\sample_0_0005.png,C:\Users\subject\Desktop\SVRT Experiments\SVRT Experiment 3\svrt_images\generated_images\results_problem_17\sample_0_0006.png,,,,,,,,,,,,,,,,,,,,,0,2,2,2,0,19,19,19,,,,,,,,,,,,,,j,17,B,B,12,1,Correct!,4.998942600097507,575.923632599879,None,575.923632599879,None,580.9401570998598,None,,,,,48,001,2023-05-12_15h32.52.955,uncolored_sorted,2021.2.3,60.018641750411135,
C:\Users\subject\Desktop\SVRT Experiments\SVRT Experiment 3\svrt_images\generated_images\results_problem_17,C:\Users\subject\Desktop\SVRT Experiments\SVRT Experiment 3\svrt_images\generated_images\results_problem_19\sample_0_0015.png,C:\Users\subject\Desktop\SVRT Experiments\SVRT Experiment 3\svrt_images\generated_images\results_problem_14\sample_0_0005.png,C:\Users\subject\Desktop\SVRT Experiments\SVRT Experiment 3\svrt_images\generated_images\results_problem_17\sample_1_0002.png,,,,,,,,,,,,,,,,,,,,,0,2,2,2,0,20,20,20,,,,,,,,,,,,,,j,17,B,A,12,0,Incorrect!,15.637823299970478,582.1568235000595,None,582.1568235000595,None,597.8231742999051,None,,,,,48,001,2023-05-12_15h32.52.955,uncolored_sorted,2021.2.3,60.018641750411135,
C:\Users\subject\Desktop\SVRT Experiments\SVRT Experiment 3\svrt_images\generated_images\results_problem_17,C:\Users\subject\Desktop\SVRT Experiments\SVRT Experiment 3\svrt_images\generated_images\results_problem_19\sample_0_0015.png,C:\Users\subject\Desktop\SVRT Experiments\SVRT Experiment 3\svrt_images\generated_images\results_problem_14\sample_0_0005.png,C:\Users\subject\Desktop\SVRT Experiments\SVRT Experiment 3\svrt_images\generated_images\results_problem_17\sample_1_0004.png,,,,,,,,,,,,,,,,,,,,,0,2,2,2,0,21,21,21,,,,,,,,,,,,,,j,17,B,A,12,0,Incorrect!,36.00139299989678,599.073173499899,None,599.073173499899,None,635.1057964998763,None,,,,,48,001,2023-05-12_15h32.52.955,uncolored_sorted,2021.2.3,60.018641750411135,
C:\Users\subject\Desktop\SVRT Experiments\SVRT Experiment 3\svrt_images\generated_images\results_problem_17,C:\Users\subject\Desktop\SVRT Experiments\SVRT Experiment 3\svrt_images\generated_images\results_problem_19\sample_0_0015.png,C:\Users\subject\Desktop\SVRT Experiments\SVRT Experiment 3\svrt_images\generated_images\results_problem_14\sample_0_0005.png,C:\Users\subject\Desktop\SVRT Experiments\SVRT Experiment 3\svrt_images\generated_images\results_problem_17\sample_1_0000.png,,,,,,,,,,,,,,,,,,,,,0,2,2,2,0,22,22,22,,,,,,,,,,,,,,j,17,B,A,12,0,Incorrect!,38.83080270001665,636.3557801998686,None,636.3557801998686,None,675.2216944999527,None,,,,,48,001,2023-05-12_15h32.52.955,uncolored_sorted,2021.2.3,60.018641750411135,
C:\Users\subject\Desktop\SVRT Experiments\SVRT Experiment 3\svrt_images\generated_images\results_problem_17,C:\Users\subject\Desktop\SVRT Experiments\SVRT Experiment 3\svrt_images\generated_images\results_problem_19\sample_0_0015.png,C:\Users\subject\Desktop\SVRT Experiments\SVRT Experiment 3\svrt_images\generated_images\results_problem_14\sample_0_0005.png,C:\Users\subject\Desktop\SVRT Experiments\SVRT Experiment 3\svrt_images\generated_images\results_problem_17\sample_0_0007.png,,,,,,,,,,,,,,,,,,,,,0,2,2,2,0,23,23,23,,,,,,,,,,,,,,f,17,A,B,12,0,Incorrect!,4.898280800087377,676.4883208998945,None,676.4883208998945,None,681.421570800012,None,,,,,48,001,2023-05-12_15h32.52.955,uncolored_sorted,2021.2.3,60.018641750411135,
C:\Users\subject\Desktop\SVRT Experiments\SVRT Experiment 3\svrt_images\generated_images\results_problem_17,C:\Users\subject\Desktop\SVRT Experiments\SVRT Experiment 3\svrt_images\generated_images\results_problem_19\sample_0_0015.png,C:\Users\subject\Desktop\SVRT Experiments\SVRT Experiment 3\svrt_images\generated_images\results_problem_14\sample_0_0005.png,C:\Users\subject\Desktop\SVRT Experiments\SVRT Experiment 3\svrt_images\generated_images\results_problem_17\sample_0_0013.png,,,,,,,,,,,,,,,,,,,,,0,2,2,2,0,24,24,24,,,,,,,,,,,,,,f,17,A,B,12,0,Incorrect!,59.98498099995777,682.7215728999581,None,682.7215728999581,None,742.7537590998691,None,,,,,48,001,2023-05-12_15h32.52.955,uncolored_sorted,2021.2.3,60.018641750411135,
C:\Users\subject\Desktop\SVRT Experiments\SVRT Experiment 3\svrt_images\generated_images\results_problem_17,C:\Users\subject\Desktop\SVRT Experiments\SVRT Experiment 3\svrt_images\generated_images\results_problem_19\sample_0_0015.png,C:\Users\subject\Desktop\SVRT Experiments\SVRT Experiment 3\svrt_images\generated_images\results_problem_14\sample_0_0005.png,C:\Users\subject\Desktop\SVRT Experiments\SVRT Experiment 3\svrt_images\generated_images\results_problem_17\sample_1_0012.png,,,,,,,,,,,,,,,,,,,,,0,2,2,2,0,25,25,25,,,,,,,,,,,,,,j,17,B,A,12,0,Incorrect!,176.50051870010793,744.0537988999858,None,744.0537988999858,None,920.6004538999405,None,,,,,48,001,2023-05-12_15h32.52.955,uncolored_sorted,2021.2.3,60.018641750411135,
C:\Users\subject\Desktop\SVRT Experiments\SVRT Experiment 3\svrt_images\generated_images\results_problem_17,C:\Users\subject\Desktop\SVRT Experiments\SVRT Experiment 3\svrt_images\generated_images\results_problem_19\sample_0_0015.png,C:\Users\subject\Desktop\SVRT Experiments\SVRT Experiment 3\svrt_images\generated_images\results_problem_14\sample_0_0005.png,C:\Users\subject\Desktop\SVRT Experiments\SVRT Experiment 3\svrt_images\generated_images\results_problem_17\sample_1_0013.png,,,,,,,,,,,,,,,,,,,,,0,2,2,2,0,26,26,26,,,,,,,,,,,,,,f,17,A,A,12,1,Correct!,0.7093423998448998,921.9171116000507,None,921.9171116000507,None,922.6504299000371,None,,,,,48,001,2023-05-12_15h32.52.955,uncolored_sorted,2021.2.3,60.018641750411135,
C:\Users\subject\Desktop\SVRT Experiments\SVRT Experiment 3\svrt_images\generated_images\results_problem_17,C:\Users\subject\Desktop\SVRT Experiments\SVRT Experiment 3\svrt_images\generated_images\results_problem_19\sample_0_0015.png,C:\Users\subject\Desktop\SVRT Experiments\SVRT Experiment 3\svrt_images\generated_images\results_problem_14\sample_0_0005.png,C:\Users\subject\Desktop\SVRT Experiments\SVRT Experiment 3\svrt_images\generated_images\results_problem_17\sample_0_0016.png,,,,,,,,,,,,,,,,,,,,,0,2,2,2,0,27,27,27,,,,,,,,,,,,,,j,17,B,B,12,1,Correct!,62.66650340007618,923.9837466999888,None,923.9837466999888,None,986.7492966998834,None,,,,,48,001,2023-05-12_15h32.52.955,uncolored_sorted,2021.2.3,60.018641750411135,
C:\Users\subject\Desktop\SVRT Experiments\SVRT Experiment 3\svrt_images\generated_images\results_problem_17,C:\Users\subject\Desktop\SVRT Experiments\SVRT Experiment 3\svrt_images\generated_images\results_problem_19\sample_0_0015.png,C:\Users\subject\Desktop\SVRT Experiments\SVRT Experiment 3\svrt_images\generated_images\results_problem_14\sample_0_0005.png,C:\Users\subject\Desktop\SVRT Experiments\SVRT Experiment 3\svrt_images\generated_images\results_problem_17\sample_0_0011.png,,,,,,,,,,,,,,,,,,,,,0,2,2,2,0,28,28,28,,,,,,,,,,,,,,j,17,B,B,12,1,Correct!,0.7990186000242829,988.0992455000523,None,988.0992455000523,None,988.949219699949,None,,,,,48,001,2023-05-12_15h32.52.955,uncolored_sorted,2021.2.3,60.018641750411135,
C:\Users\subject\Desktop\SVRT Experiments\SVRT Experiment 3\svrt_images\generated_images\results_problem_17,C:\Users\subject\Desktop\SVRT Experiments\SVRT Experiment 3\svrt_images\generated_images\results_problem_19\sample_0_0015.png,C:\Users\subject\Desktop\SVRT Experiments\SVRT Experiment 3\svrt_images\generated_images\results_problem_14\sample_0_0005.png,C:\Users\subject\Desktop\SVRT Experiments\SVRT Experiment 3\svrt_images\generated_images\results_problem_17\sample_0_0002.png,,,,,,,,,,,,,,,,,,,,,0,2,2,2,0,29,29,29,,,,,,,,,,,,,,j,17,B,B,12,1,Correct!,0.7751702999230474,990.2992082999554,None,990.2992082999554,None,991.0991724999622,None,,,,,48,001,2023-05-12_15h32.52.955,uncolored_sorted,2021.2.3,60.018641750411135,
C:\Users\subject\Desktop\SVRT Experiments\SVRT Experiment 3\svrt_images\generated_images\results_problem_17,C:\Users\subject\Desktop\SVRT Experiments\SVRT Experiment 3\svrt_images\generated_images\results_problem_19\sample_0_0015.png,C:\Users\subject\Desktop\SVRT Experiments\SVRT Experiment 3\svrt_images\generated_images\results_problem_14\sample_0_0005.png,C:\Users\subject\Desktop\SVRT Experiments\SVRT Experiment 3\svrt_images\generated_images\results_problem_17\sample_0_0014.png,,,,,,,,,,,,,,,,,,,,,0,2,2,2,0,30,30,30,,,,,,,,,,,,,,f,17,A,B,12,0,Incorrect!,3.7679351000115275,992.4824925998691,None,992.4824925998691,None,996.2990718998481,None,,,,,48,001,2023-05-12_15h32.52.955,uncolored_sorted,2021.2.3,60.018641750411135,
C:\Users\subject\Desktop\SVRT Experiments\SVRT Experiment 3\svrt_images\generated_images\results_problem_17,C:\Users\subject\Desktop\SVRT Experiments\SVRT Experiment 3\svrt_images\generated_images\results_problem_19\sample_0_0015.png,C:\Users\subject\Desktop\SVRT Experiments\SVRT Experiment 3\svrt_images\generated_images\results_problem_14\sample_0_0005.png,C:\Users\subject\Desktop\SVRT Experiments\SVRT Experiment 3\svrt_images\generated_images\results_problem_17\sample_0_0000.png,,,,,,,,,,,,,,,,,,,,,0,2,2,2,0,31,31,31,,,,,,,,,,,,,,j,17,B,B,12,1,Correct!,1.0639292001724243,997.6824113000184,None,997.6824113000184,None,998.799031100003,None,,,,,48,001,2023-05-12_15h32.52.955,uncolored_sorted,2021.2.3,60.018641750411135,
C:\Users\subject\Desktop\SVRT Experiments\SVRT Experiment 3\svrt_images\generated_images\results_problem_17,C:\Users\subject\Desktop\SVRT Experiments\SVRT Experiment 3\svrt_images\generated_images\results_problem_19\sample_0_0015.png,C:\Users\subject\Desktop\SVRT Experiments\SVRT Experiment 3\svrt_images\generated_images\results_problem_14\sample_0_0005.png,C:\Users\subject\Desktop\SVRT Experiments\SVRT Experiment 3\svrt_images\generated_images\results_problem_17\sample_0_0015.png,,,,,,,,,,,,,,,,,,,,,0,2,2,2,0,32,32,32,,,,,,,,,,,,,,j,17,B,B,12,1,Correct!,3.4906756998971105,1000.2156954000238,None,1000.2156954000238,None,1003.732273499947,None,,,,,48,001,2023-05-12_15h32.52.955,uncolored_sorted,2021.2.3,60.018641750411135,
C:\Users\subject\Desktop\SVRT Experiments\SVRT Experiment 3\svrt_images\generated_images\results_problem_17,C:\Users\subject\Desktop\SVRT Experiments\SVRT Experiment 3\svrt_images\generated_images\results_problem_19\sample_0_0015.png,C:\Users\subject\Desktop\SVRT Experiments\SVRT Experiment 3\svrt_images\generated_images\results_problem_14\sample_0_0005.png,C:\Users\subject\Desktop\SVRT Experiments\SVRT Experiment 3\svrt_images\generated_images\results_problem_17\sample_1_0014.png,,,,,,,,,,,,,,,,,,,,,0,2,2,2,0,33,33,33,,,,,,,,,,,,,,f,17,A,A,12,1,Correct!,1.8527722000144422,1005.1656309000682,None,1005.1656309000682,None,1007.048882199917,None,,,,,48,001,2023-05-12_15h32.52.955,uncolored_sorted,2021.2.3,60.018641750411135,
C:\Users\subject\Desktop\SVRT Experiments\SVRT Experiment 3\svrt_images\generated_images\results_problem_17,C:\Users\subject\Desktop\SVRT Experiments\SVRT Experiment 3\svrt_images\generated_images\results_problem_19\sample_0_0015.png,C:\Users\subject\Desktop\SVRT Experiments\SVRT Experiment 3\svrt_images\generated_images\results_problem_14\sample_0_0005.png,,,,,,,,,,,,,,,,,,,,,,0,2,2,2,0,20,20,20,,,,,,,,,,,,,,,,,,,,,,,,,,,,1008.048964999849,1008.048964999849,space,1.2413637000136077,48,001,2023-05-12_15h32.52.955,uncolored_sorted,2021.2.3,60.018641750411135,
C:\Users\subject\Desktop\SVRT Experiments\SVRT Experiment 3\svrt_images\generated_images\results_problem_13,C:\Users\subject\Desktop\SVRT Experiments\SVRT Experiment 3\svrt_images\generated_images\results_problem_19\sample_0_0015.png,C:\Users\subject\Desktop\SVRT Experiments\SVRT Experiment 3\svrt_images\generated_images\results_problem_14\sample_0_0005.png,,C:\Users\subject\Desktop\SVRT Experiments\SVRT Experiment 3\svrt_images\generated_images\results_problem_13\sample_0_0000.png,,,,,,,,,,,,,,,,,,,,0,3,3,3,0,0,0,0,,,,,,,,,,,,,,j,13,B,B,12,1,Correct!,7.75881230016239,1009.3155149000231,None,1009.3155149000231,None,1017.0987354000099,None,,,,,48,001,2023-05-12_15h32.52.955,uncolored_sorted,2021.2.3,60.018641750411135,
C:\Users\subject\Desktop\SVRT Experiments\SVRT Experiment 3\svrt_images\generated_images\results_problem_13,C:\Users\subject\Desktop\SVRT Experiments\SVRT Experiment 3\svrt_images\generated_images\results_problem_19\sample_0_0015.png,C:\Users\subject\Desktop\SVRT Experiments\SVRT Experiment 3\svrt_images\generated_images\results_problem_14\sample_0_0005.png,,C:\Users\subject\Desktop\SVRT Experiments\SVRT Experiment 3\svrt_images\generated_images\results_problem_13\sample_0_0006.png,,,,,,,,,,,,,,,,,,,,0,3,3,3,0,1,1,1,,,,,,,,,,,,,,f,13,A,B,12,0,Incorrect!,0.23887160001322627,1018.1153541998938,None,1018.1153541998938,None,1018.3820593999699,None,,,,,48,001,2023-05-12_15h32.52.955,uncolored_sorted,2021.2.3,60.018641750411135,
C:\Users\subject\Desktop\SVRT Experiments\SVRT Experiment 3\svrt_images\generated_images\results_problem_13,C:\Users\subject\Desktop\SVRT Experiments\SVRT Experiment 3\svrt_images\generated_images\results_problem_19\sample_0_0015.png,C:\Users\subject\Desktop\SVRT Experiments\SVRT Experiment 3\svrt_images\generated_images\results_problem_14\sample_0_0005.png,,C:\Users\subject\Desktop\SVRT Experiments\SVRT Experiment 3\svrt_images\generated_images\results_problem_13\sample_1_0002.png,,,,,,,,,,,,,,,,,,,,0,3,3,3,0,2,2,2,,,,,,,,,,,,,,f,13,A,A,12,1,Correct!,4.611464400077239,1019.3987596000079,None,1019.3987596000079,None,1024.0319211999886,None,,,,,48,001,2023-05-12_15h32.52.955,uncolored_sorted,2021.2.3,60.018641750411135,
C:\Users\subject\Desktop\SVRT Experiments\SVRT Experiment 3\svrt_images\generated_images\results_problem_13,C:\Users\subject\Desktop\SVRT Experiments\SVRT Experiment 3\svrt_images\generated_images\results_problem_19\sample_0_0015.png,C:\Users\subject\Desktop\SVRT Experiments\SVRT Experiment 3\svrt_images\generated_images\results_problem_14\sample_0_0005.png,,C:\Users\subject\Desktop\SVRT Experiments\SVRT Experiment 3\svrt_images\generated_images\results_problem_13\sample_1_0010.png,,,,,,,,,,,,,,,,,,,,0,3,3,3,0,3,3,3,,,,,,,,,,,,,,f,13,A,A,12,1,Correct!,1.0811383000109345,1025.0652224998921,None,1025.0652224998921,None,1026.1652362998575,None,,,,,48,001,2023-05-12_15h32.52.955,uncolored_sorted,2021.2.3,60.018641750411135,
C:\Users\subject\Desktop\SVRT Experiments\SVRT Experiment 3\svrt_images\generated_images\results_problem_13,C:\Users\subject\Desktop\SVRT Experiments\SVRT Experiment 3\svrt_images\generated_images\results_problem_19\sample_0_0015.png,C:\Users\subject\Desktop\SVRT Experiments\SVRT Experiment 3\svrt_images\generated_images\results_problem_14\sample_0_0005.png,,C:\Users\subject\Desktop\SVRT Experiments\SVRT Experiment 3\svrt_images\generated_images\results_problem_13\sample_0_0002.png,,,,,,,,,,,,,,,,,,,,0,3,3,3,0,4,4,4,,,,,,,,,,,,,,j,13,B,B,12,1,Correct!,1.299129999941215,1027.2152036998887,None,1027.2152036998887,None,1028.5317997999955,None,,,,,48,001,2023-05-12_15h32.52.955,uncolored_sorted,2021.2.3,60.018641750411135,
C:\Users\subject\Desktop\SVRT Experiments\SVRT Experiment 3\svrt_images\generated_images\results_problem_13,C:\Users\subject\Desktop\SVRT Experiments\SVRT Experiment 3\svrt_images\generated_images\results_problem_19\sample_0_0015.png,C:\Users\subject\Desktop\SVRT Experiments\SVRT Experiment 3\svrt_images\generated_images\results_problem_14\sample_0_0005.png,,C:\Users\subject\Desktop\SVRT Experiments\SVRT Experiment 3\svrt_images\generated_images\results_problem_13\sample_0_0012.png,,,,,,,,,,,,,,,,,,,,0,3,3,3,0,5,5,5,,,,,,,,,,,,,,j,13,B,B,12,1,Correct!,0.9004765001591295,1029.5818395998795,None,1029.5818395998795,None,1030.515158199938,None,,,,,48,001,2023-05-12_15h32.52.955,uncolored_sorted,2021.2.3,60.018641750411135,
C:\Users\subject\Desktop\SVRT Experiments\SVRT Experiment 3\svrt_images\generated_images\results_problem_13,C:\Users\subject\Desktop\SVRT Experiments\SVRT Experiment 3\svrt_images\generated_images\results_problem_19\sample_0_0015.png,C:\Users\subject\Desktop\SVRT Experiments\SVRT Experiment 3\svrt_images\generated_images\results_problem_14\sample_0_0005.png,,C:\Users\subject\Desktop\SVRT Experiments\SVRT Experiment 3\svrt_images\generated_images\results_problem_13\sample_0_0008.png,,,,,,,,,,,,,,,,,,,,0,3,3,3,0,6,6,6,,,,,,,,,,,,,,f,13,A,B,12,0,Incorrect!,0.6525154998525977,1031.5817887999583,None,1031.5817887999583,None,1032.2651009999681,None,,,,,48,001,2023-05-12_15h32.52.955,uncolored_sorted,2021.2.3,60.018641750411135,
C:\Users\subject\Desktop\SVRT Experiments\SVRT Experiment 3\svrt_images\generated_images\results_problem_13,C:\Users\subject\Desktop\SVRT Experiments\SVRT Experiment 3\svrt_images\generated_images\results_problem_19\sample_0_0015.png,C:\Users\subject\Desktop\SVRT Experiments\SVRT Experiment 3\svrt_images\generated_images\results_problem_14\sample_0_0005.png,,C:\Users\subject\Desktop\SVRT Experiments\SVRT Experiment 3\svrt_images\generated_images\results_problem_13\sample_1_0011.png,,,,,,,,,,,,,,,,,,,,0,3,3,3,0,7,7,7,,,,,,,,,,,,,,f,13,A,A,12,1,Correct!,17.44575129984878,1033.3484217999503,None,1033.3484217999503,None,1050.8147984000389,None,,,,,48,001,2023-05-12_15h32.52.955,uncolored_sorted,2021.2.3,60.018641750411135,
C:\Users\subject\Desktop\SVRT Experiments\SVRT Experiment 3\svrt_images\generated_images\results_problem_13,C:\Users\subject\Desktop\SVRT Experiments\SVRT Experiment 3\svrt_images\generated_images\results_problem_19\sample_0_0015.png,C:\Users\subject\Desktop\SVRT Experiments\SVRT Experiment 3\svrt_images\generated_images\results_problem_14\sample_0_0005.png,,C:\Users\subject\Desktop\SVRT Experiments\SVRT Experiment 3\svrt_images\generated_images\results_problem_13\sample_0_0007.png,,,,,,,,,,,,,,,,,,,,0,3,3,3,0,8,8,8,,,,,,,,,,,,,,j,13,B,B,12,1,Correct!,9.1281822999008,1051.8980930999387,None,1051.8980930999387,None,1061.0479373999406,None,,,,,48,001,2023-05-12_15h32.52.955,uncolored_sorted,2021.2.3,60.018641750411135,
C:\Users\subject\Desktop\SVRT Experiments\SVRT Experiment 3\svrt_images\generated_images\results_problem_13,C:\Users\subject\Desktop\SVRT Experiments\SVRT Experiment 3\svrt_images\generated_images\results_problem_19\sample_0_0015.png,C:\Users\subject\Desktop\SVRT Experiments\SVRT Experiment 3\svrt_images\generated_images\results_problem_14\sample_0_0005.png,,C:\Users\subject\Desktop\SVRT Experiments\SVRT Experiment 3\svrt_images\generated_images\results_problem_13\sample_0_0016.png,,,,,,,,,,,,,,,,,,,,0,3,3,3,0,9,9,9,,,,,,,,,,,,,,j,13,B,B,12,1,Correct!,1.4943866999819875,1062.1478961999528,None,1062.1478961999528,None,1063.6645428999327,None,,,,,48,001,2023-05-12_15h32.52.955,uncolored_sorted,2021.2.3,60.018641750411135,
C:\Users\subject\Desktop\SVRT Experiments\SVRT Experiment 3\svrt_images\generated_images\results_problem_13,C:\Users\subject\Desktop\SVRT Experiments\SVRT Experiment 3\svrt_images\generated_images\results_problem_19\sample_0_0015.png,C:\Users\subject\Desktop\SVRT Experiments\SVRT Experiment 3\svrt_images\generated_images\results_problem_14\sample_0_0005.png,,C:\Users\subject\Desktop\SVRT Experiments\SVRT Experiment 3\svrt_images\generated_images\results_problem_13\sample_0_0004.png,,,,,,,,,,,,,,,,,,,,0,3,3,3,0,10,10,10,,,,,,,,,,,,,,j,13,B,B,12,1,Correct!,0.9410317000001669,1064.7811864998657,None,1064.7811864998657,None,1065.7478036999237,None,,,,,48,001,2023-05-12_15h32.52.955,uncolored_sorted,2021.2.3,60.018641750411135,
C:\Users\subject\Desktop\SVRT Experiments\SVRT Experiment 3\svrt_images\generated_images\results_problem_13,C:\Users\subject\Desktop\SVRT Experiments\SVRT Experiment 3\svrt_images\generated_images\results_problem_19\sample_0_0015.png,C:\Users\subject\Desktop\SVRT Experiments\SVRT Experiment 3\svrt_images\generated_images\results_problem_14\sample_0_0005.png,,C:\Users\subject\Desktop\SVRT Experiments\SVRT Experiment 3\svrt_images\generated_images\results_problem_13\sample_1_0014.png,,,,,,,,,,,,,,,,,,,,0,3,3,3,0,11,11,11,,,,,,,,,,,,,,f,13,A,A,12,1,Correct!,1.8338711999822408,1066.8645025999285,None,1066.8645025999285,None,1068.747825199971,None,,,,,48,001,2023-05-12_15h32.52.955,uncolored_sorted,2021.2.3,60.018641750411135,
C:\Users\subject\Desktop\SVRT Experiments\SVRT Experiment 3\svrt_images\generated_images\results_problem_13,C:\Users\subject\Desktop\SVRT Experiments\SVRT Experiment 3\svrt_images\generated_images\results_problem_19\sample_0_0015.png,C:\Users\subject\Desktop\SVRT Experiments\SVRT Experiment 3\svrt_images\generated_images\results_problem_14\sample_0_0005.png,,C:\Users\subject\Desktop\SVRT Experiments\SVRT Experiment 3\svrt_images\generated_images\results_problem_13\sample_0_0003.png,,,,,,,,,,,,,,,,,,,,0,3,3,3,0,12,12,12,,,,,,,,,,,,,,j,13,B,B,12,1,Correct!,2.6172406000550836,1069.8811013000086,None,1069.8811013000086,None,1072.531043899944,None,,,,,48,001,2023-05-12_15h32.52.955,uncolored_sorted,2021.2.3,60.018641750411135,
C:\Users\subject\Desktop\SVRT Experiments\SVRT Experiment 3\svrt_images\generated_images\results_problem_13,C:\Users\subject\Desktop\SVRT Experiments\SVRT Experiment 3\svrt_images\generated_images\results_problem_19\sample_0_0015.png,C:\Users\subject\Desktop\SVRT Experiments\SVRT Experiment 3\svrt_images\generated_images\results_problem_14\sample_0_0005.png,,C:\Users\subject\Desktop\SVRT Experiments\SVRT Experiment 3\svrt_images\generated_images\results_problem_13\sample_0_0001.png,,,,,,,,,,,,,,,,,,,,0,3,3,3,0,13,13,13,,,,,,,,,,,,,,j,13,B,B,12,1,Correct!,3.6253164000809193,1073.681029099971,None,1073.681029099971,None,1077.3309726000298,None,,,,,48,001,2023-05-12_15h32.52.955,uncolored_sorted,2021.2.3,60.018641750411135,
C:\Users\subject\Desktop\SVRT Experiments\SVRT Experiment 3\svrt_images\generated_images\results_problem_13,C:\Users\subject\Desktop\SVRT Experiments\SVRT Experiment 3\svrt_images\generated_images\results_problem_19\sample_0_0015.png,C:\Users\subject\Desktop\SVRT Experiments\SVRT Experiment 3\svrt_images\generated_images\results_problem_14\sample_0_0005.png,,C:\Users\subject\Desktop\SVRT Experiments\SVRT Experiment 3\svrt_images\generated_images\results_problem_13\sample_0_0011.png,,,,,,,,,,,,,,,,,,,,0,3,3,3,0,14,14,14,,,,,,,,,,,,,,,,,,,,,,,,,,,,1078.3309563999064,1078.3309563999064,space,0.759349400177598,48,001,2023-05-12_15h32.52.955,uncolored_sorted,2021.2.3,60.018641750411135,
C:\Users\subject\Desktop\SVRT Experiments\SVRT Experiment 3\svrt_images\generated_images\results_problem_12,C:\Users\subject\Desktop\SVRT Experiments\SVRT Experiment 3\svrt_images\generated_images\results_problem_19\sample_0_0015.png,C:\Users\subject\Desktop\SVRT Experiments\SVRT Experiment 3\svrt_images\generated_images\results_problem_14\sample_0_0005.png,,C:\Users\subject\Desktop\SVRT Experiments\SVRT Experiment 3\svrt_images\generated_images\results_problem_13\sample_0_0011.png,C:\Users\subject\Desktop\SVRT Experiments\SVRT Experiment 3\svrt_images\generated_images\results_problem_12\sample_1_0004.png,,,,,,,,,,,,,,,,,,,0,4,4,4,0,0,0,0,,,,,,,,,,,,,,f,12,A,A,12,1,Correct!,4.887959700077772,1079.1142352998722,None,1079.1142352998722,None,1084.030954199843,None,,,,,48,001,2023-05-12_15h32.52.955,uncolored_sorted,2021.2.3,60.018641750411135,
C:\Users\subject\Desktop\SVRT Experiments\SVRT Experiment 3\svrt_images\generated_images\results_problem_12,C:\Users\subject\Desktop\SVRT Experiments\SVRT Experiment 3\svrt_images\generated_images\results_problem_19\sample_0_0015.png,C:\Users\subject\Desktop\SVRT Experiments\SVRT Experiment 3\svrt_images\generated_images\results_problem_14\sample_0_0005.png,,C:\Users\subject\Desktop\SVRT Experiments\SVRT Experiment 3\svrt_images\generated_images\results_problem_13\sample_0_0011.png,C:\Users\subject\Desktop\SVRT Experiments\SVRT Experiment 3\svrt_images\generated_images\results_problem_12\sample_0_0013.png,,,,,,,,,,,,,,,,,,,0,4,4,4,0,1,1,1,,,,,,,,,,,,,,j,12,B,B,12,1,Correct!,0.7708596000447869,1085.0474769999273,None,1085.0474769999273,None,1085.847469799919,None,,,,,48,001,2023-05-12_15h32.52.955,uncolored_sorted,2021.2.3,60.018641750411135,
C:\Users\subject\Desktop\SVRT Experiments\SVRT Experiment 3\svrt_images\generated_images\results_problem_12,C:\Users\subject\Desktop\SVRT Experiments\SVRT Experiment 3\svrt_images\generated_images\results_problem_19\sample_0_0015.png,C:\Users\subject\Desktop\SVRT Experiments\SVRT Experiment 3\svrt_images\generated_images\results_problem_14\sample_0_0005.png,,C:\Users\subject\Desktop\SVRT Experiments\SVRT Experiment 3\svrt_images\generated_images\results_problem_13\sample_0_0011.png,C:\Users\subject\Desktop\SVRT Experiments\SVRT Experiment 3\svrt_images\generated_images\results_problem_12\sample_1_0000.png,,,,,,,,,,,,,,,,,,,0,4,4,4,0,2,2,2,,,,,,,,,,,,,,j,12,B,A,12,0,Incorrect!,1.6021128001157194,1086.8641093999613,None,1086.8641093999613,None,1088.497416399885,None,,,,,48,001,2023-05-12_15h32.52.955,uncolored_sorted,2021.2.3,60.018641750411135,
C:\Users\subject\Desktop\SVRT Experiments\SVRT Experiment 3\svrt_images\generated_images\results_problem_12,C:\Users\subject\Desktop\SVRT Experiments\SVRT Experiment 3\svrt_images\generated_images\results_problem_19\sample_0_0015.png,C:\Users\subject\Desktop\SVRT Experiments\SVRT Experiment 3\svrt_images\generated_images\results_problem_14\sample_0_0005.png,,C:\Users\subject\Desktop\SVRT Experiments\SVRT Experiment 3\svrt_images\generated_images\results_problem_13\sample_0_0011.png,C:\Users\subject\Desktop\SVRT Experiments\SVRT Experiment 3\svrt_images\generated_images\results_problem_12\sample_1_0001.png,,,,,,,,,,,,,,,,,,,0,4,4,4,0,3,3,3,,,,,,,,,,,,,,f,12,A,A,12,1,Correct!,0.22358059999532998,1089.5307686000597,None,1089.5307686000597,None,1089.7807370999362,None,,,,,48,001,2023-05-12_15h32.52.955,uncolored_sorted,2021.2.3,60.018641750411135,
C:\Users\subject\Desktop\SVRT Experiments\SVRT Experiment 3\svrt_images\generated_images\results_problem_12,C:\Users\subject\Desktop\SVRT Experiments\SVRT Experiment 3\svrt_images\generated_images\results_problem_19\sample_0_0015.png,C:\Users\subject\Desktop\SVRT Experiments\SVRT Experiment 3\svrt_images\generated_images\results_problem_14\sample_0_0005.png,,C:\Users\subject\Desktop\SVRT Experiments\SVRT Experiment 3\svrt_images\generated_images\results_problem_13\sample_0_0011.png,C:\Users\subject\Desktop\SVRT Experiments\SVRT Experiment 3\svrt_images\generated_images\results_problem_12\sample_1_0015.png,,,,,,,,,,,,,,,,,,,0,4,4,4,0,4,4,4,,,,,,,,,,,,,,j,12,B,A,12,0,Incorrect!,0.2114834999665618,1090.830748599954,None,1090.830748599954,None,1091.064023999963,None,,,,,48,001,2023-05-12_15h32.52.955,uncolored_sorted,2021.2.3,60.018641750411135,
C:\Users\subject\Desktop\SVRT Experiments\SVRT Experiment 3\svrt_images\generated_images\results_problem_12,C:\Users\subject\Desktop\SVRT Experiments\SVRT Experiment 3\svrt_images\generated_images\results_problem_19\sample_0_0015.png,C:\Users\subject\Desktop\SVRT Experiments\SVRT Experiment 3\svrt_images\generated_images\results_problem_14\sample_0_0005.png,,C:\Users\subject\Desktop\SVRT Experiments\SVRT Experiment 3\svrt_images\generated_images\results_problem_13\sample_0_0011.png,C:\Users\subject\Desktop\SVRT Experiments\SVRT Experiment 3\svrt_images\generated_images\results_problem_12\sample_1_0008.png,,,,,,,,,,,,,,,,,,,0,4,4,4,0,5,5,5,,,,,,,,,,,,,,j,12,B,A,12,0,Incorrect!,0.59863519994542,1092.115767299896,None,1092.115767299896,None,1092.747338199988,None,,,,,48,001,2023-05-12_15h32.52.955,uncolored_sorted,2021.2.3,60.018641750411135,
C:\Users\subject\Desktop\SVRT Experiments\SVRT Experiment 3\svrt_images\generated_images\results_problem_12,C:\Users\subject\Desktop\SVRT Experiments\SVRT Experiment 3\svrt_images\generated_images\results_problem_19\sample_0_0015.png,C:\Users\subject\Desktop\SVRT Experiments\SVRT Experiment 3\svrt_images\generated_images\results_problem_14\sample_0_0005.png,,C:\Users\subject\Desktop\SVRT Experiments\SVRT Experiment 3\svrt_images\generated_images\results_problem_13\sample_0_0011.png,C:\Users\subject\Desktop\SVRT Experiments\SVRT Experiment 3\svrt_images\generated_images\results_problem_12\sample_0_0000.png,,,,,,,,,,,,,,,,,,,0,4,4,4,0,6,6,6,,,,,,,,,,,,,,f,12,A,B,12,0,Incorrect!,0.6364154999610037,1093.8140044000465,None,1093.8140044000465,None,1094.4806472999044,None,,,,,48,001,2023-05-12_15h32.52.955,uncolored_sorted,2021.2.3,60.018641750411135,
C:\Users\subject\Desktop\SVRT Experiments\SVRT Experiment 3\svrt_images\generated_images\results_problem_12,C:\Users\subject\Desktop\SVRT Experiments\SVRT Experiment 3\svrt_images\generated_images\results_problem_19\sample_0_0015.png,C:\Users\subject\Desktop\SVRT Experiments\SVRT Experiment 3\svrt_images\generated_images\results_problem_14\sample_0_0005.png,,C:\Users\subject\Desktop\SVRT Experiments\SVRT Experiment 3\svrt_images\generated_images\results_problem_13\sample_0_0011.png,C:\Users\subject\Desktop\SVRT Experiments\SVRT Experiment 3\svrt_images\generated_images\results_problem_12\sample_1_0011.png,,,,,,,,,,,,,,,,,,,0,4,4,4,0,7,7,7,,,,,,,,,,,,,,j,12,B,A,12,0,Incorrect!,5.614920400083065,1095.5473014998715,None,1095.5473014998715,None,1101.1805253999773,None,,,,,48,001,2023-05-12_15h32.52.955,uncolored_sorted,2021.2.3,60.018641750411135,
C:\Users\subject\Desktop\SVRT Experiments\SVRT Experiment 3\svrt_images\generated_images\results_problem_12,C:\Users\subject\Desktop\SVRT Experiments\SVRT Experiment 3\svrt_images\generated_images\results_problem_19\sample_0_0015.png,C:\Users\subject\Desktop\SVRT Experiments\SVRT Experiment 3\svrt_images\generated_images\results_problem_14\sample_0_0005.png,,C:\Users\subject\Desktop\SVRT Experiments\SVRT Experiment 3\svrt_images\generated_images\results_problem_13\sample_0_0011.png,C:\Users\subject\Desktop\SVRT Experiments\SVRT Experiment 3\svrt_images\generated_images\results_problem_12\sample_0_0005.png,,,,,,,,,,,,,,,,,,,0,4,4,4,0,8,8,8,,,,,,,,,,,,,,j,12,B,B,12,1,Correct!,0.31442350009456277,1102.2638034999836,None,1102.2638034999836,None,1102.597171699861,None,,,,,48,001,2023-05-12_15h32.52.955,uncolored_sorted,2021.2.3,60.018641750411135,
C:\Users\subject\Desktop\SVRT Experiments\SVRT Experiment 3\svrt_images\generated_images\results_problem_12,C:\Users\subject\Desktop\SVRT Experiments\SVRT Experiment 3\svrt_images\generated_images\results_problem_19\sample_0_0015.png,C:\Users\subject\Desktop\SVRT Experiments\SVRT Experiment 3\svrt_images\generated_images\results_problem_14\sample_0_0005.png,,C:\Users\subject\Desktop\SVRT Experiments\SVRT Experiment 3\svrt_images\generated_images\results_problem_13\sample_0_0011.png,C:\Users\subject\Desktop\SVRT Experiments\SVRT Experiment 3\svrt_images\generated_images\results_problem_12\sample_0_0006.png,,,,,,,,,,,,,,,,,,,0,4,4,4,0,9,9,9,,,,,,,,,,,,,,j,12,B,B,12,1,Correct!,12.753259200137109,1103.6971461998764,None,1103.6971461998764,None,1116.480232700007,None,,,,,48,001,2023-05-12_15h32.52.955,uncolored_sorted,2021.2.3,60.018641750411135,
C:\Users\subject\Desktop\SVRT Experiments\SVRT Experiment 3\svrt_images\generated_images\results_problem_12,C:\Users\subject\Desktop\SVRT Experiments\SVRT Experiment 3\svrt_images\generated_images\results_problem_19\sample_0_0015.png,C:\Users\subject\Desktop\SVRT Experiments\SVRT Experiment 3\svrt_images\generated_images\results_problem_14\sample_0_0005.png,,C:\Users\subject\Desktop\SVRT Experiments\SVRT Experiment 3\svrt_images\generated_images\results_problem_13\sample_0_0011.png,C:\Users\subject\Desktop\SVRT Experiments\SVRT Experiment 3\svrt_images\generated_images\results_problem_12\sample_1_0003.png,,,,,,,,,,,,,,,,,,,0,4,4,4,0,10,10,10,,,,,,,,,,,,,,f,12,A,A,12,1,Correct!,0.5019932000432163,1117.5802341999952,None,1117.5802341999952,None,1118.1135829000268,None,,,,,48,001,2023-05-12_15h32.52.955,uncolored_sorted,2021.2.3,60.018641750411135,
C:\Users\subject\Desktop\SVRT Experiments\SVRT Experiment 3\svrt_images\generated_images\results_problem_12,C:\Users\subject\Desktop\SVRT Experiments\SVRT Experiment 3\svrt_images\generated_images\results_problem_19\sample_0_0015.png,C:\Users\subject\Desktop\SVRT Experiments\SVRT Experiment 3\svrt_images\generated_images\results_problem_14\sample_0_0005.png,,C:\Users\subject\Desktop\SVRT Experiments\SVRT Experiment 3\svrt_images\generated_images\results_problem_13\sample_0_0011.png,C:\Users\subject\Desktop\SVRT Experiments\SVRT Experiment 3\svrt_images\generated_images\results_problem_12\sample_0_0015.png,,,,,,,,,,,,,,,,,,,0,4,4,4,0,11,11,11,,,,,,,,,,,,,,j,12,B,B,12,1,Correct!,0.8839853000827134,1119.2302157999948,None,1119.2302157999948,None,1120.1468517000321,None,,,,,48,001,2023-05-12_15h32.52.955,uncolored_sorted,2021.2.3,60.018641750411135,
C:\Users\subject\Desktop\SVRT Experiments\SVRT Experiment 3\svrt_images\generated_images\results_problem_12,C:\Users\subject\Desktop\SVRT Experiments\SVRT Experiment 3\svrt_images\generated_images\results_problem_19\sample_0_0015.png,C:\Users\subject\Desktop\SVRT Experiments\SVRT Experiment 3\svrt_images\generated_images\results_problem_14\sample_0_0005.png,,C:\Users\subject\Desktop\SVRT Experiments\SVRT Experiment 3\svrt_images\generated_images\results_problem_13\sample_0_0011.png,C:\Users\subject\Desktop\SVRT Experiments\SVRT Experiment 3\svrt_images\generated_images\results_problem_12\sample_1_0007.png,,,,,,,,,,,,,,,,,,,0,4,4,4,0,12,12,12,,,,,,,,,,,,,,f,12,A,A,12,1,Correct!,0.5140035999938846,1121.2801709000487,None,1121.2801709000487,None,1121.8301484000403,None,,,,,48,001,2023-05-12_15h32.52.955,uncolored_sorted,2021.2.3,60.018641750411135,
C:\Users\subject\Desktop\SVRT Experiments\SVRT Experiment 3\svrt_images\generated_images\results_problem_12,C:\Users\subject\Desktop\SVRT Experiments\SVRT Experiment 3\svrt_images\generated_images\results_problem_19\sample_0_0015.png,C:\Users\subject\Desktop\SVRT Experiments\SVRT Experiment 3\svrt_images\generated_images\results_problem_14\sample_0_0005.png,,C:\Users\subject\Desktop\SVRT Experiments\SVRT Experiment 3\svrt_images\generated_images\results_problem_13\sample_0_0011.png,C:\Users\subject\Desktop\SVRT Experiments\SVRT Experiment 3\svrt_images\generated_images\results_problem_12\sample_0_0007.png,,,,,,,,,,,,,,,,,,,0,4,4,4,0,13,13,13,,,,,,,,,,,,,,j,12,B,B,12,1,Correct!,0.5499718999490142,1122.9801552998833,None,1122.9801552998833,None,1123.563436199911,None,,,,,48,001,2023-05-12_15h32.52.955,uncolored_sorted,2021.2.3,60.018641750411135,
C:\Users\subject\Desktop\SVRT Experiments\SVRT Experiment 3\svrt_images\generated_images\results_problem_12,C:\Users\subject\Desktop\SVRT Experiments\SVRT Experiment 3\svrt_images\generated_images\results_problem_19\sample_0_0015.png,C:\Users\subject\Desktop\SVRT Experiments\SVRT Experiment 3\svrt_images\generated_images\results_problem_14\sample_0_0005.png,,C:\Users\subject\Desktop\SVRT Experiments\SVRT Experiment 3\svrt_images\generated_images\results_problem_13\sample_0_0011.png,C:\Users\subject\Desktop\SVRT Experiments\SVRT Experiment 3\svrt_images\generated_images\results_problem_12\sample_0_0014.png,,,,,,,,,,,,,,,,,,,0,4,4,4,0,14,14,14,,,,,,,,,,,,,,j,12,B,B,12,1,Correct!,0.6968198998365551,1124.7134414999746,None,1124.7134414999746,None,1125.4300826999824,None,,,,,48,001,2023-05-12_15h32.52.955,uncolored_sorted,2021.2.3,60.018641750411135,
C:\Users\subject\Desktop\SVRT Experiments\SVRT Experiment 3\svrt_images\generated_images\results_problem_12,C:\Users\subject\Desktop\SVRT Experiments\SVRT Experiment 3\svrt_images\generated_images\results_problem_19\sample_0_0015.png,C:\Users\subject\Desktop\SVRT Experiments\SVRT Experiment 3\svrt_images\generated_images\results_problem_14\sample_0_0005.png,,C:\Users\subject\Desktop\SVRT Experiments\SVRT Experiment 3\svrt_images\generated_images\results_problem_13\sample_0_0011.png,C:\Users\subject\Desktop\SVRT Experiments\SVRT Experiment 3\svrt_images\generated_images\results_problem_12\sample_1_0014.png,,,,,,,,,,,,,,,,,,,0,4,4,4,0,15,15,15,,,,,,,,,,,,,,,,,,,,,,,,,,,,1126.430082899984,1126.430082899984,space,1.044153800001368,48,001,2023-05-12_15h32.52.955,uncolored_sorted,2021.2.3,60.018641750411135,
C:\Users\subject\Desktop\SVRT Experiments\SVRT Experiment 3\svrt_images\generated_images\results_problem_23,C:\Users\subject\Desktop\SVRT Experiments\SVRT Experiment 3\svrt_images\generated_images\results_problem_19\sample_0_0015.png,C:\Users\subject\Desktop\SVRT Experiments\SVRT Experiment 3\svrt_images\generated_images\results_problem_14\sample_0_0005.png,,C:\Users\subject\Desktop\SVRT Experiments\SVRT Experiment 3\svrt_images\generated_images\results_problem_13\sample_0_0011.png,C:\Users\subject\Desktop\SVRT Experiments\SVRT Experiment 3\svrt_images\generated_images\results_problem_12\sample_1_0014.png,C:\Users\subject\Desktop\SVRT Experiments\SVRT Experiment 3\svrt_images\generated_images\results_problem_23\sample_1_0008.png,,,,,,,,,,,,,,,,,,0,5,5,5,0,0,0,0,,,,,,,,,,,,,,f,23,A,A,12,1,Correct!,4.6976065000053495,1127.4967382999603,None,1127.4967382999603,None,1132.213296300033,None,,,,,48,001,2023-05-12_15h32.52.955,uncolored_sorted,2021.2.3,60.018641750411135,
C:\Users\subject\Desktop\SVRT Experiments\SVRT Experiment 3\svrt_images\generated_images\results_problem_23,C:\Users\subject\Desktop\SVRT Experiments\SVRT Experiment 3\svrt_images\generated_images\results_problem_19\sample_0_0015.png,C:\Users\subject\Desktop\SVRT Experiments\SVRT Experiment 3\svrt_images\generated_images\results_problem_14\sample_0_0005.png,,C:\Users\subject\Desktop\SVRT Experiments\SVRT Experiment 3\svrt_images\generated_images\results_problem_13\sample_0_0011.png,C:\Users\subject\Desktop\SVRT Experiments\SVRT Experiment 3\svrt_images\generated_images\results_problem_12\sample_1_0014.png,C:\Users\subject\Desktop\SVRT Experiments\SVRT Experiment 3\svrt_images\generated_images\results_problem_23\sample_1_0007.png,,,,,,,,,,,,,,,,,,0,5,5,5,0,1,1,1,,,,,,,,,,,,,,j,23,B,A,12,0,Incorrect!,0.540318600134924,1133.2299641999416,None,1133.2299641999416,None,1133.7965992998797,None,,,,,48,001,2023-05-12_15h32.52.955,uncolored_sorted,2021.2.3,60.018641750411135,
C:\Users\subject\Desktop\SVRT Experiments\SVRT Experiment 3\svrt_images\generated_images\results_problem_23,C:\Users\subject\Desktop\SVRT Experiments\SVRT Experiment 3\svrt_images\generated_images\results_problem_19\sample_0_0015.png,C:\Users\subject\Desktop\SVRT Experiments\SVRT Experiment 3\svrt_images\generated_images\results_problem_14\sample_0_0005.png,,C:\Users\subject\Desktop\SVRT Experiments\SVRT Experiment 3\svrt_images\generated_images\results_problem_13\sample_0_0011.png,C:\Users\subject\Desktop\SVRT Experiments\SVRT Experiment 3\svrt_images\generated_images\results_problem_12\sample_1_0014.png,C:\Users\subject\Desktop\SVRT Experiments\SVRT Experiment 3\svrt_images\generated_images\results_problem_23\sample_0_0000.png,,,,,,,,,,,,,,,,,,0,5,5,5,0,2,2,2,,,,,,,,,,,,,,f,23,A,B,12,0,Incorrect!,0.2770301001146436,1134.8132443998475,None,1134.8132443998475,None,1135.113239399856,None,,,,,48,001,2023-05-12_15h32.52.955,uncolored_sorted,2021.2.3,60.018641750411135,
C:\Users\subject\Desktop\SVRT Experiments\SVRT Experiment 3\svrt_images\generated_images\results_problem_23,C:\Users\subject\Desktop\SVRT Experiments\SVRT Experiment 3\svrt_images\generated_images\results_problem_19\sample_0_0015.png,C:\Users\subject\Desktop\SVRT Experiments\SVRT Experiment 3\svrt_images\generated_images\results_problem_14\sample_0_0005.png,,C:\Users\subject\Desktop\SVRT Experiments\SVRT Experiment 3\svrt_images\generated_images\results_problem_13\sample_0_0011.png,C:\Users\subject\Desktop\SVRT Experiments\SVRT Experiment 3\svrt_images\generated_images\results_problem_12\sample_1_0014.png,C:\Users\subject\Desktop\SVRT Experiments\SVRT Experiment 3\svrt_images\generated_images\results_problem_23\sample_0_0008.png,,,,,,,,,,,,,,,,,,0,5,5,5,0,3,3,3,,,,,,,,,,,,,,j,23,B,B,12,1,Correct!,0.039736400125548244,1136.1465632999316,None,1136.1465632999316,None,1136.213237500051,None,,,,,48,001,2023-05-12_15h32.52.955,uncolored_sorted,2021.2.3,60.018641750411135,
C:\Users\subject\Desktop\SVRT Experiments\SVRT Experiment 3\svrt_images\generated_images\results_problem_23,C:\Users\subject\Desktop\SVRT Experiments\SVRT Experiment 3\svrt_images\generated_images\results_problem_19\sample_0_0015.png,C:\Users\subject\Desktop\SVRT Experiments\SVRT Experiment 3\svrt_images\generated_images\results_problem_14\sample_0_0005.png,,C:\Users\subject\Desktop\SVRT Experiments\SVRT Experiment 3\svrt_images\generated_images\results_problem_13\sample_0_0011.png,C:\Users\subject\Desktop\SVRT Experiments\SVRT Experiment 3\svrt_images\generated_images\results_problem_12\sample_1_0014.png,C:\Users\subject\Desktop\SVRT Experiments\SVRT Experiment 3\svrt_images\generated_images\results_problem_23\sample_1_0014.png,,,,,,,,,,,,,,,,,,0,5,5,5,0,4,4,4,,,,,,,,,,,,,,j,23,B,A,12,0,Incorrect!,0.41094259987585247,1137.2632277999073,None,1137.2632277999073,None,1137.696534999879,None,,,,,48,001,2023-05-12_15h32.52.955,uncolored_sorted,2021.2.3,60.018641750411135,
C:\Users\subject\Desktop\SVRT Experiments\SVRT Experiment 3\svrt_images\generated_images\results_problem_23,C:\Users\subject\Desktop\SVRT Experiments\SVRT Experiment 3\svrt_images\generated_images\results_problem_19\sample_0_0015.png,C:\Users\subject\Desktop\SVRT Experiments\SVRT Experiment 3\svrt_images\generated_images\results_problem_14\sample_0_0005.png,,C:\Users\subject\Desktop\SVRT Experiments\SVRT Experiment 3\svrt_images\generated_images\results_problem_13\sample_0_0011.png,C:\Users\subject\Desktop\SVRT Experiments\SVRT Experiment 3\svrt_images\generated_images\results_problem_12\sample_1_0014.png,C:\Users\subject\Desktop\SVRT Experiments\SVRT Experiment 3\svrt_images\generated_images\results_problem_23\sample_0_0011.png,,,,,,,,,,,,,,,,,,0,5,5,5,0,5,5,5,,,,,,,,,,,,,,j,23,B,B,12,1,Correct!,0.23095010011456907,1138.7633028000128,None,1138.7633028000128,None,1139.013177299872,None,,,,,48,001,2023-05-12_15h32.52.955,uncolored_sorted,2021.2.3,60.018641750411135,
C:\Users\subject\Desktop\SVRT Experiments\SVRT Experiment 3\svrt_images\generated_images\results_problem_23,C:\Users\subject\Desktop\SVRT Experiments\SVRT Experiment 3\svrt_images\generated_images\results_problem_19\sample_0_0015.png,C:\Users\subject\Desktop\SVRT Experiments\SVRT Experiment 3\svrt_images\generated_images\results_problem_14\sample_0_0005.png,,C:\Users\subject\Desktop\SVRT Experiments\SVRT Experiment 3\svrt_images\generated_images\results_problem_13\sample_0_0011.png,C:\Users\subject\Desktop\SVRT Experiments\SVRT Experiment 3\svrt_images\generated_images\results_problem_12\sample_1_0014.png,C:\Users\subject\Desktop\SVRT Experiments\SVRT Experiment 3\svrt_images\generated_images\results_problem_23\sample_0_0015.png,,,,,,,,,,,,,,,,,,0,5,5,5,0,6,6,6,,,,,,,,,,,,,,j,23,B,B,12,1,Correct!,0.26627860008738935,1140.0798136999365,None,1140.0798136999365,None,1140.3630691000726,None,,,,,48,001,2023-05-12_15h32.52.955,uncolored_sorted,2021.2.3,60.018641750411135,
C:\Users\subject\Desktop\SVRT Experiments\SVRT Experiment 3\svrt_images\generated_images\results_problem_23,C:\Users\subject\Desktop\SVRT Experiments\SVRT Experiment 3\svrt_images\generated_images\results_problem_19\sample_0_0015.png,C:\Users\subject\Desktop\SVRT Experiments\SVRT Experiment 3\svrt_images\generated_images\results_problem_14\sample_0_0005.png,,C:\Users\subject\Desktop\SVRT Experiments\SVRT Experiment 3\svrt_images\generated_images\results_problem_13\sample_0_0011.png,C:\Users\subject\Desktop\SVRT Experiments\SVRT Experiment 3\svrt_images\generated_images\results_problem_12\sample_1_0014.png,C:\Users\subject\Desktop\SVRT Experiments\SVRT Experiment 3\svrt_images\generated_images\results_problem_23\sample_1_0016.png,,,,,,,,,,,,,,,,,,0,5,5,5,0,7,7,7,,,,,,,,,,,,,,j,23,B,A,12,0,Incorrect!,0.17246300005353987,1141.429802000057,None,1141.429802000057,None,1141.629793100059,None,,,,,48,001,2023-05-12_15h32.52.955,uncolored_sorted,2021.2.3,60.018641750411135,
C:\Users\subject\Desktop\SVRT Experiments\SVRT Experiment 3\svrt_images\generated_images\results_problem_23,C:\Users\subject\Desktop\SVRT Experiments\SVRT Experiment 3\svrt_images\generated_images\results_problem_19\sample_0_0015.png,C:\Users\subject\Desktop\SVRT Experiments\SVRT Experiment 3\svrt_images\generated_images\results_problem_14\sample_0_0005.png,,C:\Users\subject\Desktop\SVRT Experiments\SVRT Experiment 3\svrt_images\generated_images\results_problem_13\sample_0_0011.png,C:\Users\subject\Desktop\SVRT Experiments\SVRT Experiment 3\svrt_images\generated_images\results_problem_12\sample_1_0014.png,C:\Users\subject\Desktop\SVRT Experiments\SVRT Experiment 3\svrt_images\generated_images\results_problem_23\sample_0_0014.png,,,,,,,,,,,,,,,,,,0,5,5,5,0,8,8,8,,,,,,,,,,,,,,j,23,B,B,12,1,Correct!,21.545142399845645,1142.7131131999195,None,1142.7131131999195,None,1164.279374100035,None,,,,,48,001,2023-05-12_15h32.52.955,uncolored_sorted,2021.2.3,60.018641750411135,
C:\Users\subject\Desktop\SVRT Experiments\SVRT Experiment 3\svrt_images\generated_images\results_problem_23,C:\Users\subject\Desktop\SVRT Experiments\SVRT Experiment 3\svrt_images\generated_images\results_problem_19\sample_0_0015.png,C:\Users\subject\Desktop\SVRT Experiments\SVRT Experiment 3\svrt_images\generated_images\results_problem_14\sample_0_0005.png,,C:\Users\subject\Desktop\SVRT Experiments\SVRT Experiment 3\svrt_images\generated_images\results_problem_13\sample_0_0011.png,C:\Users\subject\Desktop\SVRT Experiments\SVRT Experiment 3\svrt_images\generated_images\results_problem_12\sample_1_0014.png,C:\Users\subject\Desktop\SVRT Experiments\SVRT Experiment 3\svrt_images\generated_images\results_problem_23\sample_1_0009.png,,,,,,,,,,,,,,,,,,0,5,5,5,0,9,9,9,,,,,,,,,,,,,,f,23,A,A,12,1,Correct!,0.5029328998643905,1165.3793669999577,None,1165.3793669999577,None,1165.9126800000668,None,,,,,48,001,2023-05-12_15h32.52.955,uncolored_sorted,2021.2.3,60.018641750411135,
C:\Users\subject\Desktop\SVRT Experiments\SVRT Experiment 3\svrt_images\generated_images\results_problem_23,C:\Users\subject\Desktop\SVRT Experiments\SVRT Experiment 3\svrt_images\generated_images\results_problem_19\sample_0_0015.png,C:\Users\subject\Desktop\SVRT Experiments\SVRT Experiment 3\svrt_images\generated_images\results_problem_14\sample_0_0005.png,,C:\Users\subject\Desktop\SVRT Experiments\SVRT Experiment 3\svrt_images\generated_images\results_problem_13\sample_0_0011.png,C:\Users\subject\Desktop\SVRT Experiments\SVRT Experiment 3\svrt_images\generated_images\results_problem_12\sample_1_0014.png,C:\Users\subject\Desktop\SVRT Experiments\SVRT Experiment 3\svrt_images\generated_images\results_problem_23\sample_1_0003.png,,,,,,,,,,,,,,,,,,0,5,5,5,0,10,10,10,,,,,,,,,,,,,,f,23,A,A,12,1,Correct!,1.1889088000170887,1167.0293290999252,None,1167.0293290999252,None,1168.2459716999438,None,,,,,48,001,2023-05-12_15h32.52.955,uncolored_sorted,2021.2.3,60.018641750411135,
C:\Users\subject\Desktop\SVRT Experiments\SVRT Experiment 3\svrt_images\generated_images\results_problem_23,C:\Users\subject\Desktop\SVRT Experiments\SVRT Experiment 3\svrt_images\generated_images\results_problem_19\sample_0_0015.png,C:\Users\subject\Desktop\SVRT Experiments\SVRT Experiment 3\svrt_images\generated_images\results_problem_14\sample_0_0005.png,,C:\Users\subject\Desktop\SVRT Experiments\SVRT Experiment 3\svrt_images\generated_images\results_problem_13\sample_0_0011.png,C:\Users\subject\Desktop\SVRT Experiments\SVRT Experiment 3\svrt_images\generated_images\results_problem_12\sample_1_0014.png,C:\Users\subject\Desktop\SVRT Experiments\SVRT Experiment 3\svrt_images\generated_images\results_problem_23\sample_1_0012.png,,,,,,,,,,,,,,,,,,0,5,5,5,0,11,11,11,,,,,,,,,,,,,,f,23,A,A,12,1,Correct!,0.7990022001322359,1169.3792961998843,None,1169.3792961998843,None,1170.1959406000096,None,,,,,48,001,2023-05-12_15h32.52.955,uncolored_sorted,2021.2.3,60.018641750411135,
C:\Users\subject\Desktop\SVRT Experiments\SVRT Experiment 3\svrt_images\generated_images\results_problem_23,C:\Users\subject\Desktop\SVRT Experiments\SVRT Experiment 3\svrt_images\generated_images\results_problem_19\sample_0_0015.png,C:\Users\subject\Desktop\SVRT Experiments\SVRT Experiment 3\svrt_images\generated_images\results_problem_14\sample_0_0005.png,,C:\Users\subject\Desktop\SVRT Experiments\SVRT Experiment 3\svrt_images\generated_images\results_problem_13\sample_0_0011.png,C:\Users\subject\Desktop\SVRT Experiments\SVRT Experiment 3\svrt_images\generated_images\results_problem_12\sample_1_0014.png,C:\Users\subject\Desktop\SVRT Experiments\SVRT Experiment 3\svrt_images\generated_images\results_problem_23\sample_0_0004.png,,,,,,,,,,,,,,,,,,0,5,5,5,0,12,12,12,,,,,,,,,,,,,,j,23,B,B,12,1,Correct!,3.9689990000333637,1171.3292572998907,None,1171.3292572998907,None,1175.3458167999052,None,,,,,48,001,2023-05-12_15h32.52.955,uncolored_sorted,2021.2.3,60.018641750411135,
C:\Users\subject\Desktop\SVRT Experiments\SVRT Experiment 3\svrt_images\generated_images\results_problem_23,C:\Users\subject\Desktop\SVRT Experiments\SVRT Experiment 3\svrt_images\generated_images\results_problem_19\sample_0_0015.png,C:\Users\subject\Desktop\SVRT Experiments\SVRT Experiment 3\svrt_images\generated_images\results_problem_14\sample_0_0005.png,,C:\Users\subject\Desktop\SVRT Experiments\SVRT Experiment 3\svrt_images\generated_images\results_problem_13\sample_0_0011.png,C:\Users\subject\Desktop\SVRT Experiments\SVRT Experiment 3\svrt_images\generated_images\results_problem_12\sample_1_0014.png,C:\Users\subject\Desktop\SVRT Experiments\SVRT Experiment 3\svrt_images\generated_images\results_problem_23\sample_0_0002.png,,,,,,,,,,,,,,,,,,0,5,5,5,0,13,13,13,,,,,,,,,,,,,,j,23,B,B,12,1,Correct!,0.5704657000023872,1176.4958079999778,None,1176.4958079999778,None,1177.1124972000252,None,,,,,48,001,2023-05-12_15h32.52.955,uncolored_sorted,2021.2.3,60.018641750411135,
C:\Users\subject\Desktop\SVRT Experiments\SVRT Experiment 3\svrt_images\generated_images\results_problem_23,C:\Users\subject\Desktop\SVRT Experiments\SVRT Experiment 3\svrt_images\generated_images\results_problem_19\sample_0_0015.png,C:\Users\subject\Desktop\SVRT Experiments\SVRT Experiment 3\svrt_images\generated_images\results_problem_14\sample_0_0005.png,,C:\Users\subject\Desktop\SVRT Experiments\SVRT Experiment 3\svrt_images\generated_images\results_problem_13\sample_0_0011.png,C:\Users\subject\Desktop\SVRT Experiments\SVRT Experiment 3\svrt_images\generated_images\results_problem_12\sample_1_0014.png,C:\Users\subject\Desktop\SVRT Experiments\SVRT Experiment 3\svrt_images\generated_images\results_problem_23\sample_0_0007.png,,,,,,,,,,,,,,,,,,0,5,5,5,0,14,14,14,,,,,,,,,,,,,,j,23,B,B,12,1,Correct!,0.6037739000748843,1178.2624450998846,None,1178.2624450998846,None,1178.9124495999422,None,,,,,48,001,2023-05-12_15h32.52.955,uncolored_sorted,2021.2.3,60.018641750411135,
C:\Users\subject\Desktop\SVRT Experiments\SVRT Experiment 3\svrt_images\generated_images\results_problem_23,C:\Users\subject\Desktop\SVRT Experiments\SVRT Experiment 3\svrt_images\generated_images\results_problem_19\sample_0_0015.png,C:\Users\subject\Desktop\SVRT Experiments\SVRT Experiment 3\svrt_images\generated_images\results_problem_14\sample_0_0005.png,,C:\Users\subject\Desktop\SVRT Experiments\SVRT Experiment 3\svrt_images\generated_images\results_problem_13\sample_0_0011.png,C:\Users\subject\Desktop\SVRT Experiments\SVRT Experiment 3\svrt_images\generated_images\results_problem_12\sample_1_0014.png,C:\Users\subject\Desktop\SVRT Experiments\SVRT Experiment 3\svrt_images\generated_images\results_problem_23\sample_1_0011.png,,,,,,,,,,,,,,,,,,0,5,5,5,0,15,15,15,,,,,,,,,,,,,,,,,,,,,,,,,,,,1179.912448799936,1179.912448799936,space,0.7298785999882966,48,001,2023-05-12_15h32.52.955,uncolored_sorted,2021.2.3,60.018641750411135,
C:\Users\subject\Desktop\SVRT Experiments\SVRT Experiment 3\svrt_images\generated_images\results_problem_3,C:\Users\subject\Desktop\SVRT Experiments\SVRT Experiment 3\svrt_images\generated_images\results_problem_19\sample_0_0015.png,C:\Users\subject\Desktop\SVRT Experiments\SVRT Experiment 3\svrt_images\generated_images\results_problem_14\sample_0_0005.png,,C:\Users\subject\Desktop\SVRT Experiments\SVRT Experiment 3\svrt_images\generated_images\results_problem_13\sample_0_0011.png,C:\Users\subject\Desktop\SVRT Experiments\SVRT Experiment 3\svrt_images\generated_images\results_problem_12\sample_1_0014.png,C:\Users\subject\Desktop\SVRT Experiments\SVRT Experiment 3\svrt_images\generated_images\results_problem_23\sample_1_0011.png,C:\Users\subject\Desktop\SVRT Experiments\SVRT Experiment 3\svrt_images\generated_images\results_problem_3\sample_1_0010.png,,,,,,,,,,,,,,,,,0,6,6,6,0,0,0,0,,,,,,,,,,,,,,f,3,A,A,12,1,Correct!,1.6758075999096036,1180.6624185000546,None,1180.6624185000546,None,1182.3624017999973,None,,,,,48,001,2023-05-12_15h32.52.955,uncolored_sorted,2021.2.3,60.018641750411135,
C:\Users\subject\Desktop\SVRT Experiments\SVRT Experiment 3\svrt_images\generated_images\results_problem_3,C:\Users\subject\Desktop\SVRT Experiments\SVRT Experiment 3\svrt_images\generated_images\results_problem_19\sample_0_0015.png,C:\Users\subject\Desktop\SVRT Experiments\SVRT Experiment 3\svrt_images\generated_images\results_problem_14\sample_0_0005.png,,C:\Users\subject\Desktop\SVRT Experiments\SVRT Experiment 3\svrt_images\generated_images\results_problem_13\sample_0_0011.png,C:\Users\subject\Desktop\SVRT Experiments\SVRT Experiment 3\svrt_images\generated_images\results_problem_12\sample_1_0014.png,C:\Users\subject\Desktop\SVRT Experiments\SVRT Experiment 3\svrt_images\generated_images\results_problem_23\sample_1_0011.png,C:\Users\subject\Desktop\SVRT Experiments\SVRT Experiment 3\svrt_images\generated_images\results_problem_3\sample_1_0000.png,,,,,,,,,,,,,,,,,0,6,6,6,0,1,1,1,,,,,,,,,,,,,,j,3,B,A,12,0,Incorrect!,0.09498050017282367,1183.3792310999706,None,1183.3792310999706,None,1183.495693600038,None,,,,,48,001,2023-05-12_15h32.52.955,uncolored_sorted,2021.2.3,60.018641750411135,
C:\Users\subject\Desktop\SVRT Experiments\SVRT Experiment 3\svrt_images\generated_images\results_problem_3,C:\Users\subject\Desktop\SVRT Experiments\SVRT Experiment 3\svrt_images\generated_images\results_problem_19\sample_0_0015.png,C:\Users\subject\Desktop\SVRT Experiments\SVRT Experiment 3\svrt_images\generated_images\results_problem_14\sample_0_0005.png,,C:\Users\subject\Desktop\SVRT Experiments\SVRT Experiment 3\svrt_images\generated_images\results_problem_13\sample_0_0011.png,C:\Users\subject\Desktop\SVRT Experiments\SVRT Experiment 3\svrt_images\generated_images\results_problem_12\sample_1_0014.png,C:\Users\subject\Desktop\SVRT Experiments\SVRT Experiment 3\svrt_images\generated_images\results_problem_23\sample_1_0011.png,C:\Users\subject\Desktop\SVRT Experiments\SVRT Experiment 3\svrt_images\generated_images\results_problem_3\sample_0_0014.png,,,,,,,,,,,,,,,,,0,6,6,6,0,2,2,2,,,,,,,,,,,,,,f,3,A,B,12,0,Incorrect!,0.2260876998770982,1184.512326499913,None,1184.512326499913,None,1184.7623564000241,None,,,,,48,001,2023-05-12_15h32.52.955,uncolored_sorted,2021.2.3,60.018641750411135,
C:\Users\subject\Desktop\SVRT Experiments\SVRT Experiment 3\svrt_images\generated_images\results_problem_3,C:\Users\subject\Desktop\SVRT Experiments\SVRT Experiment 3\svrt_images\generated_images\results_problem_19\sample_0_0015.png,C:\Users\subject\Desktop\SVRT Experiments\SVRT Experiment 3\svrt_images\generated_images\results_problem_14\sample_0_0005.png,,C:\Users\subject\Desktop\SVRT Experiments\SVRT Experiment 3\svrt_images\generated_images\results_problem_13\sample_0_0011.png,C:\Users\subject\Desktop\SVRT Experiments\SVRT Experiment 3\svrt_images\generated_images\results_problem_12\sample_1_0014.png,C:\Users\subject\Desktop\SVRT Experiments\SVRT Experiment 3\svrt_images\generated_images\results_problem_23\sample_1_0011.png,C:\Users\subject\Desktop\SVRT Experiments\SVRT Experiment 3\svrt_images\generated_images\results_problem_3\sample_1_0007.png,,,,,,,,,,,,,,,,,0,6,6,6,0,3,3,3,,,,,,,,,,,,,,j,3,B,A,12,0,Incorrect!,0.1346468001138419,1185.7956592000555,None,1185.7956592000555,None,1185.9623137000017,None,,,,,48,001,2023-05-12_15h32.52.955,uncolored_sorted,2021.2.3,60.018641750411135,
C:\Users\subject\Desktop\SVRT Experiments\SVRT Experiment 3\svrt_images\generated_images\results_problem_3,C:\Users\subject\Desktop\SVRT Experiments\SVRT Experiment 3\svrt_images\generated_images\results_problem_19\sample_0_0015.png,C:\Users\subject\Desktop\SVRT Experiments\SVRT Experiment 3\svrt_images\generated_images\results_problem_14\sample_0_0005.png,,C:\Users\subject\Desktop\SVRT Experiments\SVRT Experiment 3\svrt_images\generated_images\results_problem_13\sample_0_0011.png,C:\Users\subject\Desktop\SVRT Experiments\SVRT Experiment 3\svrt_images\generated_images\results_problem_12\sample_1_0014.png,C:\Users\subject\Desktop\SVRT Experiments\SVRT Experiment 3\svrt_images\generated_images\results_problem_23\sample_1_0011.png,C:\Users\subject\Desktop\SVRT Experiments\SVRT Experiment 3\svrt_images\generated_images\results_problem_3\sample_1_0012.png,,,,,,,,,,,,,,,,,0,6,6,6,0,4,4,4,,,,,,,,,,,,,,j,3,B,A,12,0,Incorrect!,0.1418800000101328,1187.0123045998625,None,1187.0123045998625,None,1187.1789541998878,None,,,,,48,001,2023-05-12_15h32.52.955,uncolored_sorted,2021.2.3,60.018641750411135,
C:\Users\subject\Desktop\SVRT Experiments\SVRT Experiment 3\svrt_images\generated_images\results_problem_3,C:\Users\subject\Desktop\SVRT Experiments\SVRT Experiment 3\svrt_images\generated_images\results_problem_19\sample_0_0015.png,C:\Users\subject\Desktop\SVRT Experiments\SVRT Experiment 3\svrt_images\generated_images\results_problem_14\sample_0_0005.png,,C:\Users\subject\Desktop\SVRT Experiments\SVRT Experiment 3\svrt_images\generated_images\results_problem_13\sample_0_0011.png,C:\Users\subject\Desktop\SVRT Experiments\SVRT Experiment 3\svrt_images\generated_images\results_problem_12\sample_1_0014.png,C:\Users\subject\Desktop\SVRT Experiments\SVRT Experiment 3\svrt_images\generated_images\results_problem_23\sample_1_0011.png,C:\Users\subject\Desktop\SVRT Experiments\SVRT Experiment 3\svrt_images\generated_images\results_problem_3\sample_0_0000.png,,,,,,,,,,,,,,,,,0,6,6,6,0,5,5,5,,,,,,,,,,,,,,j,3,B,B,12,1,Correct!,0.9891762000042945,1188.2289472999983,None,1188.2289472999983,None,1189.2455221000127,None,,,,,48,001,2023-05-12_15h32.52.955,uncolored_sorted,2021.2.3,60.018641750411135,
C:\Users\subject\Desktop\SVRT Experiments\SVRT Experiment 3\svrt_images\generated_images\results_problem_3,C:\Users\subject\Desktop\SVRT Experiments\SVRT Experiment 3\svrt_images\generated_images\results_problem_19\sample_0_0015.png,C:\Users\subject\Desktop\SVRT Experiments\SVRT Experiment 3\svrt_images\generated_images\results_problem_14\sample_0_0005.png,,C:\Users\subject\Desktop\SVRT Experiments\SVRT Experiment 3\svrt_images\generated_images\results_problem_13\sample_0_0011.png,C:\Users\subject\Desktop\SVRT Experiments\SVRT Experiment 3\svrt_images\generated_images\results_problem_12\sample_1_0014.png,C:\Users\subject\Desktop\SVRT Experiments\SVRT Experiment 3\svrt_images\generated_images\results_problem_23\sample_1_0011.png,C:\Users\subject\Desktop\SVRT Experiments\SVRT Experiment 3\svrt_images\generated_images\results_problem_3\sample_0_0004.png,,,,,,,,,,,,,,,,,0,6,6,6,0,6,6,6,,,,,,,,,,,,,,j,3,B,B,12,1,Correct!,0.7299096998758614,1190.3122461000457,None,1190.3122461000457,None,1191.0622135999147,None,,,,,48,001,2023-05-12_15h32.52.955,uncolored_sorted,2021.2.3,60.018641750411135,
C:\Users\subject\Desktop\SVRT Experiments\SVRT Experiment 3\svrt_images\generated_images\results_problem_3,C:\Users\subject\Desktop\SVRT Experiments\SVRT Experiment 3\svrt_images\generated_images\results_problem_19\sample_0_0015.png,C:\Users\subject\Desktop\SVRT Experiments\SVRT Experiment 3\svrt_images\generated_images\results_problem_14\sample_0_0005.png,,C:\Users\subject\Desktop\SVRT Experiments\SVRT Experiment 3\svrt_images\generated_images\results_problem_13\sample_0_0011.png,C:\Users\subject\Desktop\SVRT Experiments\SVRT Experiment 3\svrt_images\generated_images\results_problem_12\sample_1_0014.png,C:\Users\subject\Desktop\SVRT Experiments\SVRT Experiment 3\svrt_images\generated_images\results_problem_23\sample_1_0011.png,C:\Users\subject\Desktop\SVRT Experiments\SVRT Experiment 3\svrt_images\generated_images\results_problem_3\sample_1_0014.png,,,,,,,,,,,,,,,,,0,6,6,6,0,7,7,7,,,,,,,,,,,,,,f,3,A,A,12,1,Correct!,3.9835661000106484,1192.1466620999854,None,1192.1466620999854,None,1196.1621172998566,None,,,,,48,001,2023-05-12_15h32.52.955,uncolored_sorted,2021.2.3,60.018641750411135,
C:\Users\subject\Desktop\SVRT Experiments\SVRT Experiment 3\svrt_images\generated_images\results_problem_3,C:\Users\subject\Desktop\SVRT Experiments\SVRT Experiment 3\svrt_images\generated_images\results_problem_19\sample_0_0015.png,C:\Users\subject\Desktop\SVRT Experiments\SVRT Experiment 3\svrt_images\generated_images\results_problem_14\sample_0_0005.png,,C:\Users\subject\Desktop\SVRT Experiments\SVRT Experiment 3\svrt_images\generated_images\results_problem_13\sample_0_0011.png,C:\Users\subject\Desktop\SVRT Experiments\SVRT Experiment 3\svrt_images\generated_images\results_problem_12\sample_1_0014.png,C:\Users\subject\Desktop\SVRT Experiments\SVRT Experiment 3\svrt_images\generated_images\results_problem_23\sample_1_0011.png,C:\Users\subject\Desktop\SVRT Experiments\SVRT Experiment 3\svrt_images\generated_images\results_problem_3\sample_1_0013.png,,,,,,,,,,,,,,,,,0,6,6,6,0,8,8,8,,,,,,,,,,,,,,f,3,A,A,12,1,Correct!,0.5887005000840873,1197.2454458000138,None,1197.2454458000138,None,1197.8620966000017,None,,,,,48,001,2023-05-12_15h32.52.955,uncolored_sorted,2021.2.3,60.018641750411135,
C:\Users\subject\Desktop\SVRT Experiments\SVRT Experiment 3\svrt_images\generated_images\results_problem_3,C:\Users\subject\Desktop\SVRT Experiments\SVRT Experiment 3\svrt_images\generated_images\results_problem_19\sample_0_0015.png,C:\Users\subject\Desktop\SVRT Experiments\SVRT Experiment 3\svrt_images\generated_images\results_problem_14\sample_0_0005.png,,C:\Users\subject\Desktop\SVRT Experiments\SVRT Experiment 3\svrt_images\generated_images\results_problem_13\sample_0_0011.png,C:\Users\subject\Desktop\SVRT Experiments\SVRT Experiment 3\svrt_images\generated_images\results_problem_12\sample_1_0014.png,C:\Users\subject\Desktop\SVRT Experiments\SVRT Experiment 3\svrt_images\generated_images\results_problem_23\sample_1_0011.png,C:\Users\subject\Desktop\SVRT Experiments\SVRT Experiment 3\svrt_images\generated_images\results_problem_3\sample_1_0002.png,,,,,,,,,,,,,,,,,0,6,6,6,0,9,9,9,,,,,,,,,,,,,,f,3,A,A,12,1,Correct!,0.5600080001167953,1198.9620862000156,None,1198.9620862000156,None,1199.5454416000284,None,,,,,48,001,2023-05-12_15h32.52.955,uncolored_sorted,2021.2.3,60.018641750411135,
C:\Users\subject\Desktop\SVRT Experiments\SVRT Experiment 3\svrt_images\generated_images\results_problem_3,C:\Users\subject\Desktop\SVRT Experiments\SVRT Experiment 3\svrt_images\generated_images\results_problem_19\sample_0_0015.png,C:\Users\subject\Desktop\SVRT Experiments\SVRT Experiment 3\svrt_images\generated_images\results_problem_14\sample_0_0005.png,,C:\Users\subject\Desktop\SVRT Experiments\SVRT Experiment 3\svrt_images\generated_images\results_problem_13\sample_0_0011.png,C:\Users\subject\Desktop\SVRT Experiments\SVRT Experiment 3\svrt_images\generated_images\results_problem_12\sample_1_0014.png,C:\Users\subject\Desktop\SVRT Experiments\SVRT Experiment 3\svrt_images\generated_images\results_problem_23\sample_1_0011.png,C:\Users\subject\Desktop\SVRT Experiments\SVRT Experiment 3\svrt_images\generated_images\results_problem_3\sample_1_0004.png,,,,,,,,,,,,,,,,,0,6,6,6,0,10,10,10,,,,,,,,,,,,,,f,3,A,A,12,1,Correct!,0.46894340007565916,1200.645370299928,None,1200.645370299928,None,1201.1454880998936,None,,,,,48,001,2023-05-12_15h32.52.955,uncolored_sorted,2021.2.3,60.018641750411135,
