folder,results_problem_21,results_problem_17,results_problem_19,results_problem_6,results_problem_14,results_problem_12,results_problem_4,results_problem_7,results_problem_1,results_problem_16,results_problem_10,results_problem_22,results_problem_9,results_problem_8,results_problem_13,results_problem_2,results_problem_3,results_problem_20,results_problem_18,results_problem_23,results_problem_15,results_problem_11,results_problem_5,categories.thisRepN,categories.thisTrialN,categories.thisN,categories.thisIndex,trials.thisRepN,trials.thisTrialN,trials.thisN,trials.thisIndex,consent_text.started,consent_kb.started,consent_kb.keys,consent_kb.rt,Gender.keys,Gender.rt,Age,instructions_text.started,instructions_text.stopped,instructions_kb.keys,instructions_kb.rt,instructions_kb.started,instructions_kb.stopped,trial_kb.keys,current_problem_num,category_resp,answer,seed,accuracy,feedback,trial_kb.rt,trial_kb.started,trial_kb.stopped,trial_image.started,trial_image.stopped,feedback_text.started,feedback_text.stopped,new_problem_kb.started,new_problem_text.started,new_problem_kb.keys,new_problem_kb.rt,Participant #,session,date,expName,psychopyVersion,frameRate,
,,,,,,,,,,,,,,,,,,,,,,,,,,,,,,,,143.89589130005334,143.89589130005334,y,39.51985119993333,,,,,,,,,,,,,,,,,,,,,,,,,,,,49,001,2023-05-12_15h37.16.500,colored_shuffled,2021.2.3,59.94459918433608,
,,,,,,,,,,,,,,,,,,,,,,,,,,,,,,,,,,,,w,12.062503999914043,,,,,,,,,,,,,,,,,,,,,,,,,,49,001,2023-05-12_15h37.16.500,colored_shuffled,2021.2.3,59.94459918433608,
,,,,,,,,,,,,,,,,,,,,,,,,,,,,,,,,,,,,,,21,215.56524570006877,None,space,63.88932419999037,215.56524570006877,None,,,,,,,,,,,,,,,,,,,49,001,2023-05-12_15h37.16.500,colored_shuffled,2021.2.3,59.94459918433608,
C:\Users\subject\Desktop\SVRT Experiments\SVRT Experiment 3\svrt_images\generated_images\results_problem_21,C:\Users\subject\Desktop\SVRT Experiments\SVRT Experiment 3\svrt_images\generated_images\results_problem_21\sample_0_0000.png,,,,,,,,,,,,,,,,,,,,,,,0,0,0,0,0,0,0,0,,,,,,,,,,,,,,j,21,B,B,13,1,Correct!,25.397827700013295,279.4964303000597,None,279.4964303000597,None,304.91544400004204,None,,,,,49,001,2023-05-12_15h37.16.500,colored_shuffled,2021.2.3,59.94459918433608,
C:\Users\subject\Desktop\SVRT Experiments\SVRT Experiment 3\svrt_images\generated_images\results_problem_21,C:\Users\subject\Desktop\SVRT Experiments\SVRT Experiment 3\svrt_images\generated_images\results_problem_21\sample_0_0004.png,,,,,,,,,,,,,,,,,,,,,,,0,0,0,0,0,1,1,1,,,,,,,,,,,,,,j,21,B,B,13,1,Correct!,1.4420297000324354,305.9161967000691,None,305.9161967000691,None,307.38399060000665,None,,,,,49,001,2023-05-12_15h37.16.500,colored_shuffled,2021.2.3,59.94459918433608,
C:\Users\subject\Desktop\SVRT Experiments\SVRT Experiment 3\svrt_images\generated_images\results_problem_21,C:\Users\subject\Desktop\SVRT Experiments\SVRT Experiment 3\svrt_images\generated_images\results_problem_21\sample_1_0016.png,,,,,,,,,,,,,,,,,,,,,,,0,0,0,0,0,2,2,2,,,,,,,,,,,,,,f,21,A,A,13,1,Correct!,6.204713599989191,308.4014152000891,None,308.4014152000891,None,314.6393963000737,None,,,,,49,001,2023-05-12_15h37.16.500,colored_shuffled,2021.2.3,59.94459918433608,
C:\Users\subject\Desktop\SVRT Experiments\SVRT Experiment 3\svrt_images\generated_images\results_problem_21,C:\Users\subject\Desktop\SVRT Experiments\SVRT Experiment 3\svrt_images\generated_images\results_problem_21\sample_0_0008.png,,,,,,,,,,,,,,,,,,,,,,,0,0,0,0,0,3,3,3,,,,,,,,,,,,,,f,21,A,B,13,0,Incorrect!,0.8846123999683186,315.6735053000739,None,315.6735053000739,None,316.59089170000516,None,,,,,49,001,2023-05-12_15h37.16.500,colored_shuffled,2021.2.3,59.94459918433608,
C:\Users\subject\Desktop\SVRT Experiments\SVRT Experiment 3\svrt_images\generated_images\results_problem_21,C:\Users\subject\Desktop\SVRT Experiments\SVRT Experiment 3\svrt_images\generated_images\results_problem_21\sample_0_0007.png,,,,,,,,,,,,,,,,,,,,,,,0,0,0,0,0,4,4,4,,,,,,,,,,,,,,j,21,B,B,13,1,Correct!,3.5970655999844894,317.62499000004027,None,317.62499000004027,None,321.244385200087,None,,,,,49,001,2023-05-12_15h37.16.500,colored_shuffled,2021.2.3,59.94459918433608,
C:\Users\subject\Desktop\SVRT Experiments\SVRT Experiment 3\svrt_images\generated_images\results_problem_21,C:\Users\subject\Desktop\SVRT Experiments\SVRT Experiment 3\svrt_images\generated_images\results_problem_21\sample_1_0011.png,,,,,,,,,,,,,,,,,,,,,,,0,0,0,0,0,5,5,5,,,,,,,,,,,,,,j,21,B,A,13,0,Incorrect!,1.0389103998895735,322.2951437000884,None,322.2951437000884,None,323.3625995001057,None,,,,,49,001,2023-05-12_15h37.16.500,colored_shuffled,2021.2.3,59.94459918433608,
C:\Users\subject\Desktop\SVRT Experiments\SVRT Experiment 3\svrt_images\generated_images\results_problem_21,C:\Users\subject\Desktop\SVRT Experiments\SVRT Experiment 3\svrt_images\generated_images\results_problem_21\sample_1_0009.png,,,,,,,,,,,,,,,,,,,,,,,0,0,0,0,0,6,6,6,,,,,,,,,,,,,,j,21,B,A,13,0,Incorrect!,0.856563999899663,324.413415200077,None,324.413415200077,None,325.2973942999961,None,,,,,49,001,2023-05-12_15h37.16.500,colored_shuffled,2021.2.3,59.94459918433608,
C:\Users\subject\Desktop\SVRT Experiments\SVRT Experiment 3\svrt_images\generated_images\results_problem_21,C:\Users\subject\Desktop\SVRT Experiments\SVRT Experiment 3\svrt_images\generated_images\results_problem_21\sample_1_0013.png,,,,,,,,,,,,,,,,,,,,,,,0,0,0,0,0,7,7,7,,,,,,,,,,,,,,f,21,A,A,13,1,Correct!,0.9051296000834554,326.36487720010336,None,326.36487720010336,None,327.2988825000357,None,,,,,49,001,2023-05-12_15h37.16.500,colored_shuffled,2021.2.3,59.94459918433608,
C:\Users\subject\Desktop\SVRT Experiments\SVRT Experiment 3\svrt_images\generated_images\results_problem_21,C:\Users\subject\Desktop\SVRT Experiments\SVRT Experiment 3\svrt_images\generated_images\results_problem_21\sample_0_0005.png,,,,,,,,,,,,,,,,,,,,,,,0,0,0,0,0,8,8,8,,,,,,,,,,,,,,f,21,A,B,13,0,Incorrect!,1.0236411000369117,328.36637600010727,None,328.36637600010727,None,329.4171569000464,None,,,,,49,001,2023-05-12_15h37.16.500,colored_shuffled,2021.2.3,59.94459918433608,
C:\Users\subject\Desktop\SVRT Experiments\SVRT Experiment 3\svrt_images\generated_images\results_problem_21,C:\Users\subject\Desktop\SVRT Experiments\SVRT Experiment 3\svrt_images\generated_images\results_problem_21\sample_1_0006.png,,,,,,,,,,,,,,,,,,,,,,,0,0,0,0,0,9,9,9,,,,,,,,,,,,,,f,21,A,A,13,1,Correct!,0.8646634999895468,330.50130780006293,None,330.50130780006293,None,331.38528919999953,None,,,,,49,001,2023-05-12_15h37.16.500,colored_shuffled,2021.2.3,59.94459918433608,
C:\Users\subject\Desktop\SVRT Experiments\SVRT Experiment 3\svrt_images\generated_images\results_problem_21,C:\Users\subject\Desktop\SVRT Experiments\SVRT Experiment 3\svrt_images\generated_images\results_problem_21\sample_0_0010.png,,,,,,,,,,,,,,,,,,,,,,,0,0,0,0,0,10,10,10,,,,,,,,,,,,,,j,21,B,B,13,1,Correct!,0.7918224999448285,332.48612830007914,None,332.48612830007914,None,333.3034022001084,None,,,,,49,001,2023-05-12_15h37.16.500,colored_shuffled,2021.2.3,59.94459918433608,
C:\Users\subject\Desktop\SVRT Experiments\SVRT Experiment 3\svrt_images\generated_images\results_problem_21,C:\Users\subject\Desktop\SVRT Experiments\SVRT Experiment 3\svrt_images\generated_images\results_problem_21\sample_0_0014.png,,,,,,,,,,,,,,,,,,,,,,,0,0,0,0,0,11,11,11,,,,,,,,,,,,,,j,21,B,B,13,1,Correct!,0.6497068000026047,334.4042332000099,None,334.4042332000099,None,335.07139620010275,None,,,,,49,001,2023-05-12_15h37.16.500,colored_shuffled,2021.2.3,59.94459918433608,
C:\Users\subject\Desktop\SVRT Experiments\SVRT Experiment 3\svrt_images\generated_images\results_problem_21,C:\Users\subject\Desktop\SVRT Experiments\SVRT Experiment 3\svrt_images\generated_images\results_problem_21\sample_1_0003.png,,,,,,,,,,,,,,,,,,,,,,,0,0,0,0,0,12,12,12,,,,,,,,,,,,,,f,21,A,A,13,1,Correct!,7.784917099983431,336.188899800065,None,336.188899800065,None,343.99473999999464,None,,,,,49,001,2023-05-12_15h37.16.500,colored_shuffled,2021.2.3,59.94459918433608,
C:\Users\subject\Desktop\SVRT Experiments\SVRT Experiment 3\svrt_images\generated_images\results_problem_21,C:\Users\subject\Desktop\SVRT Experiments\SVRT Experiment 3\svrt_images\generated_images\results_problem_21\sample_1_0008.png,,,,,,,,,,,,,,,,,,,,,,,0,0,0,0,0,13,13,13,,,,,,,,,,,,,,j,21,B,A,13,0,Incorrect!,1.3176099000265822,345.11224980000407,None,345.11224980000407,None,346.463254100061,None,,,,,49,001,2023-05-12_15h37.16.500,colored_shuffled,2021.2.3,59.94459918433608,
C:\Users\subject\Desktop\SVRT Experiments\SVRT Experiment 3\svrt_images\generated_images\results_problem_21,C:\Users\subject\Desktop\SVRT Experiments\SVRT Experiment 3\svrt_images\generated_images\results_problem_21\sample_1_0004.png,,,,,,,,,,,,,,,,,,,,,,,0,0,0,0,0,14,14,14,,,,,,,,,,,,,,f,21,A,A,13,1,Correct!,0.6723296999698505,347.59744220005814,None,347.59744220005814,None,348.2979471000144,None,,,,,49,001,2023-05-12_15h37.16.500,colored_shuffled,2021.2.3,59.94459918433608,
C:\Users\subject\Desktop\SVRT Experiments\SVRT Experiment 3\svrt_images\generated_images\results_problem_21,C:\Users\subject\Desktop\SVRT Experiments\SVRT Experiment 3\svrt_images\generated_images\results_problem_21\sample_1_0005.png,,,,,,,,,,,,,,,,,,,,,,,0,0,0,0,0,15,15,15,,,,,,,,,,,,,,j,21,B,A,13,0,Incorrect!,1.66090440005064,349.4488374000648,None,349.4488374000648,None,351.133419000078,None,,,,,49,001,2023-05-12_15h37.16.500,colored_shuffled,2021.2.3,59.94459918433608,
C:\Users\subject\Desktop\SVRT Experiments\SVRT Experiment 3\svrt_images\generated_images\results_problem_21,C:\Users\subject\Desktop\SVRT Experiments\SVRT Experiment 3\svrt_images\generated_images\results_problem_21\sample_0_0011.png,,,,,,,,,,,,,,,,,,,,,,,0,0,0,0,0,16,16,16,,,,,,,,,,,,,,f,21,A,B,13,0,Incorrect!,0.6254555999767035,352.28427850001026,None,352.28427850001026,None,352.9347821000265,None,,,,,49,001,2023-05-12_15h37.16.500,colored_shuffled,2021.2.3,59.94459918433608,
C:\Users\subject\Desktop\SVRT Experiments\SVRT Experiment 3\svrt_images\generated_images\results_problem_21,C:\Users\subject\Desktop\SVRT Experiments\SVRT Experiment 3\svrt_images\generated_images\results_problem_21\sample_1_0015.png,,,,,,,,,,,,,,,,,,,,,,,0,0,0,0,0,17,17,17,,,,,,,,,,,,,,f,21,A,A,13,1,Correct!,0.7113681000191718,354.10230830009095,None,354.10230830009095,None,354.85282890009694,None,,,,,49,001,2023-05-12_15h37.16.500,colored_shuffled,2021.2.3,59.94459918433608,
C:\Users\subject\Desktop\SVRT Experiments\SVRT Experiment 3\svrt_images\generated_images\results_problem_21,C:\Users\subject\Desktop\SVRT Experiments\SVRT Experiment 3\svrt_images\generated_images\results_problem_21\sample_1_0007.png,,,,,,,,,,,,,,,,,,,,,,,0,0,0,0,0,18,18,18,,,,,,,,,,,,,,f,21,A,A,13,1,Correct!,0.5605734999990091,356.0370910000056,None,356.0370910000056,None,356.6208606000291,None,,,,,49,001,2023-05-12_15h37.16.500,colored_shuffled,2021.2.3,59.94459918433608,
C:\Users\subject\Desktop\SVRT Experiments\SVRT Experiment 3\svrt_images\generated_images\results_problem_21,C:\Users\subject\Desktop\SVRT Experiments\SVRT Experiment 3\svrt_images\generated_images\results_problem_21\sample_0_0016.png,,,,,,,,,,,,,,,,,,,,,,,0,0,0,0,0,19,19,19,,,,,,,,,,,,,,f,21,A,B,13,0,Incorrect!,0.23256170004606247,357.8050904000411,None,357.8050904000411,None,358.0552701000124,None,,,,,49,001,2023-05-12_15h37.16.500,colored_shuffled,2021.2.3,59.94459918433608,
C:\Users\subject\Desktop\SVRT Experiments\SVRT Experiment 3\svrt_images\generated_images\results_problem_21,C:\Users\subject\Desktop\SVRT Experiments\SVRT Experiment 3\svrt_images\generated_images\results_problem_21\sample_1_0002.png,,,,,,,,,,,,,,,,,,,,,,,0,0,0,0,0,20,20,20,,,,,,,,,,,,,,j,21,B,A,13,0,Incorrect!,0.6454605999169871,359.25616970006377,None,359.25616970006377,None,359.9400104000233,None,,,,,49,001,2023-05-12_15h37.16.500,colored_shuffled,2021.2.3,59.94459918433608,
C:\Users\subject\Desktop\SVRT Experiments\SVRT Experiment 3\svrt_images\generated_images\results_problem_21,C:\Users\subject\Desktop\SVRT Experiments\SVRT Experiment 3\svrt_images\generated_images\results_problem_21\sample_1_0000.png,,,,,,,,,,,,,,,,,,,,,,,0,0,0,0,0,21,21,21,,,,,,,,,,,,,,f,21,A,A,13,1,Correct!,0.2160234999610111,361.15759780001827,None,361.15759780001827,None,361.4077794000041,None,,,,,49,001,2023-05-12_15h37.16.500,colored_shuffled,2021.2.3,59.94459918433608,
C:\Users\subject\Desktop\SVRT Experiments\SVRT Experiment 3\svrt_images\generated_images\results_problem_21,C:\Users\subject\Desktop\SVRT Experiments\SVRT Experiment 3\svrt_images\generated_images\results_problem_21\sample_0_0002.png,,,,,,,,,,,,,,,,,,,,,,,0,0,0,0,0,22,22,22,,,,,,,,,,,,,,f,21,A,B,13,0,Incorrect!,0.5642270999960601,362.62536570010707,None,362.62536570010707,None,363.20912760007195,None,,,,,49,001,2023-05-12_15h37.16.500,colored_shuffled,2021.2.3,59.94459918433608,
C:\Users\subject\Desktop\SVRT Experiments\SVRT Experiment 3\svrt_images\generated_images\results_problem_21,C:\Users\subject\Desktop\SVRT Experiments\SVRT Experiment 3\svrt_images\generated_images\results_problem_21\sample_1_0010.png,,,,,,,,,,,,,,,,,,,,,,,0,0,0,0,0,23,23,23,,,,,,,,,,,,,,f,21,A,A,13,1,Correct!,0.5461741000181064,364.44338770001195,None,364.44338770001195,None,365.027155400021,None,,,,,49,001,2023-05-12_15h37.16.500,colored_shuffled,2021.2.3,59.94459918433608,
C:\Users\subject\Desktop\SVRT Experiments\SVRT Experiment 3\svrt_images\generated_images\results_problem_21,C:\Users\subject\Desktop\SVRT Experiments\SVRT Experiment 3\svrt_images\generated_images\results_problem_21\sample_0_0006.png,,,,,,,,,,,,,,,,,,,,,,,0,0,0,0,0,24,24,24,,,,,,,,,,,,,,j,21,B,B,13,1,Correct!,1.1674364999635145,366.27809370006435,None,366.27809370006435,None,367.46227890008595,None,,,,,49,001,2023-05-12_15h37.16.500,colored_shuffled,2021.2.3,59.94459918433608,
C:\Users\subject\Desktop\SVRT Experiments\SVRT Experiment 3\svrt_images\generated_images\results_problem_21,C:\Users\subject\Desktop\SVRT Experiments\SVRT Experiment 3\svrt_images\generated_images\results_problem_21\sample_0_0003.png,,,,,,,,,,,,,,,,,,,,,,,0,0,0,0,0,25,25,25,,,,,,,,,,,,,,j,21,B,B,13,1,Correct!,0.9235754999099299,368.7299334000563,None,368.7299334000563,None,369.6973168000113,None,,,,,49,001,2023-05-12_15h37.16.500,colored_shuffled,2021.2.3,59.94459918433608,
C:\Users\subject\Desktop\SVRT Experiments\SVRT Experiment 3\svrt_images\generated_images\results_problem_21,C:\Users\subject\Desktop\SVRT Experiments\SVRT Experiment 3\svrt_images\generated_images\results_problem_21\sample_0_0013.png,,,,,,,,,,,,,,,,,,,,,,,0,0,0,0,0,26,26,26,,,,,,,,,,,,,,f,21,A,B,13,0,Incorrect!,4.216601800057106,370.96494090009946,None,370.96494090009946,None,375.2181161000626,None,,,,,49,001,2023-05-12_15h37.16.500,colored_shuffled,2021.2.3,59.94459918433608,
C:\Users\subject\Desktop\SVRT Experiments\SVRT Experiment 3\svrt_images\generated_images\results_problem_21,C:\Users\subject\Desktop\SVRT Experiments\SVRT Experiment 3\svrt_images\generated_images\results_problem_21\sample_1_0014.png,,,,,,,,,,,,,,,,,,,,,,,0,0,0,0,0,27,27,27,,,,,,,,,,,,,,j,21,B,A,13,0,Incorrect!,0.4229997999500483,376.5024180000182,None,376.5024180000182,None,376.96942700003274,None,,,,,49,001,2023-05-12_15h37.16.500,colored_shuffled,2021.2.3,59.94459918433608,
C:\Users\subject\Desktop\SVRT Experiments\SVRT Experiment 3\svrt_images\generated_images\results_problem_21,C:\Users\subject\Desktop\SVRT Experiments\SVRT Experiment 3\svrt_images\generated_images\results_problem_21\sample_0_0015.png,,,,,,,,,,,,,,,,,,,,,,,0,0,0,0,0,28,28,28,,,,,,,,,,,,,,f,21,A,B,13,0,Incorrect!,1.1909287000307813,378.2704109000042,None,378.2704109000042,None,379.4879547000164,None,,,,,49,001,2023-05-12_15h37.16.500,colored_shuffled,2021.2.3,59.94459918433608,
C:\Users\subject\Desktop\SVRT Experiments\SVRT Experiment 3\svrt_images\generated_images\results_problem_21,C:\Users\subject\Desktop\SVRT Experiments\SVRT Experiment 3\svrt_images\generated_images\results_problem_21\sample_0_0001.png,,,,,,,,,,,,,,,,,,,,,,,0,0,0,0,0,29,29,29,,,,,,,,,,,,,,f,21,A,B,13,0,Incorrect!,11.455538099980913,380.8056422000518,None,380.8056422000518,None,392.28089470008854,None,,,,,49,001,2023-05-12_15h37.16.500,colored_shuffled,2021.2.3,59.94459918433608,
C:\Users\subject\Desktop\SVRT Experiments\SVRT Experiment 3\svrt_images\generated_images\results_problem_21,C:\Users\subject\Desktop\SVRT Experiments\SVRT Experiment 3\svrt_images\generated_images\results_problem_21\sample_1_0001.png,,,,,,,,,,,,,,,,,,,,,,,0,0,0,0,0,30,30,30,,,,,,,,,,,,,,f,21,A,A,13,1,Correct!,0.9659532000077888,393.6152307000011,None,393.6152307000011,None,394.6159764000913,None,,,,,49,001,2023-05-12_15h37.16.500,colored_shuffled,2021.2.3,59.94459918433608,
C:\Users\subject\Desktop\SVRT Experiments\SVRT Experiment 3\svrt_images\generated_images\results_problem_21,C:\Users\subject\Desktop\SVRT Experiments\SVRT Experiment 3\svrt_images\generated_images\results_problem_21\sample_0_0009.png,,,,,,,,,,,,,,,,,,,,,,,0,0,0,0,0,31,31,31,,,,,,,,,,,,,,j,21,B,B,13,1,Correct!,11.950706299976446,395.95033660007175,None,395.95033660007175,None,407.94262320001144,None,,,,,49,001,2023-05-12_15h37.16.500,colored_shuffled,2021.2.3,59.94459918433608,
C:\Users\subject\Desktop\SVRT Experiments\SVRT Experiment 3\svrt_images\generated_images\results_problem_21,C:\Users\subject\Desktop\SVRT Experiments\SVRT Experiment 3\svrt_images\generated_images\results_problem_21\sample_1_0012.png,,,,,,,,,,,,,,,,,,,,,,,0,0,0,0,0,32,32,32,,,,,,,,,,,,,,j,21,B,A,13,0,Incorrect!,0.8393894999753684,409.29363590001594,None,409.29363590001594,None,410.17762870003935,None,,,,,49,001,2023-05-12_15h37.16.500,colored_shuffled,2021.2.3,59.94459918433608,
C:\Users\subject\Desktop\SVRT Experiments\SVRT Experiment 3\svrt_images\generated_images\results_problem_21,C:\Users\subject\Desktop\SVRT Experiments\SVRT Experiment 3\svrt_images\generated_images\results_problem_21\sample_0_0012.png,,,,,,,,,,,,,,,,,,,,,,,0,0,0,0,0,33,33,33,,,,,,,,,,,,,,f,21,A,B,13,0,Incorrect!,0.5316970000276342,411.54529969999567,None,411.54529969999567,None,412.09572920005303,None,,,,,49,001,2023-05-12_15h37.16.500,colored_shuffled,2021.2.3,59.94459918433608,
C:\Users\subject\Desktop\SVRT Experiments\SVRT Experiment 3\svrt_images\generated_images\results_problem_21,,,,,,,,,,,,,,,,,,,,,,,,0,0,0,0,,,,,,,,,,,,,,,,,,,,,,,,,,,,,,,,413.09643290005624,413.09643290005624,space,3.3165139000630006,49,001,2023-05-12_15h37.16.500,colored_shuffled,2021.2.3,59.94459918433608,
C:\Users\subject\Desktop\SVRT Experiments\SVRT Experiment 3\svrt_images\generated_images\results_problem_17,,C:\Users\subject\Desktop\SVRT Experiments\SVRT Experiment 3\svrt_images\generated_images\results_problem_17\sample_0_0014.png,,,,,,,,,,,,,,,,,,,,,,0,1,1,1,0,0,0,0,,,,,,,,,,,,,,f,17,A,B,13,0,Incorrect!,2.395928699988872,416.44898940005805,None,416.44898940005805,None,418.86746390000917,None,,,,,49,001,2023-05-12_15h37.16.500,colored_shuffled,2021.2.3,59.94459918433608,
C:\Users\subject\Desktop\SVRT Experiments\SVRT Experiment 3\svrt_images\generated_images\results_problem_17,,C:\Users\subject\Desktop\SVRT Experiments\SVRT Experiment 3\svrt_images\generated_images\results_problem_17\sample_0_0002.png,,,,,,,,,,,,,,,,,,,,,,0,1,1,1,0,1,1,1,,,,,,,,,,,,,,j,17,B,B,13,1,Correct!,0.6887079000007361,419.868216700037,None,419.868216700037,None,420.58537780004553,None,,,,,49,001,2023-05-12_15h37.16.500,colored_shuffled,2021.2.3,59.94459918433608,
C:\Users\subject\Desktop\SVRT Experiments\SVRT Experiment 3\svrt_images\generated_images\results_problem_17,,C:\Users\subject\Desktop\SVRT Experiments\SVRT Experiment 3\svrt_images\generated_images\results_problem_17\sample_0_0012.png,,,,,,,,,,,,,,,,,,,,,,0,1,1,1,0,2,2,2,,,,,,,,,,,,,,j,17,B,B,13,1,Correct!,0.6660042000003159,421.60285200004,None,421.60285200004,None,422.2866928000003,None,,,,,49,001,2023-05-12_15h37.16.500,colored_shuffled,2021.2.3,59.94459918433608,
C:\Users\subject\Desktop\SVRT Experiments\SVRT Experiment 3\svrt_images\generated_images\results_problem_17,,C:\Users\subject\Desktop\SVRT Experiments\SVRT Experiment 3\svrt_images\generated_images\results_problem_17\sample_0_0009.png,,,,,,,,,,,,,,,,,,,,,,0,1,1,1,0,3,3,3,,,,,,,,,,,,,,j,17,B,B,13,1,Correct!,0.5727351000532508,423.30412330001127,None,423.30412330001127,None,423.90457070001867,None,,,,,49,001,2023-05-12_15h37.16.500,colored_shuffled,2021.2.3,59.94459918433608,
C:\Users\subject\Desktop\SVRT Experiments\SVRT Experiment 3\svrt_images\generated_images\results_problem_17,,C:\Users\subject\Desktop\SVRT Experiments\SVRT Experiment 3\svrt_images\generated_images\results_problem_17\sample_0_0004.png,,,,,,,,,,,,,,,,,,,,,,0,1,1,1,0,4,4,4,,,,,,,,,,,,,,j,17,B,B,13,1,Correct!,0.6421561000170186,424.93868490005843,None,424.93868490005843,None,425.6058442000067,None,,,,,49,001,2023-05-12_15h37.16.500,colored_shuffled,2021.2.3,59.94459918433608,
C:\Users\subject\Desktop\SVRT Experiments\SVRT Experiment 3\svrt_images\generated_images\results_problem_17,,C:\Users\subject\Desktop\SVRT Experiments\SVRT Experiment 3\svrt_images\generated_images\results_problem_17\sample_1_0003.png,,,,,,,,,,,,,,,,,,,,,,0,1,1,1,0,5,5,5,,,,,,,,,,,,,,j,17,B,A,13,0,Incorrect!,0.6281633999897167,426.6566440000897,None,426.6566440000897,None,427.3071187000023,None,,,,,49,001,2023-05-12_15h37.16.500,colored_shuffled,2021.2.3,59.94459918433608,
C:\Users\subject\Desktop\SVRT Experiments\SVRT Experiment 3\svrt_images\generated_images\results_problem_17,,C:\Users\subject\Desktop\SVRT Experiments\SVRT Experiment 3\svrt_images\generated_images\results_problem_17\sample_1_0012.png,,,,,,,,,,,,,,,,,,,,,,0,1,1,1,0,6,6,6,,,,,,,,,,,,,,j,17,B,A,13,0,Incorrect!,0.43088690005242825,428.3579085000092,None,428.3579085000092,None,428.8082398000406,None,,,,,49,001,2023-05-12_15h37.16.500,colored_shuffled,2021.2.3,59.94459918433608,
C:\Users\subject\Desktop\SVRT Experiments\SVRT Experiment 3\svrt_images\generated_images\results_problem_17,,C:\Users\subject\Desktop\SVRT Experiments\SVRT Experiment 3\svrt_images\generated_images\results_problem_17\sample_1_0007.png,,,,,,,,,,,,,,,,,,,,,,0,1,1,1,0,7,7,7,,,,,,,,,,,,,,f,17,A,A,13,1,Correct!,0.249060699949041,429.87571300007403,None,429.87571300007403,None,430.14258010010235,None,,,,,49,001,2023-05-12_15h37.16.500,colored_shuffled,2021.2.3,59.94459918433608,
C:\Users\subject\Desktop\SVRT Experiments\SVRT Experiment 3\svrt_images\generated_images\results_problem_17,,C:\Users\subject\Desktop\SVRT Experiments\SVRT Experiment 3\svrt_images\generated_images\results_problem_17\sample_1_0001.png,,,,,,,,,,,,,,,,,,,,,,0,1,1,1,0,8,8,8,,,,,,,,,,,,,,f,17,A,A,13,1,Correct!,0.24237150000408292,431.210398400086,None,431.210398400086,None,431.47690490004607,None,,,,,49,001,2023-05-12_15h37.16.500,colored_shuffled,2021.2.3,59.94459918433608,
C:\Users\subject\Desktop\SVRT Experiments\SVRT Experiment 3\svrt_images\generated_images\results_problem_17,,C:\Users\subject\Desktop\SVRT Experiments\SVRT Experiment 3\svrt_images\generated_images\results_problem_17\sample_1_0015.png,,,,,,,,,,,,,,,,,,,,,,0,1,1,1,0,9,9,9,,,,,,,,,,,,,,f,17,A,A,13,1,Correct!,0.2997036000015214,432.56105590006337,None,432.56105590006337,None,432.8779570000479,None,,,,,49,001,2023-05-12_15h37.16.500,colored_shuffled,2021.2.3,59.94459918433608,
C:\Users\subject\Desktop\SVRT Experiments\SVRT Experiment 3\svrt_images\generated_images\results_problem_17,,C:\Users\subject\Desktop\SVRT Experiments\SVRT Experiment 3\svrt_images\generated_images\results_problem_17\sample_1_0002.png,,,,,,,,,,,,,,,,,,,,,,0,1,1,1,0,10,10,10,,,,,,,,,,,,,,j,17,B,A,13,0,Incorrect!,0.29794349998701364,433.9787842000369,None,433.9787842000369,None,434.29568790004123,None,,,,,49,001,2023-05-12_15h37.16.500,colored_shuffled,2021.2.3,59.94459918433608,
C:\Users\subject\Desktop\SVRT Experiments\SVRT Experiment 3\svrt_images\generated_images\results_problem_17,,C:\Users\subject\Desktop\SVRT Experiments\SVRT Experiment 3\svrt_images\generated_images\results_problem_17\sample_0_0000.png,,,,,,,,,,,,,,,,,,,,,,0,1,1,1,0,11,11,11,,,,,,,,,,,,,,f,17,A,B,13,0,Incorrect!,0.22421379992738366,435.3965075000888,None,435.3965075000888,None,435.64669490000233,None,,,,,49,001,2023-05-12_15h37.16.500,colored_shuffled,2021.2.3,59.94459918433608,
C:\Users\subject\Desktop\SVRT Experiments\SVRT Experiment 3\svrt_images\generated_images\results_problem_17,,C:\Users\subject\Desktop\SVRT Experiments\SVRT Experiment 3\svrt_images\generated_images\results_problem_17\sample_0_0010.png,,,,,,,,,,,,,,,,,,,,,,0,1,1,1,0,12,12,12,,,,,,,,,,,,,,f,17,A,B,13,0,Incorrect!,17.672331999987364,436.76416080002673,None,436.76416080002673,None,454.4607870000182,None,,,,,49,001,2023-05-12_15h37.16.500,colored_shuffled,2021.2.3,59.94459918433608,
C:\Users\subject\Desktop\SVRT Experiments\SVRT Experiment 3\svrt_images\generated_images\results_problem_17,,C:\Users\subject\Desktop\SVRT Experiments\SVRT Experiment 3\svrt_images\generated_images\results_problem_17\sample_1_0009.png,,,,,,,,,,,,,,,,,,,,,,0,1,1,1,0,13,13,13,,,,,,,,,,,,,,j,17,B,A,13,0,Incorrect!,0.9702146999770775,455.5782539000502,None,455.5782539000502,None,456.57903380005155,None,,,,,49,001,2023-05-12_15h37.16.500,colored_shuffled,2021.2.3,59.94459918433608,
C:\Users\subject\Desktop\SVRT Experiments\SVRT Experiment 3\svrt_images\generated_images\results_problem_17,,C:\Users\subject\Desktop\SVRT Experiments\SVRT Experiment 3\svrt_images\generated_images\results_problem_17\sample_1_0008.png,,,,,,,,,,,,,,,,,,,,,,0,1,1,1,0,14,14,14,,,,,,,,,,,,,,f,17,A,A,13,1,Correct!,0.5633027999429032,457.71322500007227,None,457.71322500007227,None,458.2969884000486,None,,,,,49,001,2023-05-12_15h37.16.500,colored_shuffled,2021.2.3,59.94459918433608,
C:\Users\subject\Desktop\SVRT Experiments\SVRT Experiment 3\svrt_images\generated_images\results_problem_17,,C:\Users\subject\Desktop\SVRT Experiments\SVRT Experiment 3\svrt_images\generated_images\results_problem_17\sample_1_0006.png,,,,,,,,,,,,,,,,,,,,,,0,1,1,1,0,15,15,15,,,,,,,,,,,,,,f,17,A,A,13,1,Correct!,0.5085734999738634,459.4478571000509,None,459.4478571000509,None,459.9815834000474,None,,,,,49,001,2023-05-12_15h37.16.500,colored_shuffled,2021.2.3,59.94459918433608,
C:\Users\subject\Desktop\SVRT Experiments\SVRT Experiment 3\svrt_images\generated_images\results_problem_17,,C:\Users\subject\Desktop\SVRT Experiments\SVRT Experiment 3\svrt_images\generated_images\results_problem_17\sample_1_0005.png,,,,,,,,,,,,,,,,,,,,,,0,1,1,1,0,16,16,16,,,,,,,,,,,,,,f,17,A,A,13,1,Correct!,1.935945100034587,461.1324498000322,None,461.1324498000322,None,463.10058540001046,None,,,,,49,001,2023-05-12_15h37.16.500,colored_shuffled,2021.2.3,59.94459918433608,
C:\Users\subject\Desktop\SVRT Experiments\SVRT Experiment 3\svrt_images\generated_images\results_problem_17,,C:\Users\subject\Desktop\SVRT Experiments\SVRT Experiment 3\svrt_images\generated_images\results_problem_17\sample_1_0013.png,,,,,,,,,,,,,,,,,,,,,,0,1,1,1,0,17,17,17,,,,,,,,,,,,,,f,17,A,A,13,1,Correct!,1.3042114999843761,464.268134700018,None,464.268134700018,None,465.61913560004905,None,,,,,49,001,2023-05-12_15h37.16.500,colored_shuffled,2021.2.3,59.94459918433608,
C:\Users\subject\Desktop\SVRT Experiments\SVRT Experiment 3\svrt_images\generated_images\results_problem_17,,C:\Users\subject\Desktop\SVRT Experiments\SVRT Experiment 3\svrt_images\generated_images\results_problem_17\sample_0_0013.png,,,,,,,,,,,,,,,,,,,,,,0,1,1,1,0,18,18,18,,,,,,,,,,,,,,f,17,A,B,13,0,Incorrect!,0.2649643999757245,466.80336610006634,None,466.80336610006634,None,467.0869034000207,None,,,,,49,001,2023-05-12_15h37.16.500,colored_shuffled,2021.2.3,59.94459918433608,
C:\Users\subject\Desktop\SVRT Experiments\SVRT Experiment 3\svrt_images\generated_images\results_problem_17,,C:\Users\subject\Desktop\SVRT Experiments\SVRT Experiment 3\svrt_images\generated_images\results_problem_17\sample_0_0011.png,,,,,,,,,,,,,,,,,,,,,,0,1,1,1,0,19,19,19,,,,,,,,,,,,,,j,17,B,B,13,1,Correct!,0.28518000000622123,468.27113130001817,None,468.27113130001817,None,468.58803000010084,None,,,,,49,001,2023-05-12_15h37.16.500,colored_shuffled,2021.2.3,59.94459918433608,
C:\Users\subject\Desktop\SVRT Experiments\SVRT Experiment 3\svrt_images\generated_images\results_problem_17,,C:\Users\subject\Desktop\SVRT Experiments\SVRT Experiment 3\svrt_images\generated_images\results_problem_17\sample_0_0008.png,,,,,,,,,,,,,,,,,,,,,,0,1,1,1,0,20,20,20,,,,,,,,,,,,,,j,17,B,B,13,1,Correct!,0.25536920002195984,469.7889508000808,None,469.7889508000808,None,470.0724773000693,None,,,,,49,001,2023-05-12_15h37.16.500,colored_shuffled,2021.2.3,59.94459918433608,
C:\Users\subject\Desktop\SVRT Experiments\SVRT Experiment 3\svrt_images\generated_images\results_problem_17,,C:\Users\subject\Desktop\SVRT Experiments\SVRT Experiment 3\svrt_images\generated_images\results_problem_17\sample_1_0004.png,,,,,,,,,,,,,,,,,,,,,,0,1,1,1,0,21,21,21,,,,,,,,,,,,,,f,17,A,A,13,1,Correct!,0.22624730004463345,471.29005490010604,None,471.29005490010604,None,471.5401888000779,None,,,,,49,001,2023-05-12_15h37.16.500,colored_shuffled,2021.2.3,59.94459918433608,
C:\Users\subject\Desktop\SVRT Experiments\SVRT Experiment 3\svrt_images\generated_images\results_problem_17,,C:\Users\subject\Desktop\SVRT Experiments\SVRT Experiment 3\svrt_images\generated_images\results_problem_17\sample_0_0007.png,,,,,,,,,,,,,,,,,,,,,,0,1,1,1,0,22,22,22,,,,,,,,,,,,,,f,17,A,B,13,0,Incorrect!,0.17374690005090088,472.77450360008515,None,472.77450360008515,None,472.99132840009406,None,,,,,49,001,2023-05-12_15h37.16.500,colored_shuffled,2021.2.3,59.94459918433608,
C:\Users\subject\Desktop\SVRT Experiments\SVRT Experiment 3\svrt_images\generated_images\results_problem_17,,C:\Users\subject\Desktop\SVRT Experiments\SVRT Experiment 3\svrt_images\generated_images\results_problem_17\sample_1_0010.png,,,,,,,,,,,,,,,,,,,,,,0,1,1,1,0,23,23,23,,,,,,,,,,,,,,j,17,B,A,13,0,Incorrect!,0.1706417000386864,474.22558540001046,None,474.22558540001046,None,474.44240410008933,None,,,,,49,001,2023-05-12_15h37.16.500,colored_shuffled,2021.2.3,59.94459918433608,
C:\Users\subject\Desktop\SVRT Experiments\SVRT Experiment 3\svrt_images\generated_images\results_problem_17,,C:\Users\subject\Desktop\SVRT Experiments\SVRT Experiment 3\svrt_images\generated_images\results_problem_17\sample_1_0011.png,,,,,,,,,,,,,,,,,,,,,,0,1,1,1,0,24,24,24,,,,,,,,,,,,,,j,17,B,A,13,0,Incorrect!,0.9108333999756724,475.6933685000986,None,475.6933685000986,None,476.62739540007897,None,,,,,49,001,2023-05-12_15h37.16.500,colored_shuffled,2021.2.3,59.94459918433608,
C:\Users\subject\Desktop\SVRT Experiments\SVRT Experiment 3\svrt_images\generated_images\results_problem_17,,C:\Users\subject\Desktop\SVRT Experiments\SVRT Experiment 3\svrt_images\generated_images\results_problem_17\sample_0_0001.png,,,,,,,,,,,,,,,,,,,,,,0,1,1,1,0,25,25,25,,,,,,,,,,,,,,j,17,B,B,13,1,Correct!,0.5251884999452159,477.8950034000445,None,477.8950034000445,None,478.4620855000103,None,,,,,49,001,2023-05-12_15h37.16.500,colored_shuffled,2021.2.3,59.94459918433608,
C:\Users\subject\Desktop\SVRT Experiments\SVRT Experiment 3\svrt_images\generated_images\results_problem_17,,C:\Users\subject\Desktop\SVRT Experiments\SVRT Experiment 3\svrt_images\generated_images\results_problem_17\sample_1_0016.png,,,,,,,,,,,,,,,,,,,,,,0,1,1,1,0,26,26,26,,,,,,,,,,,,,,j,17,B,A,13,0,Incorrect!,0.25786279991734773,479.74639610003214,None,479.74639610003214,None,480.06327140005305,None,,,,,49,001,2023-05-12_15h37.16.500,colored_shuffled,2021.2.3,59.94459918433608,
C:\Users\subject\Desktop\SVRT Experiments\SVRT Experiment 3\svrt_images\generated_images\results_problem_17,,C:\Users\subject\Desktop\SVRT Experiments\SVRT Experiment 3\svrt_images\generated_images\results_problem_17\sample_1_0014.png,,,,,,,,,,,,,,,,,,,,,,0,1,1,1,0,27,27,27,,,,,,,,,,,,,,f,17,A,A,13,1,Correct!,0.21662490000016987,481.3475932000438,None,481.3475932000438,None,481.61444800009485,None,,,,,49,001,2023-05-12_15h37.16.500,colored_shuffled,2021.2.3,59.94459918433608,
C:\Users\subject\Desktop\SVRT Experiments\SVRT Experiment 3\svrt_images\generated_images\results_problem_17,,C:\Users\subject\Desktop\SVRT Experiments\SVRT Experiment 3\svrt_images\generated_images\results_problem_17\sample_0_0003.png,,,,,,,,,,,,,,,,,,,,,,0,1,1,1,0,28,28,28,,,,,,,,,,,,,,j,17,B,B,13,1,Correct!,0.22472010005731136,482.9154530999949,None,482.9154530999949,None,483.18228810001165,None,,,,,49,001,2023-05-12_15h37.16.500,colored_shuffled,2021.2.3,59.94459918433608,
C:\Users\subject\Desktop\SVRT Experiments\SVRT Experiment 3\svrt_images\generated_images\results_problem_17,,C:\Users\subject\Desktop\SVRT Experiments\SVRT Experiment 3\svrt_images\generated_images\results_problem_17\sample_0_0016.png,,,,,,,,,,,,,,,,,,,,,,0,1,1,1,0,29,29,29,,,,,,,,,,,,,,j,17,B,B,13,1,Correct!,0.5448256999952719,484.4832969000563,None,484.4832969000563,None,485.0503520000493,None,,,,,49,001,2023-05-12_15h37.16.500,colored_shuffled,2021.2.3,59.94459918433608,
C:\Users\subject\Desktop\SVRT Experiments\SVRT Experiment 3\svrt_images\generated_images\results_problem_17,,C:\Users\subject\Desktop\SVRT Experiments\SVRT Experiment 3\svrt_images\generated_images\results_problem_17\sample_0_0015.png,,,,,,,,,,,,,,,,,,,,,,0,1,1,1,0,30,30,30,,,,,,,,,,,,,,j,17,B,B,13,1,Correct!,0.5713850000174716,486.3846970000304,None,486.3846970000304,None,487.01849240006413,None,,,,,49,001,2023-05-12_15h37.16.500,colored_shuffled,2021.2.3,59.94459918433608,
C:\Users\subject\Desktop\SVRT Experiments\SVRT Experiment 3\svrt_images\generated_images\results_problem_17,,C:\Users\subject\Desktop\SVRT Experiments\SVRT Experiment 3\svrt_images\generated_images\results_problem_17\sample_0_0005.png,,,,,,,,,,,,,,,,,,,,,,0,1,1,1,0,31,31,31,,,,,,,,,,,,,,j,17,B,B,13,1,Correct!,0.4031984999310225,488.35283450002316,None,488.35283450002316,None,488.83652000001166,None,,,,,49,001,2023-05-12_15h37.16.500,colored_shuffled,2021.2.3,59.94459918433608,
C:\Users\subject\Desktop\SVRT Experiments\SVRT Experiment 3\svrt_images\generated_images\results_problem_17,,C:\Users\subject\Desktop\SVRT Experiments\SVRT Experiment 3\svrt_images\generated_images\results_problem_17\sample_0_0006.png,,,,,,,,,,,,,,,,,,,,,,0,1,1,1,0,32,32,32,,,,,,,,,,,,,,j,17,B,B,13,1,Correct!,0.13650410005357116,490.1875432000961,None,490.1875432000961,None,490.4043619000586,None,,,,,49,001,2023-05-12_15h37.16.500,colored_shuffled,2021.2.3,59.94459918433608,
C:\Users\subject\Desktop\SVRT Experiments\SVRT Experiment 3\svrt_images\generated_images\results_problem_17,,C:\Users\subject\Desktop\SVRT Experiments\SVRT Experiment 3\svrt_images\generated_images\results_problem_17\sample_1_0000.png,,,,,,,,,,,,,,,,,,,,,,0,1,1,1,0,33,33,33,,,,,,,,,,,,,,f,17,A,A,13,1,Correct!,0.24521079997066408,491.84682670002803,None,491.84682670002803,None,492.1223119000206,None,,,,,49,001,2023-05-12_15h37.16.500,colored_shuffled,2021.2.3,59.94459918433608,
C:\Users\subject\Desktop\SVRT Experiments\SVRT Experiment 3\svrt_images\generated_images\results_problem_17,,,,,,,,,,,,,,,,,,,,,,,,0,1,1,1,,,,,,,,,,,,,,,,,,,,,,,,,,,,,,,,493.1230642000446,493.1230642000446,space,1.248894799966365,49,001,2023-05-12_15h37.16.500,colored_shuffled,2021.2.3,59.94459918433608,
C:\Users\subject\Desktop\SVRT Experiments\SVRT Experiment 3\svrt_images\generated_images\results_problem_19,,,C:\Users\subject\Desktop\SVRT Experiments\SVRT Experiment 3\svrt_images\generated_images\results_problem_19\sample_0_0005.png,,,,,,,,,,,,,,,,,,,,,0,2,2,2,0,0,0,0,,,,,,,,,,,,,,f,19,A,B,13,0,Incorrect!,0.8206393999280408,494.4073574000504,None,494.4073574000504,None,495.2579962000018,None,,,,,49,001,2023-05-12_15h37.16.500,colored_shuffled,2021.2.3,59.94459918433608,
C:\Users\subject\Desktop\SVRT Experiments\SVRT Experiment 3\svrt_images\generated_images\results_problem_19,,,C:\Users\subject\Desktop\SVRT Experiments\SVRT Experiment 3\svrt_images\generated_images\results_problem_19\sample_1_0004.png,,,,,,,,,,,,,,,,,,,,,0,2,2,2,0,1,1,1,,,,,,,,,,,,,,f,19,A,A,13,1,Correct!,0.30522019998170435,496.2587427000981,None,496.2587427000981,None,496.59233000001404,None,,,,,49,001,2023-05-12_15h37.16.500,colored_shuffled,2021.2.3,59.94459918433608,
C:\Users\subject\Desktop\SVRT Experiments\SVRT Experiment 3\svrt_images\generated_images\results_problem_19,,,C:\Users\subject\Desktop\SVRT Experiments\SVRT Experiment 3\svrt_images\generated_images\results_problem_19\sample_0_0010.png,,,,,,,,,,,,,,,,,,,,,0,2,2,2,0,2,2,2,,,,,,,,,,,,,,f,19,A,B,13,0,Incorrect!,0.21822849998716265,497.6097574000014,None,497.6097574000014,None,497.85990240005776,None,,,,,49,001,2023-05-12_15h37.16.500,colored_shuffled,2021.2.3,59.94459918433608,
C:\Users\subject\Desktop\SVRT Experiments\SVRT Experiment 3\svrt_images\generated_images\results_problem_19,,,C:\Users\subject\Desktop\SVRT Experiments\SVRT Experiment 3\svrt_images\generated_images\results_problem_19\sample_1_0006.png,,,,,,,,,,,,,,,,,,,,,0,2,2,2,0,3,3,3,,,,,,,,,,,,,,j,19,B,A,13,0,Incorrect!,0.2538992000045255,498.89405300002545,None,498.89405300002545,None,499.1775968000293,None,,,,,49,001,2023-05-12_15h37.16.500,colored_shuffled,2021.2.3,59.94459918433608,
C:\Users\subject\Desktop\SVRT Experiments\SVRT Experiment 3\svrt_images\generated_images\results_problem_19,,,C:\Users\subject\Desktop\SVRT Experiments\SVRT Experiment 3\svrt_images\generated_images\results_problem_19\sample_0_0001.png,,,,,,,,,,,,,,,,,,,,,0,2,2,2,0,4,4,4,,,,,,,,,,,,,,f,19,A,B,13,0,Incorrect!,0.21620739996433258,500.211706000031,None,500.211706000031,None,500.44521330005955,None,,,,,49,001,2023-05-12_15h37.16.500,colored_shuffled,2021.2.3,59.94459918433608,
C:\Users\subject\Desktop\SVRT Experiments\SVRT Experiment 3\svrt_images\generated_images\results_problem_19,,,C:\Users\subject\Desktop\SVRT Experiments\SVRT Experiment 3\svrt_images\generated_images\results_problem_19\sample_0_0013.png,,,,,,,,,,,,,,,,,,,,,0,2,2,2,0,5,5,5,,,,,,,,,,,,,,f,19,A,B,13,0,Incorrect!,0.9878992999438196,501.49600000004284,None,501.49600000004284,None,502.51342650002334,None,,,,,49,001,2023-05-12_15h37.16.500,colored_shuffled,2021.2.3,59.94459918433608,
C:\Users\subject\Desktop\SVRT Experiments\SVRT Experiment 3\svrt_images\generated_images\results_problem_19,,,C:\Users\subject\Desktop\SVRT Experiments\SVRT Experiment 3\svrt_images\generated_images\results_problem_19\sample_1_0013.png,,,,,,,,,,,,,,,,,,,,,0,2,2,2,0,6,6,6,,,,,,,,,,,,,,j,19,B,A,13,0,Incorrect!,0.15968459995929152,503.56421730003785,None,503.56421730003785,None,503.74768560007215,None,,,,,49,001,2023-05-12_15h37.16.500,colored_shuffled,2021.2.3,59.94459918433608,
C:\Users\subject\Desktop\SVRT Experiments\SVRT Experiment 3\svrt_images\generated_images\results_problem_19,,,C:\Users\subject\Desktop\SVRT Experiments\SVRT Experiment 3\svrt_images\generated_images\results_problem_19\sample_1_0003.png,,,,,,,,,,,,,,,,,,,,,0,2,2,2,0,7,7,7,,,,,,,,,,,,,,j,19,B,A,13,0,Incorrect!,0.5328055999707431,504.8151569000911,None,504.8151569000911,None,505.3655601000646,None,,,,,49,001,2023-05-12_15h37.16.500,colored_shuffled,2021.2.3,59.94459918433608,
C:\Users\subject\Desktop\SVRT Experiments\SVRT Experiment 3\svrt_images\generated_images\results_problem_19,,,C:\Users\subject\Desktop\SVRT Experiments\SVRT Experiment 3\svrt_images\generated_images\results_problem_19\sample_1_0015.png,,,,,,,,,,,,,,,,,,,,,0,2,2,2,0,8,8,8,,,,,,,,,,,,,,j,19,B,A,13,0,Incorrect!,0.6348042999161407,506.4330315000843,None,506.4330315000843,None,507.1001957000699,None,,,,,49,001,2023-05-12_15h37.16.500,colored_shuffled,2021.2.3,59.94459918433608,
C:\Users\subject\Desktop\SVRT Experiments\SVRT Experiment 3\svrt_images\generated_images\results_problem_19,,,C:\Users\subject\Desktop\SVRT Experiments\SVRT Experiment 3\svrt_images\generated_images\results_problem_19\sample_0_0006.png,,,,,,,,,,,,,,,,,,,,,0,2,2,2,0,9,9,9,,,,,,,,,,,,,,j,19,B,B,13,1,Correct!,1.0594127000076696,508.1843477000948,None,508.1843477000948,None,509.2684855000116,None,,,,,49,001,2023-05-12_15h37.16.500,colored_shuffled,2021.2.3,59.94459918433608,
C:\Users\subject\Desktop\SVRT Experiments\SVRT Experiment 3\svrt_images\generated_images\results_problem_19,,,C:\Users\subject\Desktop\SVRT Experiments\SVRT Experiment 3\svrt_images\generated_images\results_problem_19\sample_0_0014.png,,,,,,,,,,,,,,,,,,,,,0,2,2,2,0,10,10,10,,,,,,,,,,,,,,j,19,B,B,13,1,Correct!,0.5786374000599608,510.36931410001125,None,510.36931410001125,None,510.96975630009547,None,,,,,49,001,2023-05-12_15h37.16.500,colored_shuffled,2021.2.3,59.94459918433608,
C:\Users\subject\Desktop\SVRT Experiments\SVRT Experiment 3\svrt_images\generated_images\results_problem_19,,,C:\Users\subject\Desktop\SVRT Experiments\SVRT Experiment 3\svrt_images\generated_images\results_problem_19\sample_1_0009.png,,,,,,,,,,,,,,,,,,,,,0,2,2,2,0,11,11,11,,,,,,,,,,,,,,j,19,B,A,13,0,Incorrect!,0.3252917999634519,512.0705928000389,None,512.0705928000389,None,512.4208560000407,None,,,,,49,001,2023-05-12_15h37.16.500,colored_shuffled,2021.2.3,59.94459918433608,
C:\Users\subject\Desktop\SVRT Experiments\SVRT Experiment 3\svrt_images\generated_images\results_problem_19,,,C:\Users\subject\Desktop\SVRT Experiments\SVRT Experiment 3\svrt_images\generated_images\results_problem_19\sample_0_0016.png,,,,,,,,,,,,,,,,,,,,,0,2,2,2,0,12,12,12,,,,,,,,,,,,,,j,19,B,B,13,1,Correct!,0.26541039999574423,513.5383549000835,None,513.5383549000835,None,513.821915000095,None,,,,,49,001,2023-05-12_15h37.16.500,colored_shuffled,2021.2.3,59.94459918433608,
C:\Users\subject\Desktop\SVRT Experiments\SVRT Experiment 3\svrt_images\generated_images\results_problem_19,,,C:\Users\subject\Desktop\SVRT Experiments\SVRT Experiment 3\svrt_images\generated_images\results_problem_19\sample_0_0004.png,,,,,,,,,,,,,,,,,,,,,0,2,2,2,0,13,13,13,,,,,,,,,,,,,,f,19,A,B,13,0,Incorrect!,0.2724690999602899,514.9394045000663,None,514.9394045000663,None,515.2396220000228,None,,,,,49,001,2023-05-12_15h37.16.500,colored_shuffled,2021.2.3,59.94459918433608,
C:\Users\subject\Desktop\SVRT Experiments\SVRT Experiment 3\svrt_images\generated_images\results_problem_19,,,C:\Users\subject\Desktop\SVRT Experiments\SVRT Experiment 3\svrt_images\generated_images\results_problem_19\sample_1_0005.png,,,,,,,,,,,,,,,,,,,,,0,2,2,2,0,14,14,14,,,,,,,,,,,,,,f,19,A,A,13,1,Correct!,0.3259137000422925,516.3738529999973,None,516.3738529999973,None,516.7240631000604,None,,,,,49,001,2023-05-12_15h37.16.500,colored_shuffled,2021.2.3,59.94459918433608,
C:\Users\subject\Desktop\SVRT Experiments\SVRT Experiment 3\svrt_images\generated_images\results_problem_19,,,C:\Users\subject\Desktop\SVRT Experiments\SVRT Experiment 3\svrt_images\generated_images\results_problem_19\sample_1_0014.png,,,,,,,,,,,,,,,,,,,,,0,2,2,2,0,15,15,15,,,,,,,,,,,,,,f,19,A,A,13,1,Correct!,0.2327591999201104,517.8749309000559,None,517.8749309000559,None,518.1251198000973,None,,,,,49,001,2023-05-12_15h37.16.500,colored_shuffled,2021.2.3,59.94459918433608,
C:\Users\subject\Desktop\SVRT Experiments\SVRT Experiment 3\svrt_images\generated_images\results_problem_19,,,C:\Users\subject\Desktop\SVRT Experiments\SVRT Experiment 3\svrt_images\generated_images\results_problem_19\sample_1_0008.png,,,,,,,,,,,,,,,,,,,,,0,2,2,2,0,16,16,16,,,,,,,,,,,,,,f,19,A,A,13,1,Correct!,0.2316710000159219,519.2759902999969,None,519.2759902999969,None,519.5261365000624,None,,,,,49,001,2023-05-12_15h37.16.500,colored_shuffled,2021.2.3,59.94459918433608,
C:\Users\subject\Desktop\SVRT Experiments\SVRT Experiment 3\svrt_images\generated_images\results_problem_19,,,C:\Users\subject\Desktop\SVRT Experiments\SVRT Experiment 3\svrt_images\generated_images\results_problem_19\sample_0_0003.png,,,,,,,,,,,,,,,,,,,,,0,2,2,2,0,17,17,17,,,,,,,,,,,,,,f,19,A,B,13,0,Incorrect!,0.47796359995845705,520.6937188000884,None,520.6937188000884,None,521.2107619000599,None,,,,,49,001,2023-05-12_15h37.16.500,colored_shuffled,2021.2.3,59.94459918433608,
C:\Users\subject\Desktop\SVRT Experiments\SVRT Experiment 3\svrt_images\generated_images\results_problem_19,,,C:\Users\subject\Desktop\SVRT Experiments\SVRT Experiment 3\svrt_images\generated_images\results_problem_19\sample_0_0011.png,,,,,,,,,,,,,,,,,,,,,0,2,2,2,0,18,18,18,,,,,,,,,,,,,,f,19,A,B,13,0,Incorrect!,0.1606620999518782,522.3949851000216,None,522.3949851000216,None,522.5784533000551,None,,,,,49,001,2023-05-12_15h37.16.500,colored_shuffled,2021.2.3,59.94459918433608,
C:\Users\subject\Desktop\SVRT Experiments\SVRT Experiment 3\svrt_images\generated_images\results_problem_19,,,C:\Users\subject\Desktop\SVRT Experiments\SVRT Experiment 3\svrt_images\generated_images\results_problem_19\sample_0_0002.png,,,,,,,,,,,,,,,,,,,,,0,2,2,2,0,19,19,19,,,,,,,,,,,,,,f,19,A,B,13,0,Incorrect!,0.24034280003979802,523.7793544000015,None,523.7793544000015,None,524.0628948000958,None,,,,,49,001,2023-05-12_15h37.16.500,colored_shuffled,2021.2.3,59.94459918433608,
C:\Users\subject\Desktop\SVRT Experiments\SVRT Experiment 3\svrt_images\generated_images\results_problem_19,,,C:\Users\subject\Desktop\SVRT Experiments\SVRT Experiment 3\svrt_images\generated_images\results_problem_19\sample_1_0000.png,,,,,,,,,,,,,,,,,,,,,0,2,2,2,0,20,20,20,,,,,,,,,,,,,,f,19,A,A,13,1,Correct!,0.20379810000304133,525.2637973000528,None,525.2637973000528,None,525.5139816000592,None,,,,,49,001,2023-05-12_15h37.16.500,colored_shuffled,2021.2.3,59.94459918433608,
C:\Users\subject\Desktop\SVRT Experiments\SVRT Experiment 3\svrt_images\generated_images\results_problem_19,,,C:\Users\subject\Desktop\SVRT Experiments\SVRT Experiment 3\svrt_images\generated_images\results_problem_19\sample_0_0000.png,,,,,,,,,,,,,,,,,,,,,0,2,2,2,0,21,21,21,,,,,,,,,,,,,,j,19,B,B,13,1,Correct!,0.1760329999960959,526.7315685000503,None,526.7315685000503,None,526.9483841001056,None,,,,,49,001,2023-05-12_15h37.16.500,colored_shuffled,2021.2.3,59.94459918433608,
C:\Users\subject\Desktop\SVRT Experiments\SVRT Experiment 3\svrt_images\generated_images\results_problem_19,,,C:\Users\subject\Desktop\SVRT Experiments\SVRT Experiment 3\svrt_images\generated_images\results_problem_19\sample_0_0009.png,,,,,,,,,,,,,,,,,,,,,0,2,2,2,0,22,22,22,,,,,,,,,,,,,,j,19,B,B,13,1,Correct!,0.1569376999977976,528.1826574000297,None,528.1826574000297,None,528.3661136000883,None,,,,,49,001,2023-05-12_15h37.16.500,colored_shuffled,2021.2.3,59.94459918433608,
C:\Users\subject\Desktop\SVRT Experiments\SVRT Experiment 3\svrt_images\generated_images\results_problem_19,,,C:\Users\subject\Desktop\SVRT Experiments\SVRT Experiment 3\svrt_images\generated_images\results_problem_19\sample_1_0001.png,,,,,,,,,,,,,,,,,,,,,0,2,2,2,0,23,23,23,,,,,,,,,,,,,,j,19,B,A,13,0,Incorrect!,0.14711600006558,529.6003857000032,None,529.6003857000032,None,529.7838523000246,None,,,,,49,001,2023-05-12_15h37.16.500,colored_shuffled,2021.2.3,59.94459918433608,
C:\Users\subject\Desktop\SVRT Experiments\SVRT Experiment 3\svrt_images\generated_images\results_problem_19,,,C:\Users\subject\Desktop\SVRT Experiments\SVRT Experiment 3\svrt_images\generated_images\results_problem_19\sample_1_0002.png,,,,,,,,,,,,,,,,,,,,,0,2,2,2,0,24,24,24,,,,,,,,,,,,,,f,19,A,A,13,1,Correct!,0.6567728000227362,531.034786400036,None,531.034786400036,None,531.735308000003,None,,,,,49,001,2023-05-12_15h37.16.500,colored_shuffled,2021.2.3,59.94459918433608,
C:\Users\subject\Desktop\SVRT Experiments\SVRT Experiment 3\svrt_images\generated_images\results_problem_19,,,C:\Users\subject\Desktop\SVRT Experiments\SVRT Experiment 3\svrt_images\generated_images\results_problem_19\sample_1_0012.png,,,,,,,,,,,,,,,,,,,,,0,2,2,2,0,25,25,25,,,,,,,,,,,,,,f,19,A,A,13,1,Correct!,0.2566065000137314,533.0029420000501,None,533.0029420000501,None,533.3198244000087,None,,,,,49,001,2023-05-12_15h37.16.500,colored_shuffled,2021.2.3,59.94459918433608,
C:\Users\subject\Desktop\SVRT Experiments\SVRT Experiment 3\svrt_images\generated_images\results_problem_19,,,C:\Users\subject\Desktop\SVRT Experiments\SVRT Experiment 3\svrt_images\generated_images\results_problem_19\sample_0_0012.png,,,,,,,,,,,,,,,,,,,,,0,2,2,2,0,26,26,26,,,,,,,,,,,,,,f,19,A,B,13,0,Incorrect!,0.48808189993724227,534.5874444000656,None,534.5874444000656,None,535.1044966001064,None,,,,,49,001,2023-05-12_15h37.16.500,colored_shuffled,2021.2.3,59.94459918433608,
C:\Users\subject\Desktop\SVRT Experiments\SVRT Experiment 3\svrt_images\generated_images\results_problem_19,,,C:\Users\subject\Desktop\SVRT Experiments\SVRT Experiment 3\svrt_images\generated_images\results_problem_19\sample_0_0007.png,,,,,,,,,,,,,,,,,,,,,0,2,2,2,0,27,27,27,,,,,,,,,,,,,,f,19,A,B,13,0,Incorrect!,0.20598359999712557,536.4054768000497,None,536.4054768000497,None,536.6723490000004,None,,,,,49,001,2023-05-12_15h37.16.500,colored_shuffled,2021.2.3,59.94459918433608,
C:\Users\subject\Desktop\SVRT Experiments\SVRT Experiment 3\svrt_images\generated_images\results_problem_19,,,C:\Users\subject\Desktop\SVRT Experiments\SVRT Experiment 3\svrt_images\generated_images\results_problem_19\sample_0_0015.png,,,,,,,,,,,,,,,,,,,,,0,2,2,2,0,28,28,28,,,,,,,,,,,,,,j,19,B,B,13,1,Correct!,0.2621473000617698,537.9733170000836,None,537.9733170000836,None,538.2902149000438,None,,,,,49,001,2023-05-12_15h37.16.500,colored_shuffled,2021.2.3,59.94459918433608,
C:\Users\subject\Desktop\SVRT Experiments\SVRT Experiment 3\svrt_images\generated_images\results_problem_19,,,C:\Users\subject\Desktop\SVRT Experiments\SVRT Experiment 3\svrt_images\generated_images\results_problem_19\sample_1_0007.png,,,,,,,,,,,,,,,,,,,,,0,2,2,2,0,29,29,29,,,,,,,,,,,,,,j,19,B,A,13,0,Incorrect!,0.23556689999531955,539.6078845000593,None,539.6078845000593,None,539.8747375000967,None,,,,,49,001,2023-05-12_15h37.16.500,colored_shuffled,2021.2.3,59.94459918433608,
C:\Users\subject\Desktop\SVRT Experiments\SVRT Experiment 3\svrt_images\generated_images\results_problem_19,,,C:\Users\subject\Desktop\SVRT Experiments\SVRT Experiment 3\svrt_images\generated_images\results_problem_19\sample_1_0011.png,,,,,,,,,,,,,,,,,,,,,0,2,2,2,0,30,30,30,,,,,,,,,,,,,,j,19,B,A,13,0,Incorrect!,0.010339600034058094,541.2090920000337,None,541.2090920000337,None,541.2924632000504,None,,,,,49,001,2023-05-12_15h37.16.500,colored_shuffled,2021.2.3,59.94459918433608,
C:\Users\subject\Desktop\SVRT Experiments\SVRT Experiment 3\svrt_images\generated_images\results_problem_19,,,C:\Users\subject\Desktop\SVRT Experiments\SVRT Experiment 3\svrt_images\generated_images\results_problem_19\sample_1_0016.png,,,,,,,,,,,,,,,,,,,,,0,2,2,2,0,31,31,31,,,,,,,,,,,,,,f,19,A,A,13,1,Correct!,0.31203050003387034,542.6434730000328,None,542.6434730000328,None,542.9937365000369,None,,,,,49,001,2023-05-12_15h37.16.500,colored_shuffled,2021.2.3,59.94459918433608,
C:\Users\subject\Desktop\SVRT Experiments\SVRT Experiment 3\svrt_images\generated_images\results_problem_19,,,C:\Users\subject\Desktop\SVRT Experiments\SVRT Experiment 3\svrt_images\generated_images\results_problem_19\sample_0_0008.png,,,,,,,,,,,,,,,,,,,,,0,2,2,2,0,32,32,32,,,,,,,,,,,,,,f,19,A,B,13,0,Incorrect!,0.050644699949771166,544.3447549000848,None,544.3447549000848,None,544.4281470000278,None,,,,,49,001,2023-05-12_15h37.16.500,colored_shuffled,2021.2.3,59.94459918433608,
C:\Users\subject\Desktop\SVRT Experiments\SVRT Experiment 3\svrt_images\generated_images\results_problem_19,,,C:\Users\subject\Desktop\SVRT Experiments\SVRT Experiment 3\svrt_images\generated_images\results_problem_19\sample_1_0010.png,,,,,,,,,,,,,,,,,,,,,0,2,2,2,0,33,33,33,,,,,,,,,,,,,,j,19,B,A,13,0,Incorrect!,0.007558200042694807,545.7958445000695,None,545.7958445000695,None,545.8792377000209,None,,,,,49,001,2023-05-12_15h37.16.500,colored_shuffled,2021.2.3,59.94459918433608,
C:\Users\subject\Desktop\SVRT Experiments\SVRT Experiment 3\svrt_images\generated_images\results_problem_19,,,,,,,,,,,,,,,,,,,,,,,,0,2,2,2,,,,,,,,,,,,,,,,,,,,,,,,,,,,,,,,546.879980500089,546.879980500089,space,2.955345599912107,49,001,2023-05-12_15h37.16.500,colored_shuffled,2021.2.3,59.94459918433608,
C:\Users\subject\Desktop\SVRT Experiments\SVRT Experiment 3\svrt_images\generated_images\results_problem_6,,,,C:\Users\subject\Desktop\SVRT Experiments\SVRT Experiment 3\svrt_images\generated_images\results_problem_6\sample_0_0015.png,,,,,,,,,,,,,,,,,,,,0,3,3,3,0,0,0,0,,,,,,,,,,,,,,f,6,A,B,13,0,Incorrect!,0.8737299999920651,549.8655448000645,None,549.8655448000645,None,550.766231900081,None,,,,,49,001,2023-05-12_15h37.16.500,colored_shuffled,2021.2.3,59.94459918433608,
C:\Users\subject\Desktop\SVRT Experiments\SVRT Experiment 3\svrt_images\generated_images\results_problem_6,,,,C:\Users\subject\Desktop\SVRT Experiments\SVRT Experiment 3\svrt_images\generated_images\results_problem_6\sample_1_0010.png,,,,,,,,,,,,,,,,,,,,0,3,3,3,0,1,1,1,,,,,,,,,,,,,,j,6,B,A,13,0,Incorrect!,0.6603243000572547,551.7669709000038,None,551.7669709000038,None,552.4508207000326,None,,,,,49,001,2023-05-12_15h37.16.500,colored_shuffled,2021.2.3,59.94459918433608,
C:\Users\subject\Desktop\SVRT Experiments\SVRT Experiment 3\svrt_images\generated_images\results_problem_6,,,,C:\Users\subject\Desktop\SVRT Experiments\SVRT Experiment 3\svrt_images\generated_images\results_problem_6\sample_1_0011.png,,,,,,,,,,,,,,,,,,,,0,3,3,3,0,2,2,2,,,,,,,,,,,,,,f,6,A,A,13,1,Correct!,0.38315610005520284,553.4682476000162,None,553.4682476000162,None,553.8685472999932,None,,,,,49,001,2023-05-12_15h37.16.500,colored_shuffled,2021.2.3,59.94459918433608,
C:\Users\subject\Desktop\SVRT Experiments\SVRT Experiment 3\svrt_images\generated_images\results_problem_6,,,,C:\Users\subject\Desktop\SVRT Experiments\SVRT Experiment 3\svrt_images\generated_images\results_problem_6\sample_0_0014.png,,,,,,,,,,,,,,,,,,,,0,3,3,3,0,3,3,3,,,,,,,,,,,,,,j,6,B,B,13,1,Correct!,4.285235999966972,554.885973000084,None,554.885973000084,None,559.1897972000297,None,,,,,49,001,2023-05-12_15h37.16.500,colored_shuffled,2021.2.3,59.94459918433608,
C:\Users\subject\Desktop\SVRT Experiments\SVRT Experiment 3\svrt_images\generated_images\results_problem_6,,,,C:\Users\subject\Desktop\SVRT Experiments\SVRT Experiment 3\svrt_images\generated_images\results_problem_6\sample_0_0009.png,,,,,,,,,,,,,,,,,,,,0,3,3,3,0,4,4,4,,,,,,,,,,,,,,j,6,B,B,13,1,Correct!,1.8038585000904277,560.2233042001026,None,560.2233042001026,None,562.0580090000294,None,,,,,49,001,2023-05-12_15h37.16.500,colored_shuffled,2021.2.3,59.94459918433608,
C:\Users\subject\Desktop\SVRT Experiments\SVRT Experiment 3\svrt_images\generated_images\results_problem_6,,,,C:\Users\subject\Desktop\SVRT Experiments\SVRT Experiment 3\svrt_images\generated_images\results_problem_6\sample_1_0016.png,,,,,,,,,,,,,,,,,,,,0,3,3,3,0,5,5,5,,,,,,,,,,,,,,f,6,A,A,13,1,Correct!,3.102488399948925,563.1088015000569,None,563.1088015000569,None,566.244548000046,None,,,,,49,001,2023-05-12_15h37.16.500,colored_shuffled,2021.2.3,59.94459918433608,
C:\Users\subject\Desktop\SVRT Experiments\SVRT Experiment 3\svrt_images\generated_images\results_problem_6,,,,C:\Users\subject\Desktop\SVRT Experiments\SVRT Experiment 3\svrt_images\generated_images\results_problem_6\sample_1_0003.png,,,,,,,,,,,,,,,,,,,,0,3,3,3,0,6,6,6,,,,,,,,,,,,,,f,6,A,A,13,1,Correct!,4.267051300033927,567.311959200073,None,567.311959200073,None,571.5984312000219,None,,,,,49,001,2023-05-12_15h37.16.500,colored_shuffled,2021.2.3,59.94459918433608,
C:\Users\subject\Desktop\SVRT Experiments\SVRT Experiment 3\svrt_images\generated_images\results_problem_6,,,,C:\Users\subject\Desktop\SVRT Experiments\SVRT Experiment 3\svrt_images\generated_images\results_problem_6\sample_0_0006.png,,,,,,,,,,,,,,,,,,,,0,3,3,3,0,7,7,7,,,,,,,,,,,,,,j,6,B,B,13,1,Correct!,2.5618556999834254,572.649166700081,None,572.649166700081,None,575.2344494001009,None,,,,,49,001,2023-05-12_15h37.16.500,colored_shuffled,2021.2.3,59.94459918433608,
C:\Users\subject\Desktop\SVRT Experiments\SVRT Experiment 3\svrt_images\generated_images\results_problem_6,,,,C:\Users\subject\Desktop\SVRT Experiments\SVRT Experiment 3\svrt_images\generated_images\results_problem_6\sample_1_0008.png,,,,,,,,,,,,,,,,,,,,0,3,3,3,0,8,8,8,,,,,,,,,,,,,,f,6,A,A,13,1,Correct!,1.2530701999785379,576.3019279000582,None,576.3019279000582,None,577.5862147000153,None,,,,,49,001,2023-05-12_15h37.16.500,colored_shuffled,2021.2.3,59.94459918433608,
C:\Users\subject\Desktop\SVRT Experiments\SVRT Experiment 3\svrt_images\generated_images\results_problem_6,,,,C:\Users\subject\Desktop\SVRT Experiments\SVRT Experiment 3\svrt_images\generated_images\results_problem_6\sample_0_0003.png,,,,,,,,,,,,,,,,,,,,0,3,3,3,0,9,9,9,,,,,,,,,,,,,,,,,,,,,,,,,,,,578.5875746000092,578.5875746000092,space,0.7993331999750808,49,001,2023-05-12_15h37.16.500,colored_shuffled,2021.2.3,59.94459918433608,
C:\Users\subject\Desktop\SVRT Experiments\SVRT Experiment 3\svrt_images\generated_images\results_problem_14,,,,C:\Users\subject\Desktop\SVRT Experiments\SVRT Experiment 3\svrt_images\generated_images\results_problem_6\sample_0_0003.png,C:\Users\subject\Desktop\SVRT Experiments\SVRT Experiment 3\svrt_images\generated_images\results_problem_14\sample_1_0002.png,,,,,,,,,,,,,,,,,,,0,4,4,4,0,0,0,0,,,,,,,,,,,,,,f,14,A,A,13,1,Correct!,1.293991700047627,579.4209641000489,None,579.4209641000489,None,580.7393003000179,None,,,,,49,001,2023-05-12_15h37.16.500,colored_shuffled,2021.2.3,59.94459918433608,
C:\Users\subject\Desktop\SVRT Experiments\SVRT Experiment 3\svrt_images\generated_images\results_problem_14,,,,C:\Users\subject\Desktop\SVRT Experiments\SVRT Experiment 3\svrt_images\generated_images\results_problem_6\sample_0_0003.png,C:\Users\subject\Desktop\SVRT Experiments\SVRT Experiment 3\svrt_images\generated_images\results_problem_14\sample_1_0006.png,,,,,,,,,,,,,,,,,,,0,4,4,4,0,1,1,1,,,,,,,,,,,,,,f,14,A,A,13,1,Correct!,1.135612899903208,581.7394149000756,None,581.7394149000756,None,582.906958000036,None,,,,,49,001,2023-05-12_15h37.16.500,colored_shuffled,2021.2.3,59.94459918433608,
C:\Users\subject\Desktop\SVRT Experiments\SVRT Experiment 3\svrt_images\generated_images\results_problem_14,,,,C:\Users\subject\Desktop\SVRT Experiments\SVRT Experiment 3\svrt_images\generated_images\results_problem_6\sample_0_0003.png,C:\Users\subject\Desktop\SVRT Experiments\SVRT Experiment 3\svrt_images\generated_images\results_problem_14\sample_0_0012.png,,,,,,,,,,,,,,,,,,,0,4,4,4,0,2,2,2,,,,,,,,,,,,,,f,14,A,B,13,0,Incorrect!,0.6065193000249565,583.9243860000279,None,583.9243860000279,None,584.5581919000251,None,,,,,49,001,2023-05-12_15h37.16.500,colored_shuffled,2021.2.3,59.94459918433608,
C:\Users\subject\Desktop\SVRT Experiments\SVRT Experiment 3\svrt_images\generated_images\results_problem_14,,,,C:\Users\subject\Desktop\SVRT Experiments\SVRT Experiment 3\svrt_images\generated_images\results_problem_6\sample_0_0003.png,C:\Users\subject\Desktop\SVRT Experiments\SVRT Experiment 3\svrt_images\generated_images\results_problem_14\sample_0_0013.png,,,,,,,,,,,,,,,,,,,0,4,4,4,0,3,3,3,,,,,,,,,,,,,,j,14,B,B,13,1,Correct!,6.995183299994096,585.575636500027,None,585.575636500027,None,592.5975424000062,None,,,,,49,001,2023-05-12_15h37.16.500,colored_shuffled,2021.2.3,59.94459918433608,
C:\Users\subject\Desktop\SVRT Experiments\SVRT Experiment 3\svrt_images\generated_images\results_problem_14,,,,C:\Users\subject\Desktop\SVRT Experiments\SVRT Experiment 3\svrt_images\generated_images\results_problem_6\sample_0_0003.png,C:\Users\subject\Desktop\SVRT Experiments\SVRT Experiment 3\svrt_images\generated_images\results_problem_14\sample_0_0002.png,,,,,,,,,,,,,,,,,,,0,4,4,4,0,4,4,4,,,,,,,,,,,,,,f,14,A,B,13,0,Incorrect!,3.667190100066364,593.6316537000239,None,593.6316537000239,None,597.3177457000129,None,,,,,49,001,2023-05-12_15h37.16.500,colored_shuffled,2021.2.3,59.94459918433608,
C:\Users\subject\Desktop\SVRT Experiments\SVRT Experiment 3\svrt_images\generated_images\results_problem_14,,,,C:\Users\subject\Desktop\SVRT Experiments\SVRT Experiment 3\svrt_images\generated_images\results_problem_6\sample_0_0003.png,C:\Users\subject\Desktop\SVRT Experiments\SVRT Experiment 3\svrt_images\generated_images\results_problem_14\sample_1_0014.png,,,,,,,,,,,,,,,,,,,0,4,4,4,0,5,5,5,,,,,,,,,,,,,,f,14,A,A,13,1,Correct!,4.634112500003539,598.3685245000524,None,598.3685245000524,None,603.0219941000687,None,,,,,49,001,2023-05-12_15h37.16.500,colored_shuffled,2021.2.3,59.94459918433608,
C:\Users\subject\Desktop\SVRT Experiments\SVRT Experiment 3\svrt_images\generated_images\results_problem_14,,,,C:\Users\subject\Desktop\SVRT Experiments\SVRT Experiment 3\svrt_images\generated_images\results_problem_6\sample_0_0003.png,C:\Users\subject\Desktop\SVRT Experiments\SVRT Experiment 3\svrt_images\generated_images\results_problem_14\sample_0_0010.png,,,,,,,,,,,,,,,,,,,0,4,4,4,0,6,6,6,,,,,,,,,,,,,,j,14,B,B,13,1,Correct!,1.1538111000554636,604.0728030001046,None,604.0728030001046,None,605.2570228000404,None,,,,,49,001,2023-05-12_15h37.16.500,colored_shuffled,2021.2.3,59.94459918433608,
C:\Users\subject\Desktop\SVRT Experiments\SVRT Experiment 3\svrt_images\generated_images\results_problem_14,,,,C:\Users\subject\Desktop\SVRT Experiments\SVRT Experiment 3\svrt_images\generated_images\results_problem_6\sample_0_0003.png,C:\Users\subject\Desktop\SVRT Experiments\SVRT Experiment 3\svrt_images\generated_images\results_problem_14\sample_0_0001.png,,,,,,,,,,,,,,,,,,,0,4,4,4,0,7,7,7,,,,,,,,,,,,,,j,14,B,B,13,1,Correct!,0.7101210000691935,606.3244911000365,None,606.3244911000365,None,607.05836860009,None,,,,,49,001,2023-05-12_15h37.16.500,colored_shuffled,2021.2.3,59.94459918433608,
C:\Users\subject\Desktop\SVRT Experiments\SVRT Experiment 3\svrt_images\generated_images\results_problem_14,,,,C:\Users\subject\Desktop\SVRT Experiments\SVRT Experiment 3\svrt_images\generated_images\results_problem_6\sample_0_0003.png,C:\Users\subject\Desktop\SVRT Experiments\SVRT Experiment 3\svrt_images\generated_images\results_problem_14\sample_1_0003.png,,,,,,,,,,,,,,,,,,,0,4,4,4,0,8,8,8,,,,,,,,,,,,,,f,14,A,A,13,1,Correct!,0.5887410000432283,608.1258483000565,None,608.1258483000565,None,608.7429617000744,None,,,,,49,001,2023-05-12_15h37.16.500,colored_shuffled,2021.2.3,59.94459918433608,
C:\Users\subject\Desktop\SVRT Experiments\SVRT Experiment 3\svrt_images\generated_images\results_problem_14,,,,C:\Users\subject\Desktop\SVRT Experiments\SVRT Experiment 3\svrt_images\generated_images\results_problem_6\sample_0_0003.png,C:\Users\subject\Desktop\SVRT Experiments\SVRT Experiment 3\svrt_images\generated_images\results_problem_14\sample_1_0005.png,,,,,,,,,,,,,,,,,,,0,4,4,4,0,9,9,9,,,,,,,,,,,,,,j,14,B,A,13,0,Incorrect!,0.5994206999894232,609.8271182000171,None,609.8271182000171,None,610.4442223000806,None,,,,,49,001,2023-05-12_15h37.16.500,colored_shuffled,2021.2.3,59.94459918433608,
C:\Users\subject\Desktop\SVRT Experiments\SVRT Experiment 3\svrt_images\generated_images\results_problem_14,,,,C:\Users\subject\Desktop\SVRT Experiments\SVRT Experiment 3\svrt_images\generated_images\results_problem_6\sample_0_0003.png,C:\Users\subject\Desktop\SVRT Experiments\SVRT Experiment 3\svrt_images\generated_images\results_problem_14\sample_1_0001.png,,,,,,,,,,,,,,,,,,,0,4,4,4,0,10,10,10,,,,,,,,,,,,,,j,14,B,A,13,0,Incorrect!,0.7295092000858858,611.545071200002,None,611.545071200002,None,612.2956257000333,None,,,,,49,001,2023-05-12_15h37.16.500,colored_shuffled,2021.2.3,59.94459918433608,
C:\Users\subject\Desktop\SVRT Experiments\SVRT Experiment 3\svrt_images\generated_images\results_problem_14,,,,C:\Users\subject\Desktop\SVRT Experiments\SVRT Experiment 3\svrt_images\generated_images\results_problem_6\sample_0_0003.png,C:\Users\subject\Desktop\SVRT Experiments\SVRT Experiment 3\svrt_images\generated_images\results_problem_14\sample_0_0014.png,,,,,,,,,,,,,,,,,,,0,4,4,4,0,11,11,11,,,,,,,,,,,,,,j,14,B,B,13,1,Correct!,14.229925199993886,613.3964145000791,None,613.3964145000791,None,627.6571309000719,None,,,,,49,001,2023-05-12_15h37.16.500,colored_shuffled,2021.2.3,59.94459918433608,
C:\Users\subject\Desktop\SVRT Experiments\SVRT Experiment 3\svrt_images\generated_images\results_problem_14,,,,C:\Users\subject\Desktop\SVRT Experiments\SVRT Experiment 3\svrt_images\generated_images\results_problem_6\sample_0_0003.png,C:\Users\subject\Desktop\SVRT Experiments\SVRT Experiment 3\svrt_images\generated_images\results_problem_14\sample_1_0013.png,,,,,,,,,,,,,,,,,,,0,4,4,4,0,12,12,12,,,,,,,,,,,,,,f,14,A,A,13,1,Correct!,0.9558078999398276,628.7746389000677,None,628.7746389000677,None,629.7587105000857,None,,,,,49,001,2023-05-12_15h37.16.500,colored_shuffled,2021.2.3,59.94459918433608,
C:\Users\subject\Desktop\SVRT Experiments\SVRT Experiment 3\svrt_images\generated_images\results_problem_14,,,,C:\Users\subject\Desktop\SVRT Experiments\SVRT Experiment 3\svrt_images\generated_images\results_problem_6\sample_0_0003.png,C:\Users\subject\Desktop\SVRT Experiments\SVRT Experiment 3\svrt_images\generated_images\results_problem_14\sample_0_0007.png,,,,,,,,,,,,,,,,,,,0,4,4,4,0,13,13,13,,,,,,,,,,,,,,j,14,B,B,13,1,Correct!,0.8141193999908864,630.8762101000175,None,630.8762101000175,None,631.7101644000504,None,,,,,49,001,2023-05-12_15h37.16.500,colored_shuffled,2021.2.3,59.94459918433608,
C:\Users\subject\Desktop\SVRT Experiments\SVRT Experiment 3\svrt_images\generated_images\results_problem_14,,,,C:\Users\subject\Desktop\SVRT Experiments\SVRT Experiment 3\svrt_images\generated_images\results_problem_6\sample_0_0003.png,C:\Users\subject\Desktop\SVRT Experiments\SVRT Experiment 3\svrt_images\generated_images\results_problem_14\sample_0_0000.png,,,,,,,,,,,,,,,,,,,0,4,4,4,0,14,14,14,,,,,,,,,,,,,,j,14,B,B,13,1,Correct!,2.9020600999938324,632.8443488000194,None,632.8443488000194,None,635.7631968000205,None,,,,,49,001,2023-05-12_15h37.16.500,colored_shuffled,2021.2.3,59.94459918433608,
C:\Users\subject\Desktop\SVRT Experiments\SVRT Experiment 3\svrt_images\generated_images\results_problem_14,,,,C:\Users\subject\Desktop\SVRT Experiments\SVRT Experiment 3\svrt_images\generated_images\results_problem_6\sample_0_0003.png,C:\Users\subject\Desktop\SVRT Experiments\SVRT Experiment 3\svrt_images\generated_images\results_problem_14\sample_1_0011.png,,,,,,,,,,,,,,,,,,,0,4,4,4,0,15,15,15,,,,,,,,,,,,,,j,14,B,A,13,0,Incorrect!,0.5201999000273645,636.914064600016,None,636.914064600016,None,637.4644724000245,None,,,,,49,001,2023-05-12_15h37.16.500,colored_shuffled,2021.2.3,59.94459918433608,
C:\Users\subject\Desktop\SVRT Experiments\SVRT Experiment 3\svrt_images\generated_images\results_problem_14,,,,C:\Users\subject\Desktop\SVRT Experiments\SVRT Experiment 3\svrt_images\generated_images\results_problem_6\sample_0_0003.png,C:\Users\subject\Desktop\SVRT Experiments\SVRT Experiment 3\svrt_images\generated_images\results_problem_14\sample_0_0003.png,,,,,,,,,,,,,,,,,,,0,4,4,4,0,16,16,16,,,,,,,,,,,,,,j,14,B,B,13,1,Correct!,0.6749092999380082,638.6153302000603,None,638.6153302000603,None,639.3158580000745,None,,,,,49,001,2023-05-12_15h37.16.500,colored_shuffled,2021.2.3,59.94459918433608,
C:\Users\subject\Desktop\SVRT Experiments\SVRT Experiment 3\svrt_images\generated_images\results_problem_14,,,,C:\Users\subject\Desktop\SVRT Experiments\SVRT Experiment 3\svrt_images\generated_images\results_problem_6\sample_0_0003.png,C:\Users\subject\Desktop\SVRT Experiments\SVRT Experiment 3\svrt_images\generated_images\results_problem_14\sample_0_0011.png,,,,,,,,,,,,,,,,,,,0,4,4,4,0,17,17,17,,,,,,,,,,,,,,f,14,A,B,13,0,Incorrect!,1.4228362999856472,640.4833993000211,None,640.4833993000211,None,641.9344849000918,None,,,,,49,001,2023-05-12_15h37.16.500,colored_shuffled,2021.2.3,59.94459918433608,
C:\Users\subject\Desktop\SVRT Experiments\SVRT Experiment 3\svrt_images\generated_images\results_problem_14,,,,C:\Users\subject\Desktop\SVRT Experiments\SVRT Experiment 3\svrt_images\generated_images\results_problem_6\sample_0_0003.png,C:\Users\subject\Desktop\SVRT Experiments\SVRT Experiment 3\svrt_images\generated_images\results_problem_14\sample_1_0012.png,,,,,,,,,,,,,,,,,,,0,4,4,4,0,18,18,18,,,,,,,,,,,,,,f,14,A,A,13,1,Correct!,1.075469599920325,643.1187081000535,None,643.1187081000535,None,644.2362082001055,None,,,,,49,001,2023-05-12_15h37.16.500,colored_shuffled,2021.2.3,59.94459918433608,
C:\Users\subject\Desktop\SVRT Experiments\SVRT Experiment 3\svrt_images\generated_images\results_problem_14,,,,C:\Users\subject\Desktop\SVRT Experiments\SVRT Experiment 3\svrt_images\generated_images\results_problem_6\sample_0_0003.png,C:\Users\subject\Desktop\SVRT Experiments\SVRT Experiment 3\svrt_images\generated_images\results_problem_14\sample_1_0004.png,,,,,,,,,,,,,,,,,,,0,4,4,4,0,19,19,19,,,,,,,,,,,,,,f,14,A,A,13,1,Correct!,0.8217143000802025,645.4204359001014,None,645.4204359001014,None,646.271063900087,None,,,,,49,001,2023-05-12_15h37.16.500,colored_shuffled,2021.2.3,59.94459918433608,
C:\Users\subject\Desktop\SVRT Experiments\SVRT Experiment 3\svrt_images\generated_images\results_problem_14,,,,C:\Users\subject\Desktop\SVRT Experiments\SVRT Experiment 3\svrt_images\generated_images\results_problem_6\sample_0_0003.png,C:\Users\subject\Desktop\SVRT Experiments\SVRT Experiment 3\svrt_images\generated_images\results_problem_14\sample_1_0016.png,,,,,,,,,,,,,,,,,,,0,4,4,4,0,20,20,20,,,,,,,,,,,,,,f,14,A,A,13,1,Correct!,0.8822548999451101,647.4719714000821,None,647.4719714000821,None,648.3893180000596,None,,,,,49,001,2023-05-12_15h37.16.500,colored_shuffled,2021.2.3,59.94459918433608,
C:\Users\subject\Desktop\SVRT Experiments\SVRT Experiment 3\svrt_images\generated_images\results_problem_14,,,,C:\Users\subject\Desktop\SVRT Experiments\SVRT Experiment 3\svrt_images\generated_images\results_problem_6\sample_0_0003.png,C:\Users\subject\Desktop\SVRT Experiments\SVRT Experiment 3\svrt_images\generated_images\results_problem_14\sample_0_0016.png,,,,,,,,,,,,,,,,,,,0,4,4,4,0,21,21,21,,,,,,,,,,,,,,j,14,B,B,13,1,Correct!,1.059173500048928,649.6069003000157,None,649.6069003000157,None,650.6910421000794,None,,,,,49,001,2023-05-12_15h37.16.500,colored_shuffled,2021.2.3,59.94459918433608,
C:\Users\subject\Desktop\SVRT Experiments\SVRT Experiment 3\svrt_images\generated_images\results_problem_14,,,,C:\Users\subject\Desktop\SVRT Experiments\SVRT Experiment 3\svrt_images\generated_images\results_problem_6\sample_0_0003.png,C:\Users\subject\Desktop\SVRT Experiments\SVRT Experiment 3\svrt_images\generated_images\results_problem_14\sample_0_0015.png,,,,,,,,,,,,,,,,,,,0,4,4,4,0,22,22,22,,,,,,,,,,,,,,j,14,B,B,13,1,Correct!,1.6374346000375226,651.9086382000241,None,651.9086382000241,None,653.5932141999947,None,,,,,49,001,2023-05-12_15h37.16.500,colored_shuffled,2021.2.3,59.94459918433608,
C:\Users\subject\Desktop\SVRT Experiments\SVRT Experiment 3\svrt_images\generated_images\results_problem_14,,,,C:\Users\subject\Desktop\SVRT Experiments\SVRT Experiment 3\svrt_images\generated_images\results_problem_6\sample_0_0003.png,C:\Users\subject\Desktop\SVRT Experiments\SVRT Experiment 3\svrt_images\generated_images\results_problem_14\sample_1_0009.png,,,,,,,,,,,,,,,,,,,0,4,4,4,0,23,23,23,,,,,,,,,,,,,,f,14,A,A,13,1,Correct!,0.6225684999953955,654.8274744000519,None,654.8274744000519,None,655.4779594000429,None,,,,,49,001,2023-05-12_15h37.16.500,colored_shuffled,2021.2.3,59.94459918433608,
C:\Users\subject\Desktop\SVRT Experiments\SVRT Experiment 3\svrt_images\generated_images\results_problem_14,,,,C:\Users\subject\Desktop\SVRT Experiments\SVRT Experiment 3\svrt_images\generated_images\results_problem_6\sample_0_0003.png,C:\Users\subject\Desktop\SVRT Experiments\SVRT Experiment 3\svrt_images\generated_images\results_problem_14\sample_1_0008.png,,,,,,,,,,,,,,,,,,,0,4,4,4,0,24,24,24,,,,,,,,,,,,,,f,14,A,A,13,1,Correct!,0.5930699000600725,656.728920500027,None,656.728920500027,None,657.3626813000301,None,,,,,49,001,2023-05-12_15h37.16.500,colored_shuffled,2021.2.3,59.94459918433608,
C:\Users\subject\Desktop\SVRT Experiments\SVRT Experiment 3\svrt_images\generated_images\results_problem_14,,,,C:\Users\subject\Desktop\SVRT Experiments\SVRT Experiment 3\svrt_images\generated_images\results_problem_6\sample_0_0003.png,C:\Users\subject\Desktop\SVRT Experiments\SVRT Experiment 3\svrt_images\generated_images\results_problem_14\sample_1_0015.png,,,,,,,,,,,,,,,,,,,0,4,4,4,0,25,25,25,,,,,,,,,,,,,,,,,,,,,,,,,,,,658.3634550001007,658.3634550001007,space,0.8785446000983939,49,001,2023-05-12_15h37.16.500,colored_shuffled,2021.2.3,59.94459918433608,
C:\Users\subject\Desktop\SVRT Experiments\SVRT Experiment 3\svrt_images\generated_images\results_problem_12,,,,C:\Users\subject\Desktop\SVRT Experiments\SVRT Experiment 3\svrt_images\generated_images\results_problem_6\sample_0_0003.png,C:\Users\subject\Desktop\SVRT Experiments\SVRT Experiment 3\svrt_images\generated_images\results_problem_14\sample_1_0015.png,C:\Users\subject\Desktop\SVRT Experiments\SVRT Experiment 3\svrt_images\generated_images\results_problem_12\sample_1_0007.png,,,,,,,,,,,,,,,,,,0,5,5,5,0,0,0,0,,,,,,,,,,,,,,f,12,A,A,13,1,Correct!,1.625133200082928,659.2808087000158,None,659.2808087000158,None,660.9320231000893,None,,,,,49,001,2023-05-12_15h37.16.500,colored_shuffled,2021.2.3,59.94459918433608,
C:\Users\subject\Desktop\SVRT Experiments\SVRT Experiment 3\svrt_images\generated_images\results_problem_12,,,,C:\Users\subject\Desktop\SVRT Experiments\SVRT Experiment 3\svrt_images\generated_images\results_problem_6\sample_0_0003.png,C:\Users\subject\Desktop\SVRT Experiments\SVRT Experiment 3\svrt_images\generated_images\results_problem_14\sample_1_0015.png,C:\Users\subject\Desktop\SVRT Experiments\SVRT Experiment 3\svrt_images\generated_images\results_problem_12\sample_1_0008.png,,,,,,,,,,,,,,,,,,0,5,5,5,0,1,1,1,,,,,,,,,,,,,,j,12,B,A,13,0,Incorrect!,0.9411685999948531,661.9327926000115,None,661.9327926000115,None,662.9001800999977,None,,,,,49,001,2023-05-12_15h37.16.500,colored_shuffled,2021.2.3,59.94459918433608,
C:\Users\subject\Desktop\SVRT Experiments\SVRT Experiment 3\svrt_images\generated_images\results_problem_12,,,,C:\Users\subject\Desktop\SVRT Experiments\SVRT Experiment 3\svrt_images\generated_images\results_problem_6\sample_0_0003.png,C:\Users\subject\Desktop\SVRT Experiments\SVRT Experiment 3\svrt_images\generated_images\results_problem_14\sample_1_0015.png,C:\Users\subject\Desktop\SVRT Experiments\SVRT Experiment 3\svrt_images\generated_images\results_problem_12\sample_1_0015.png,,,,,,,,,,,,,,,,,,0,5,5,5,0,2,2,2,,,,,,,,,,,,,,f,12,A,A,13,1,Correct!,0.8123149999883026,663.917618400068,None,663.917618400068,None,664.751566400053,None,,,,,49,001,2023-05-12_15h37.16.500,colored_shuffled,2021.2.3,59.94459918433608,
C:\Users\subject\Desktop\SVRT Experiments\SVRT Experiment 3\svrt_images\generated_images\results_problem_12,,,,C:\Users\subject\Desktop\SVRT Experiments\SVRT Experiment 3\svrt_images\generated_images\results_problem_6\sample_0_0003.png,C:\Users\subject\Desktop\SVRT Experiments\SVRT Experiment 3\svrt_images\generated_images\results_problem_14\sample_1_0015.png,C:\Users\subject\Desktop\SVRT Experiments\SVRT Experiment 3\svrt_images\generated_images\results_problem_12\sample_1_0013.png,,,,,,,,,,,,,,,,,,0,5,5,5,0,3,3,3,,,,,,,,,,,,,,f,12,A,A,13,1,Correct!,5.407870700000785,665.785982600064,None,665.785982600064,None,671.2230850000633,None,,,,,49,001,2023-05-12_15h37.16.500,colored_shuffled,2021.2.3,59.94459918433608,
C:\Users\subject\Desktop\SVRT Experiments\SVRT Experiment 3\svrt_images\generated_images\results_problem_12,,,,C:\Users\subject\Desktop\SVRT Experiments\SVRT Experiment 3\svrt_images\generated_images\results_problem_6\sample_0_0003.png,C:\Users\subject\Desktop\SVRT Experiments\SVRT Experiment 3\svrt_images\generated_images\results_problem_14\sample_1_0015.png,C:\Users\subject\Desktop\SVRT Experiments\SVRT Experiment 3\svrt_images\generated_images\results_problem_12\sample_1_0001.png,,,,,,,,,,,,,,,,,,0,5,5,5,0,4,4,4,,,,,,,,,,,,,,j,12,B,A,13,0,Incorrect!,1.3526548999361694,672.2571955000749,None,672.2571955000749,None,673.6415603000205,None,,,,,49,001,2023-05-12_15h37.16.500,colored_shuffled,2021.2.3,59.94459918433608,
C:\Users\subject\Desktop\SVRT Experiments\SVRT Experiment 3\svrt_images\generated_images\results_problem_12,,,,C:\Users\subject\Desktop\SVRT Experiments\SVRT Experiment 3\svrt_images\generated_images\results_problem_6\sample_0_0003.png,C:\Users\subject\Desktop\SVRT Experiments\SVRT Experiment 3\svrt_images\generated_images\results_problem_14\sample_1_0015.png,C:\Users\subject\Desktop\SVRT Experiments\SVRT Experiment 3\svrt_images\generated_images\results_problem_12\sample_0_0016.png,,,,,,,,,,,,,,,,,,0,5,5,5,0,5,5,5,,,,,,,,,,,,,,j,12,B,B,13,1,Correct!,1.0534516000188887,674.6923516000388,None,674.6923516000388,None,675.7764917000895,None,,,,,49,001,2023-05-12_15h37.16.500,colored_shuffled,2021.2.3,59.94459918433608,
C:\Users\subject\Desktop\SVRT Experiments\SVRT Experiment 3\svrt_images\generated_images\results_problem_12,,,,C:\Users\subject\Desktop\SVRT Experiments\SVRT Experiment 3\svrt_images\generated_images\results_problem_6\sample_0_0003.png,C:\Users\subject\Desktop\SVRT Experiments\SVRT Experiment 3\svrt_images\generated_images\results_problem_14\sample_1_0015.png,C:\Users\subject\Desktop\SVRT Experiments\SVRT Experiment 3\svrt_images\generated_images\results_problem_12\sample_1_0016.png,,,,,,,,,,,,,,,,,,0,5,5,5,0,6,6,6,,,,,,,,,,,,,,f,12,A,A,13,1,Correct!,0.6944877000059932,676.827283999999,None,676.827283999999,None,677.5444780000253,None,,,,,49,001,2023-05-12_15h37.16.500,colored_shuffled,2021.2.3,59.94459918433608,
C:\Users\subject\Desktop\SVRT Experiments\SVRT Experiment 3\svrt_images\generated_images\results_problem_12,,,,C:\Users\subject\Desktop\SVRT Experiments\SVRT Experiment 3\svrt_images\generated_images\results_problem_6\sample_0_0003.png,C:\Users\subject\Desktop\SVRT Experiments\SVRT Experiment 3\svrt_images\generated_images\results_problem_14\sample_1_0015.png,C:\Users\subject\Desktop\SVRT Experiments\SVRT Experiment 3\svrt_images\generated_images\results_problem_12\sample_1_0003.png,,,,,,,,,,,,,,,,,,0,5,5,5,0,7,7,7,,,,,,,,,,,,,,f,12,A,A,13,1,Correct!,0.8137661999789998,678.6119529000716,None,678.6119529000716,None,679.4458784000017,None,,,,,49,001,2023-05-12_15h37.16.500,colored_shuffled,2021.2.3,59.94459918433608,
C:\Users\subject\Desktop\SVRT Experiments\SVRT Experiment 3\svrt_images\generated_images\results_problem_12,,,,C:\Users\subject\Desktop\SVRT Experiments\SVRT Experiment 3\svrt_images\generated_images\results_problem_6\sample_0_0003.png,C:\Users\subject\Desktop\SVRT Experiments\SVRT Experiment 3\svrt_images\generated_images\results_problem_14\sample_1_0015.png,C:\Users\subject\Desktop\SVRT Experiments\SVRT Experiment 3\svrt_images\generated_images\results_problem_12\sample_1_0004.png,,,,,,,,,,,,,,,,,,0,5,5,5,0,8,8,8,,,,,,,,,,,,,,f,12,A,A,13,1,Correct!,0.5603648999240249,680.5133733000839,None,680.5133733000839,None,681.0971398000838,None,,,,,49,001,2023-05-12_15h37.16.500,colored_shuffled,2021.2.3,59.94459918433608,
C:\Users\subject\Desktop\SVRT Experiments\SVRT Experiment 3\svrt_images\generated_images\results_problem_12,,,,C:\Users\subject\Desktop\SVRT Experiments\SVRT Experiment 3\svrt_images\generated_images\results_problem_6\sample_0_0003.png,C:\Users\subject\Desktop\SVRT Experiments\SVRT Experiment 3\svrt_images\generated_images\results_problem_14\sample_1_0015.png,C:\Users\subject\Desktop\SVRT Experiments\SVRT Experiment 3\svrt_images\generated_images\results_problem_12\sample_0_0012.png,,,,,,,,,,,,,,,,,,0,5,5,5,0,9,9,9,,,,,,,,,,,,,,j,12,B,B,13,1,Correct!,1.6524053999455646,682.181289600092,None,682.181289600092,None,683.865879900055,None,,,,,49,001,2023-05-12_15h37.16.500,colored_shuffled,2021.2.3,59.94459918433608,
C:\Users\subject\Desktop\SVRT Experiments\SVRT Experiment 3\svrt_images\generated_images\results_problem_12,,,,C:\Users\subject\Desktop\SVRT Experiments\SVRT Experiment 3\svrt_images\generated_images\results_problem_6\sample_0_0003.png,C:\Users\subject\Desktop\SVRT Experiments\SVRT Experiment 3\svrt_images\generated_images\results_problem_14\sample_1_0015.png,C:\Users\subject\Desktop\SVRT Experiments\SVRT Experiment 3\svrt_images\generated_images\results_problem_12\sample_1_0011.png,,,,,,,,,,,,,,,,,,0,5,5,5,0,10,10,10,,,,,,,,,,,,,,f,12,A,A,13,1,Correct!,0.7869713000254706,684.9667086000554,None,684.9667086000554,None,685.7839839000953,None,,,,,49,001,2023-05-12_15h37.16.500,colored_shuffled,2021.2.3,59.94459918433608,
C:\Users\subject\Desktop\SVRT Experiments\SVRT Experiment 3\svrt_images\generated_images\results_problem_12,,,,C:\Users\subject\Desktop\SVRT Experiments\SVRT Experiment 3\svrt_images\generated_images\results_problem_6\sample_0_0003.png,C:\Users\subject\Desktop\SVRT Experiments\SVRT Experiment 3\svrt_images\generated_images\results_problem_14\sample_1_0015.png,C:\Users\subject\Desktop\SVRT Experiments\SVRT Experiment 3\svrt_images\generated_images\results_problem_12\sample_0_0011.png,,,,,,,,,,,,,,,,,,0,5,5,5,0,11,11,11,,,,,,,,,,,,,,j,12,B,B,13,1,Correct!,2.3489270999561995,686.8848106000805,None,686.8848106000805,None,689.2532432000153,None,,,,,49,001,2023-05-12_15h37.16.500,colored_shuffled,2021.2.3,59.94459918433608,
C:\Users\subject\Desktop\SVRT Experiments\SVRT Experiment 3\svrt_images\generated_images\results_problem_12,,,,C:\Users\subject\Desktop\SVRT Experiments\SVRT Experiment 3\svrt_images\generated_images\results_problem_6\sample_0_0003.png,C:\Users\subject\Desktop\SVRT Experiments\SVRT Experiment 3\svrt_images\generated_images\results_problem_14\sample_1_0015.png,C:\Users\subject\Desktop\SVRT Experiments\SVRT Experiment 3\svrt_images\generated_images\results_problem_12\sample_1_0000.png,,,,,,,,,,,,,,,,,,0,5,5,5,0,12,12,12,,,,,,,,,,,,,,,,,,,,,,,,,,,,690.2539979000576,690.2539979000576,space,0.7636143999407068,49,001,2023-05-12_15h37.16.500,colored_shuffled,2021.2.3,59.94459918433608,
C:\Users\subject\Desktop\SVRT Experiments\SVRT Experiment 3\svrt_images\generated_images\results_problem_4,,,,C:\Users\subject\Desktop\SVRT Experiments\SVRT Experiment 3\svrt_images\generated_images\results_problem_6\sample_0_0003.png,C:\Users\subject\Desktop\SVRT Experiments\SVRT Experiment 3\svrt_images\generated_images\results_problem_14\sample_1_0015.png,C:\Users\subject\Desktop\SVRT Experiments\SVRT Experiment 3\svrt_images\generated_images\results_problem_12\sample_1_0000.png,C:\Users\subject\Desktop\SVRT Experiments\SVRT Experiment 3\svrt_images\generated_images\results_problem_4\sample_1_0005.png,,,,,,,,,,,,,,,,,0,6,6,6,0,0,0,0,,,,,,,,,,,,,,f,4,A,A,13,1,Correct!,1.7549984999932349,691.054597600014,None,691.054597600014,None,692.8392693001078,None,,,,,49,001,2023-05-12_15h37.16.500,colored_shuffled,2021.2.3,59.94459918433608,
C:\Users\subject\Desktop\SVRT Experiments\SVRT Experiment 3\svrt_images\generated_images\results_problem_4,,,,C:\Users\subject\Desktop\SVRT Experiments\SVRT Experiment 3\svrt_images\generated_images\results_problem_6\sample_0_0003.png,C:\Users\subject\Desktop\SVRT Experiments\SVRT Experiment 3\svrt_images\generated_images\results_problem_14\sample_1_0015.png,C:\Users\subject\Desktop\SVRT Experiments\SVRT Experiment 3\svrt_images\generated_images\results_problem_12\sample_1_0000.png,C:\Users\subject\Desktop\SVRT Experiments\SVRT Experiment 3\svrt_images\generated_images\results_problem_4\sample_1_0008.png,,,,,,,,,,,,,,,,,0,6,6,6,0,1,1,1,,,,,,,,,,,,,,f,4,A,A,13,1,Correct!,3.6175239000003785,693.84002220002,None,693.84002220002,None,697.4760721001076,None,,,,,49,001,2023-05-12_15h37.16.500,colored_shuffled,2021.2.3,59.94459918433608,
C:\Users\subject\Desktop\SVRT Experiments\SVRT Experiment 3\svrt_images\generated_images\results_problem_4,,,,C:\Users\subject\Desktop\SVRT Experiments\SVRT Experiment 3\svrt_images\generated_images\results_problem_6\sample_0_0003.png,C:\Users\subject\Desktop\SVRT Experiments\SVRT Experiment 3\svrt_images\generated_images\results_problem_14\sample_1_0015.png,C:\Users\subject\Desktop\SVRT Experiments\SVRT Experiment 3\svrt_images\generated_images\results_problem_12\sample_1_0000.png,C:\Users\subject\Desktop\SVRT Experiments\SVRT Experiment 3\svrt_images\generated_images\results_problem_4\sample_1_0013.png,,,,,,,,,,,,,,,,,0,6,6,6,0,2,2,2,,,,,,,,,,,,,,j,4,B,A,13,0,Incorrect!,7.187951699947007,698.4934896000195,None,698.4934896000195,None,705.6988942000316,None,,,,,49,001,2023-05-12_15h37.16.500,colored_shuffled,2021.2.3,59.94459918433608,
C:\Users\subject\Desktop\SVRT Experiments\SVRT Experiment 3\svrt_images\generated_images\results_problem_4,,,,C:\Users\subject\Desktop\SVRT Experiments\SVRT Experiment 3\svrt_images\generated_images\results_problem_6\sample_0_0003.png,C:\Users\subject\Desktop\SVRT Experiments\SVRT Experiment 3\svrt_images\generated_images\results_problem_14\sample_1_0015.png,C:\Users\subject\Desktop\SVRT Experiments\SVRT Experiment 3\svrt_images\generated_images\results_problem_12\sample_1_0000.png,C:\Users\subject\Desktop\SVRT Experiments\SVRT Experiment 3\svrt_images\generated_images\results_problem_4\sample_0_0013.png,,,,,,,,,,,,,,,,,0,6,6,6,0,3,3,3,,,,,,,,,,,,,,j,4,B,B,13,1,Correct!,6.81233590003103,706.733004400041,None,706.733004400041,None,713.5714200000511,None,,,,,49,001,2023-05-12_15h37.16.500,colored_shuffled,2021.2.3,59.94459918433608,
C:\Users\subject\Desktop\SVRT Experiments\SVRT Experiment 3\svrt_images\generated_images\results_problem_4,,,,C:\Users\subject\Desktop\SVRT Experiments\SVRT Experiment 3\svrt_images\generated_images\results_problem_6\sample_0_0003.png,C:\Users\subject\Desktop\SVRT Experiments\SVRT Experiment 3\svrt_images\generated_images\results_problem_14\sample_1_0015.png,C:\Users\subject\Desktop\SVRT Experiments\SVRT Experiment 3\svrt_images\generated_images\results_problem_12\sample_1_0000.png,C:\Users\subject\Desktop\SVRT Experiments\SVRT Experiment 3\svrt_images\generated_images\results_problem_4\sample_0_0012.png,,,,,,,,,,,,,,,,,0,6,6,6,0,4,4,4,,,,,,,,,,,,,,j,4,B,B,13,1,Correct!,0.9797070999629796,714.6055698000127,None,714.6055698000127,None,715.6063123000786,None,,,,,49,001,2023-05-12_15h37.16.500,colored_shuffled,2021.2.3,59.94459918433608,
C:\Users\subject\Desktop\SVRT Experiments\SVRT Experiment 3\svrt_images\generated_images\results_problem_4,,,,C:\Users\subject\Desktop\SVRT Experiments\SVRT Experiment 3\svrt_images\generated_images\results_problem_6\sample_0_0003.png,C:\Users\subject\Desktop\SVRT Experiments\SVRT Experiment 3\svrt_images\generated_images\results_problem_14\sample_1_0015.png,C:\Users\subject\Desktop\SVRT Experiments\SVRT Experiment 3\svrt_images\generated_images\results_problem_12\sample_1_0000.png,C:\Users\subject\Desktop\SVRT Experiments\SVRT Experiment 3\svrt_images\generated_images\results_problem_4\sample_0_0011.png,,,,,,,,,,,,,,,,,0,6,6,6,0,5,5,5,,,,,,,,,,,,,,j,4,B,B,13,1,Correct!,0.6241810999345034,716.6571193001,None,716.6571193001,None,717.3075840000529,None,,,,,49,001,2023-05-12_15h37.16.500,colored_shuffled,2021.2.3,59.94459918433608,
C:\Users\subject\Desktop\SVRT Experiments\SVRT Experiment 3\svrt_images\generated_images\results_problem_4,,,,C:\Users\subject\Desktop\SVRT Experiments\SVRT Experiment 3\svrt_images\generated_images\results_problem_6\sample_0_0003.png,C:\Users\subject\Desktop\SVRT Experiments\SVRT Experiment 3\svrt_images\generated_images\results_problem_14\sample_1_0015.png,C:\Users\subject\Desktop\SVRT Experiments\SVRT Experiment 3\svrt_images\generated_images\results_problem_12\sample_1_0000.png,C:\Users\subject\Desktop\SVRT Experiments\SVRT Experiment 3\svrt_images\generated_images\results_problem_4\sample_0_0006.png,,,,,,,,,,,,,,,,,0,6,6,6,0,6,6,6,,,,,,,,,,,,,,j,4,B,B,13,1,Correct!,0.7308934000320733,718.3583786000963,None,718.3583786000963,None,719.1089341000188,None,,,,,49,001,2023-05-12_15h37.16.500,colored_shuffled,2021.2.3,59.94459918433608,
C:\Users\subject\Desktop\SVRT Experiments\SVRT Experiment 3\svrt_images\generated_images\results_problem_4,,,,C:\Users\subject\Desktop\SVRT Experiments\SVRT Experiment 3\svrt_images\generated_images\results_problem_6\sample_0_0003.png,C:\Users\subject\Desktop\SVRT Experiments\SVRT Experiment 3\svrt_images\generated_images\results_problem_14\sample_1_0015.png,C:\Users\subject\Desktop\SVRT Experiments\SVRT Experiment 3\svrt_images\generated_images\results_problem_12\sample_1_0000.png,C:\Users\subject\Desktop\SVRT Experiments\SVRT Experiment 3\svrt_images\generated_images\results_problem_4\sample_1_0001.png,,,,,,,,,,,,,,,,,0,6,6,6,0,7,7,7,,,,,,,,,,,,,,f,4,A,A,13,1,Correct!,0.7608402000041679,720.1764066000469,None,720.1764066000469,None,720.9603219000855,None,,,,,49,001,2023-05-12_15h37.16.500,colored_shuffled,2021.2.3,59.94459918433608,
C:\Users\subject\Desktop\SVRT Experiments\SVRT Experiment 3\svrt_images\generated_images\results_problem_4,,,,C:\Users\subject\Desktop\SVRT Experiments\SVRT Experiment 3\svrt_images\generated_images\results_problem_6\sample_0_0003.png,C:\Users\subject\Desktop\SVRT Experiments\SVRT Experiment 3\svrt_images\generated_images\results_problem_14\sample_1_0015.png,C:\Users\subject\Desktop\SVRT Experiments\SVRT Experiment 3\svrt_images\generated_images\results_problem_12\sample_1_0000.png,C:\Users\subject\Desktop\SVRT Experiments\SVRT Experiment 3\svrt_images\generated_images\results_problem_4\sample_1_0012.png,,,,,,,,,,,,,,,,,0,6,6,6,0,8,8,8,,,,,,,,,,,,,,f,4,A,A,13,1,Correct!,0.6534224998904392,722.0277914000908,None,722.0277914000908,None,722.7116282000206,None,,,,,49,001,2023-05-12_15h37.16.500,colored_shuffled,2021.2.3,59.94459918433608,
C:\Users\subject\Desktop\SVRT Experiments\SVRT Experiment 3\svrt_images\generated_images\results_problem_4,,,,C:\Users\subject\Desktop\SVRT Experiments\SVRT Experiment 3\svrt_images\generated_images\results_problem_6\sample_0_0003.png,C:\Users\subject\Desktop\SVRT Experiments\SVRT Experiment 3\svrt_images\generated_images\results_problem_14\sample_1_0015.png,C:\Users\subject\Desktop\SVRT Experiments\SVRT Experiment 3\svrt_images\generated_images\results_problem_12\sample_1_0000.png,C:\Users\subject\Desktop\SVRT Experiments\SVRT Experiment 3\svrt_images\generated_images\results_problem_4\sample_0_0004.png,,,,,,,,,,,,,,,,,0,6,6,6,0,9,9,9,,,,,,,,,,,,,,j,4,B,B,13,1,Correct!,0.8134661000221968,723.7957828000654,None,723.7957828000654,None,724.6297329000663,None,,,,,49,001,2023-05-12_15h37.16.500,colored_shuffled,2021.2.3,59.94459918433608,
C:\Users\subject\Desktop\SVRT Experiments\SVRT Experiment 3\svrt_images\generated_images\results_problem_4,,,,C:\Users\subject\Desktop\SVRT Experiments\SVRT Experiment 3\svrt_images\generated_images\results_problem_6\sample_0_0003.png,C:\Users\subject\Desktop\SVRT Experiments\SVRT Experiment 3\svrt_images\generated_images\results_problem_14\sample_1_0015.png,C:\Users\subject\Desktop\SVRT Experiments\SVRT Experiment 3\svrt_images\generated_images\results_problem_12\sample_1_0000.png,C:\Users\subject\Desktop\SVRT Experiments\SVRT Experiment 3\svrt_images\generated_images\results_problem_4\sample_0_0005.png,,,,,,,,,,,,,,,,,0,6,6,6,0,10,10,10,,,,,,,,,,,,,,,,,,,,,,,,,,,,725.6304838000797,725.6304838000797,space,0.6587122000055388,49,001,2023-05-12_15h37.16.500,colored_shuffled,2021.2.3,59.94459918433608,
C:\Users\subject\Desktop\SVRT Experiments\SVRT Experiment 3\svrt_images\generated_images\results_problem_7,,,,C:\Users\subject\Desktop\SVRT Experiments\SVRT Experiment 3\svrt_images\generated_images\results_problem_6\sample_0_0003.png,C:\Users\subject\Desktop\SVRT Experiments\SVRT Experiment 3\svrt_images\generated_images\results_problem_14\sample_1_0015.png,C:\Users\subject\Desktop\SVRT Experiments\SVRT Experiment 3\svrt_images\generated_images\results_problem_12\sample_1_0000.png,C:\Users\subject\Desktop\SVRT Experiments\SVRT Experiment 3\svrt_images\generated_images\results_problem_4\sample_0_0005.png,C:\Users\subject\Desktop\SVRT Experiments\SVRT Experiment 3\svrt_images\generated_images\results_problem_7\sample_0_0000.png,,,,,,,,,,,,,,,,0,7,7,7,0,0,0,0,,,,,,,,,,,,,,f,7,A,B,13,0,Incorrect!,2.3748239999404177,726.3143323000986,None,726.3143323000986,None,728.7161287000636,None,,,,,49,001,2023-05-12_15h37.16.500,colored_shuffled,2021.2.3,59.94459918433608,
C:\Users\subject\Desktop\SVRT Experiments\SVRT Experiment 3\svrt_images\generated_images\results_problem_7,,,,C:\Users\subject\Desktop\SVRT Experiments\SVRT Experiment 3\svrt_images\generated_images\results_problem_6\sample_0_0003.png,C:\Users\subject\Desktop\SVRT Experiments\SVRT Experiment 3\svrt_images\generated_images\results_problem_14\sample_1_0015.png,C:\Users\subject\Desktop\SVRT Experiments\SVRT Experiment 3\svrt_images\generated_images\results_problem_12\sample_1_0000.png,C:\Users\subject\Desktop\SVRT Experiments\SVRT Experiment 3\svrt_images\generated_images\results_problem_4\sample_0_0005.png,C:\Users\subject\Desktop\SVRT Experiments\SVRT Experiment 3\svrt_images\generated_images\results_problem_7\sample_0_0011.png,,,,,,,,,,,,,,,,0,7,7,7,0,1,1,1,,,,,,,,,,,,,,j,7,B,B,13,1,Correct!,3.9162205000175163,729.7168749000411,None,729.7168749000411,None,733.6531561000738,None,,,,,49,001,2023-05-12_15h37.16.500,colored_shuffled,2021.2.3,59.94459918433608,
C:\Users\subject\Desktop\SVRT Experiments\SVRT Experiment 3\svrt_images\generated_images\results_problem_7,,,,C:\Users\subject\Desktop\SVRT Experiments\SVRT Experiment 3\svrt_images\generated_images\results_problem_6\sample_0_0003.png,C:\Users\subject\Desktop\SVRT Experiments\SVRT Experiment 3\svrt_images\generated_images\results_problem_14\sample_1_0015.png,C:\Users\subject\Desktop\SVRT Experiments\SVRT Experiment 3\svrt_images\generated_images\results_problem_12\sample_1_0000.png,C:\Users\subject\Desktop\SVRT Experiments\SVRT Experiment 3\svrt_images\generated_images\results_problem_4\sample_0_0005.png,C:\Users\subject\Desktop\SVRT Experiments\SVRT Experiment 3\svrt_images\generated_images\results_problem_7\sample_0_0007.png,,,,,,,,,,,,,,,,0,7,7,7,0,2,2,2,,,,,,,,,,,,,,f,7,A,B,13,0,Incorrect!,3.6425521000055596,734.6705926000141,None,734.6705926000141,None,738.3400022001006,None,,,,,49,001,2023-05-12_15h37.16.500,colored_shuffled,2021.2.3,59.94459918433608,
C:\Users\subject\Desktop\SVRT Experiments\SVRT Experiment 3\svrt_images\generated_images\results_problem_7,,,,C:\Users\subject\Desktop\SVRT Experiments\SVRT Experiment 3\svrt_images\generated_images\results_problem_6\sample_0_0003.png,C:\Users\subject\Desktop\SVRT Experiments\SVRT Experiment 3\svrt_images\generated_images\results_problem_14\sample_1_0015.png,C:\Users\subject\Desktop\SVRT Experiments\SVRT Experiment 3\svrt_images\generated_images\results_problem_12\sample_1_0000.png,C:\Users\subject\Desktop\SVRT Experiments\SVRT Experiment 3\svrt_images\generated_images\results_problem_4\sample_0_0005.png,C:\Users\subject\Desktop\SVRT Experiments\SVRT Experiment 3\svrt_images\generated_images\results_problem_7\sample_1_0002.png,,,,,,,,,,,,,,,,0,7,7,7,0,3,3,3,,,,,,,,,,,,,,j,7,B,A,13,0,Incorrect!,2.0268991000484675,739.3741124999942,None,739.3741124999942,None,741.4256596000632,None,,,,,49,001,2023-05-12_15h37.16.500,colored_shuffled,2021.2.3,59.94459918433608,
C:\Users\subject\Desktop\SVRT Experiments\SVRT Experiment 3\svrt_images\generated_images\results_problem_7,,,,C:\Users\subject\Desktop\SVRT Experiments\SVRT Experiment 3\svrt_images\generated_images\results_problem_6\sample_0_0003.png,C:\Users\subject\Desktop\SVRT Experiments\SVRT Experiment 3\svrt_images\generated_images\results_problem_14\sample_1_0015.png,C:\Users\subject\Desktop\SVRT Experiments\SVRT Experiment 3\svrt_images\generated_images\results_problem_12\sample_1_0000.png,C:\Users\subject\Desktop\SVRT Experiments\SVRT Experiment 3\svrt_images\generated_images\results_problem_4\sample_0_0005.png,C:\Users\subject\Desktop\SVRT Experiments\SVRT Experiment 3\svrt_images\generated_images\results_problem_7\sample_1_0014.png,,,,,,,,,,,,,,,,0,7,7,7,0,4,4,4,,,,,,,,,,,,,,f,7,A,A,13,1,Correct!,2.2372070000274107,742.459750500042,None,742.459750500042,None,744.7281141000567,None,,,,,49,001,2023-05-12_15h37.16.500,colored_shuffled,2021.2.3,59.94459918433608,
C:\Users\subject\Desktop\SVRT Experiments\SVRT Experiment 3\svrt_images\generated_images\results_problem_7,,,,C:\Users\subject\Desktop\SVRT Experiments\SVRT Experiment 3\svrt_images\generated_images\results_problem_6\sample_0_0003.png,C:\Users\subject\Desktop\SVRT Experiments\SVRT Experiment 3\svrt_images\generated_images\results_problem_14\sample_1_0015.png,C:\Users\subject\Desktop\SVRT Experiments\SVRT Experiment 3\svrt_images\generated_images\results_problem_12\sample_1_0000.png,C:\Users\subject\Desktop\SVRT Experiments\SVRT Experiment 3\svrt_images\generated_images\results_problem_4\sample_0_0005.png,C:\Users\subject\Desktop\SVRT Experiments\SVRT Experiment 3\svrt_images\generated_images\results_problem_7\sample_1_0004.png,,,,,,,,,,,,,,,,0,7,7,7,0,5,5,5,,,,,,,,,,,,,,f,7,A,A,13,1,Correct!,3.726007000077516,745.7789089001017,None,745.7789089001017,None,749.5317106000148,None,,,,,49,001,2023-05-12_15h37.16.500,colored_shuffled,2021.2.3,59.94459918433608,
C:\Users\subject\Desktop\SVRT Experiments\SVRT Experiment 3\svrt_images\generated_images\results_problem_7,,,,C:\Users\subject\Desktop\SVRT Experiments\SVRT Experiment 3\svrt_images\generated_images\results_problem_6\sample_0_0003.png,C:\Users\subject\Desktop\SVRT Experiments\SVRT Experiment 3\svrt_images\generated_images\results_problem_14\sample_1_0015.png,C:\Users\subject\Desktop\SVRT Experiments\SVRT Experiment 3\svrt_images\generated_images\results_problem_12\sample_1_0000.png,C:\Users\subject\Desktop\SVRT Experiments\SVRT Experiment 3\svrt_images\generated_images\results_problem_4\sample_0_0005.png,C:\Users\subject\Desktop\SVRT Experiments\SVRT Experiment 3\svrt_images\generated_images\results_problem_7\sample_0_0014.png,,,,,,,,,,,,,,,,0,7,7,7,0,6,6,6,,,,,,,,,,,,,,f,7,A,B,13,0,Incorrect!,5.650312999961898,750.5825067000696,None,750.5825067000696,None,756.2534128000261,None,,,,,49,001,2023-05-12_15h37.16.500,colored_shuffled,2021.2.3,59.94459918433608,
C:\Users\subject\Desktop\SVRT Experiments\SVRT Experiment 3\svrt_images\generated_images\results_problem_7,,,,C:\Users\subject\Desktop\SVRT Experiments\SVRT Experiment 3\svrt_images\generated_images\results_problem_6\sample_0_0003.png,C:\Users\subject\Desktop\SVRT Experiments\SVRT Experiment 3\svrt_images\generated_images\results_problem_14\sample_1_0015.png,C:\Users\subject\Desktop\SVRT Experiments\SVRT Experiment 3\svrt_images\generated_images\results_problem_12\sample_1_0000.png,C:\Users\subject\Desktop\SVRT Experiments\SVRT Experiment 3\svrt_images\generated_images\results_problem_4\sample_0_0005.png,C:\Users\subject\Desktop\SVRT Experiments\SVRT Experiment 3\svrt_images\generated_images\results_problem_7\sample_0_0009.png,,,,,,,,,,,,,,,,0,7,7,7,0,7,7,7,,,,,,,,,,,,,,f,7,A,B,13,0,Incorrect!,11.623786099953577,757.3208857000573,None,757.3208857000573,None,768.9629252000013,None,,,,,49,001,2023-05-12_15h37.16.500,colored_shuffled,2021.2.3,59.94459918433608,
C:\Users\subject\Desktop\SVRT Experiments\SVRT Experiment 3\svrt_images\generated_images\results_problem_7,,,,C:\Users\subject\Desktop\SVRT Experiments\SVRT Experiment 3\svrt_images\generated_images\results_problem_6\sample_0_0003.png,C:\Users\subject\Desktop\SVRT Experiments\SVRT Experiment 3\svrt_images\generated_images\results_problem_14\sample_1_0015.png,C:\Users\subject\Desktop\SVRT Experiments\SVRT Experiment 3\svrt_images\generated_images\results_problem_12\sample_1_0000.png,C:\Users\subject\Desktop\SVRT Experiments\SVRT Experiment 3\svrt_images\generated_images\results_problem_4\sample_0_0005.png,C:\Users\subject\Desktop\SVRT Experiments\SVRT Experiment 3\svrt_images\generated_images\results_problem_7\sample_1_0013.png,,,,,,,,,,,,,,,,0,7,7,7,0,8,8,8,,,,,,,,,,,,,,j,7,B,A,13,0,Incorrect!,0.9935585999628529,770.0470786000369,None,770.0470786000369,None,771.0644984000828,None,,,,,49,001,2023-05-12_15h37.16.500,colored_shuffled,2021.2.3,59.94459918433608,
