folder,results_problem_21,results_problem_12,results_problem_3,results_problem_22,results_problem_18,results_problem_4,results_problem_11,results_problem_14,results_problem_10,results_problem_16,results_problem_23,results_problem_9,results_problem_17,results_problem_2,results_problem_13,results_problem_20,results_problem_6,results_problem_5,results_problem_19,results_problem_1,results_problem_8,results_problem_7,results_problem_15,categories.thisRepN,categories.thisTrialN,categories.thisN,categories.thisIndex,trials.thisRepN,trials.thisTrialN,trials.thisN,trials.thisIndex,consent_text.started,consent_kb.started,consent_kb.keys,consent_kb.rt,Gender.keys,Gender.rt,Age,instructions_text.started,instructions_text.stopped,instructions_kb.keys,instructions_kb.rt,instructions_kb.started,instructions_kb.stopped,trial_kb.keys,current_problem_num,category_resp,answer,seed,accuracy,feedback,trial_kb.rt,trial_kb.started,trial_kb.stopped,trial_image.started,trial_image.stopped,feedback_text.started,feedback_text.stopped,new_problem_kb.started,new_problem_text.started,new_problem_kb.keys,new_problem_kb.rt,Participant #,session,date,expName,psychopyVersion,frameRate,
,,,,,,,,,,,,,,,,,,,,,,,,,,,,,,,,11.457144499996502,11.457144499996502,y,468.060828099995,,,,,,,,,,,,,,,,,,,,,,,,,,,,4,001,2023-04-26_12h54.52.623,uncolored_sorted,2021.2.3,60.05371203918034,
,,,,,,,,,,,,,,,,,,,,,,,,,,,,,,,,,,,,m,5.363152400001127,,,,,,,,,,,,,,,,,,,,,,,,,,4,001,2023-04-26_12h54.52.623,uncolored_sorted,2021.2.3,60.05371203918034,
,,,,,,,,,,,,,,,,,,,,,,,,,,,,,,,,,,,,,,20,490.096160299996,None,space,27.533757699995476,490.096160299996,None,,,,,,,,,,,,,,,,,,,4,001,2023-04-26_12h54.52.623,uncolored_sorted,2021.2.3,60.05371203918034,
C:\Users\subject\Desktop\SVRT Experiments\SVRT Experiment 3\svrt_images\generated_images\results_problem_21,C:\Users\subject\Desktop\SVRT Experiments\SVRT Experiment 3\svrt_images\generated_images\results_problem_21\sample_1_0009.png,,,,,,,,,,,,,,,,,,,,,,,0,0,0,0,0,0,0,0,,,,,,,,,,,,,,f,21,A,A,1,1,Correct!,6.185927600003197,517.8439784000002,None,517.8439784000002,None,524.0773680999991,None,,,,,4,001,2023-04-26_12h54.52.623,uncolored_sorted,2021.2.3,60.05371203918034,
C:\Users\subject\Desktop\SVRT Experiments\SVRT Experiment 3\svrt_images\generated_images\results_problem_21,C:\Users\subject\Desktop\SVRT Experiments\SVRT Experiment 3\svrt_images\generated_images\results_problem_21\sample_0_0004.png,,,,,,,,,,,,,,,,,,,,,,,0,0,0,0,0,1,1,1,,,,,,,,,,,,,,j,21,B,B,1,1,Correct!,1.9578381000028457,525.1439717999965,None,525.1439717999965,None,527.127087199995,None,,,,,4,001,2023-04-26_12h54.52.623,uncolored_sorted,2021.2.3,60.05371203918034,
C:\Users\subject\Desktop\SVRT Experiments\SVRT Experiment 3\svrt_images\generated_images\results_problem_21,C:\Users\subject\Desktop\SVRT Experiments\SVRT Experiment 3\svrt_images\generated_images\results_problem_21\sample_0_0015.png,,,,,,,,,,,,,,,,,,,,,,,0,0,0,0,0,2,2,2,,,,,,,,,,,,,,j,21,B,B,1,1,Correct!,3.54821400000219,528.1937237999955,None,528.1937237999955,None,531.7601653999955,None,,,,,4,001,2023-04-26_12h54.52.623,uncolored_sorted,2021.2.3,60.05371203918034,
C:\Users\subject\Desktop\SVRT Experiments\SVRT Experiment 3\svrt_images\generated_images\results_problem_21,C:\Users\subject\Desktop\SVRT Experiments\SVRT Experiment 3\svrt_images\generated_images\results_problem_21\sample_1_0011.png,,,,,,,,,,,,,,,,,,,,,,,0,0,0,0,0,3,3,3,,,,,,,,,,,,,,j,21,B,A,1,0,Incorrect!,1.8429824999984703,532.8268772999945,None,532.8268772999945,None,534.6930034999968,None,,,,,4,001,2023-04-26_12h54.52.623,uncolored_sorted,2021.2.3,60.05371203918034,
C:\Users\subject\Desktop\SVRT Experiments\SVRT Experiment 3\svrt_images\generated_images\results_problem_21,C:\Users\subject\Desktop\SVRT Experiments\SVRT Experiment 3\svrt_images\generated_images\results_problem_21\sample_1_0012.png,,,,,,,,,,,,,,,,,,,,,,,0,0,0,0,0,4,4,4,,,,,,,,,,,,,,f,21,A,A,1,1,Correct!,3.086325600001146,535.7595098999955,None,535.7595098999955,None,538.8759409999984,None,,,,,4,001,2023-04-26_12h54.52.623,uncolored_sorted,2021.2.3,60.05371203918034,
C:\Users\subject\Desktop\SVRT Experiments\SVRT Experiment 3\svrt_images\generated_images\results_problem_21,C:\Users\subject\Desktop\SVRT Experiments\SVRT Experiment 3\svrt_images\generated_images\results_problem_21\sample_1_0014.png,,,,,,,,,,,,,,,,,,,,,,,0,0,0,0,0,5,5,5,,,,,,,,,,,,,,j,21,B,A,1,0,Incorrect!,3.334672100005264,539.9592365999997,None,539.9592365999997,None,543.3256240999981,None,,,,,4,001,2023-04-26_12h54.52.623,uncolored_sorted,2021.2.3,60.05371203918034,
C:\Users\subject\Desktop\SVRT Experiments\SVRT Experiment 3\svrt_images\generated_images\results_problem_21,C:\Users\subject\Desktop\SVRT Experiments\SVRT Experiment 3\svrt_images\generated_images\results_problem_21\sample_1_0001.png,,,,,,,,,,,,,,,,,,,,,,,0,0,0,0,0,6,6,6,,,,,,,,,,,,,,f,21,A,A,1,1,Correct!,1.8770304999998189,544.4088886999962,None,544.4088886999962,None,546.3087266000002,None,,,,,4,001,2023-04-26_12h54.52.623,uncolored_sorted,2021.2.3,60.05371203918034,
C:\Users\subject\Desktop\SVRT Experiments\SVRT Experiment 3\svrt_images\generated_images\results_problem_21,C:\Users\subject\Desktop\SVRT Experiments\SVRT Experiment 3\svrt_images\generated_images\results_problem_21\sample_1_0002.png,,,,,,,,,,,,,,,,,,,,,,,0,0,0,0,0,7,7,7,,,,,,,,,,,,,,j,21,B,A,1,0,Incorrect!,1.182767000005697,547.3753168999974,None,547.3753168999974,None,548.5752020999935,None,,,,,4,001,2023-04-26_12h54.52.623,uncolored_sorted,2021.2.3,60.05371203918034,
C:\Users\subject\Desktop\SVRT Experiments\SVRT Experiment 3\svrt_images\generated_images\results_problem_21,C:\Users\subject\Desktop\SVRT Experiments\SVRT Experiment 3\svrt_images\generated_images\results_problem_21\sample_0_0016.png,,,,,,,,,,,,,,,,,,,,,,,0,0,0,0,0,8,8,8,,,,,,,,,,,,,,j,21,B,B,1,1,Correct!,1.3636690999992425,549.658483399995,None,549.658483399995,None,551.0418298999939,None,,,,,4,001,2023-04-26_12h54.52.623,uncolored_sorted,2021.2.3,60.05371203918034,
C:\Users\subject\Desktop\SVRT Experiments\SVRT Experiment 3\svrt_images\generated_images\results_problem_21,C:\Users\subject\Desktop\SVRT Experiments\SVRT Experiment 3\svrt_images\generated_images\results_problem_21\sample_0_0013.png,,,,,,,,,,,,,,,,,,,,,,,0,0,0,0,0,9,9,9,,,,,,,,,,,,,,f,21,A,B,1,0,Incorrect!,4.000290899995889,552.1417826999968,None,552.1417826999968,None,556.1748445999983,None,,,,,4,001,2023-04-26_12h54.52.623,uncolored_sorted,2021.2.3,60.05371203918034,
C:\Users\subject\Desktop\SVRT Experiments\SVRT Experiment 3\svrt_images\generated_images\results_problem_21,C:\Users\subject\Desktop\SVRT Experiments\SVRT Experiment 3\svrt_images\generated_images\results_problem_21\sample_1_0015.png,,,,,,,,,,,,,,,,,,,,,,,0,0,0,0,0,10,10,10,,,,,,,,,,,,,,f,21,A,A,1,1,Correct!,1.4601160000020172,557.2579291000002,None,557.2579291000002,None,558.7411687999993,None,,,,,4,001,2023-04-26_12h54.52.623,uncolored_sorted,2021.2.3,60.05371203918034,
C:\Users\subject\Desktop\SVRT Experiments\SVRT Experiment 3\svrt_images\generated_images\results_problem_21,C:\Users\subject\Desktop\SVRT Experiments\SVRT Experiment 3\svrt_images\generated_images\results_problem_21\sample_1_0007.png,,,,,,,,,,,,,,,,,,,,,,,0,0,0,0,0,11,11,11,,,,,,,,,,,,,,j,21,B,A,1,0,Incorrect!,1.1974600999965332,559.8244344999985,None,559.8244344999985,None,561.0412118999957,None,,,,,4,001,2023-04-26_12h54.52.623,uncolored_sorted,2021.2.3,60.05371203918034,
C:\Users\subject\Desktop\SVRT Experiments\SVRT Experiment 3\svrt_images\generated_images\results_problem_21,C:\Users\subject\Desktop\SVRT Experiments\SVRT Experiment 3\svrt_images\generated_images\results_problem_21\sample_1_0010.png,,,,,,,,,,,,,,,,,,,,,,,0,0,0,0,0,12,12,12,,,,,,,,,,,,,,j,21,B,A,1,0,Incorrect!,0.8967788999943878,562.141214299998,None,562.141214299998,None,563.0577419999972,None,,,,,4,001,2023-04-26_12h54.52.623,uncolored_sorted,2021.2.3,60.05371203918034,
C:\Users\subject\Desktop\SVRT Experiments\SVRT Experiment 3\svrt_images\generated_images\results_problem_21,C:\Users\subject\Desktop\SVRT Experiments\SVRT Experiment 3\svrt_images\generated_images\results_problem_21\sample_0_0011.png,,,,,,,,,,,,,,,,,,,,,,,0,0,0,0,0,13,13,13,,,,,,,,,,,,,,j,21,B,B,1,1,Correct!,0.8643595999965328,564.1576833999934,None,564.1576833999934,None,565.0409360999984,None,,,,,4,001,2023-04-26_12h54.52.623,uncolored_sorted,2021.2.3,60.05371203918034,
C:\Users\subject\Desktop\SVRT Experiments\SVRT Experiment 3\svrt_images\generated_images\results_problem_21,C:\Users\subject\Desktop\SVRT Experiments\SVRT Experiment 3\svrt_images\generated_images\results_problem_21\sample_0_0006.png,,,,,,,,,,,,,,,,,,,,,,,0,0,0,0,0,14,14,14,,,,,,,,,,,,,,f,21,A,B,1,0,Incorrect!,0.8644297999999253,566.1575813999953,None,566.1575813999953,None,567.0408181999956,None,,,,,4,001,2023-04-26_12h54.52.623,uncolored_sorted,2021.2.3,60.05371203918034,
C:\Users\subject\Desktop\SVRT Experiments\SVRT Experiment 3\svrt_images\generated_images\results_problem_21,C:\Users\subject\Desktop\SVRT Experiments\SVRT Experiment 3\svrt_images\generated_images\results_problem_21\sample_0_0002.png,,,,,,,,,,,,,,,,,,,,,,,0,0,0,0,0,15,15,15,,,,,,,,,,,,,,j,21,B,B,1,1,Correct!,1.072599099999934,568.1574148,None,568.1574148,None,569.2740094999972,None,,,,,4,001,2023-04-26_12h54.52.623,uncolored_sorted,2021.2.3,60.05371203918034,
C:\Users\subject\Desktop\SVRT Experiments\SVRT Experiment 3\svrt_images\generated_images\results_problem_21,C:\Users\subject\Desktop\SVRT Experiments\SVRT Experiment 3\svrt_images\generated_images\results_problem_21\sample_0_0003.png,,,,,,,,,,,,,,,,,,,,,,,0,0,0,0,0,16,16,16,,,,,,,,,,,,,,f,21,A,B,1,0,Incorrect!,17.57481619999453,570.4072777999972,None,570.4072777999972,None,588.0228253999958,None,,,,,4,001,2023-04-26_12h54.52.623,uncolored_sorted,2021.2.3,60.05371203918034,
C:\Users\subject\Desktop\SVRT Experiments\SVRT Experiment 3\svrt_images\generated_images\results_problem_21,C:\Users\subject\Desktop\SVRT Experiments\SVRT Experiment 3\svrt_images\generated_images\results_problem_21\sample_1_0013.png,,,,,,,,,,,,,,,,,,,,,,,0,0,0,0,0,17,17,17,,,,,,,,,,,,,,j,21,B,A,1,0,Incorrect!,1.3699501999944914,589.1560950999992,None,589.1560950999992,None,590.5726788999964,None,,,,,4,001,2023-04-26_12h54.52.623,uncolored_sorted,2021.2.3,60.05371203918034,
C:\Users\subject\Desktop\SVRT Experiments\SVRT Experiment 3\svrt_images\generated_images\results_problem_21,C:\Users\subject\Desktop\SVRT Experiments\SVRT Experiment 3\svrt_images\generated_images\results_problem_21\sample_0_0001.png,,,,,,,,,,,,,,,,,,,,,,,0,0,0,0,0,18,18,18,,,,,,,,,,,,,,j,21,B,B,1,1,Correct!,1.2994132000021636,591.7226035999993,None,591.7226035999993,None,593.0391985999959,None,,,,,4,001,2023-04-26_12h54.52.623,uncolored_sorted,2021.2.3,60.05371203918034,
C:\Users\subject\Desktop\SVRT Experiments\SVRT Experiment 3\svrt_images\generated_images\results_problem_21,C:\Users\subject\Desktop\SVRT Experiments\SVRT Experiment 3\svrt_images\generated_images\results_problem_21\sample_0_0008.png,,,,,,,,,,,,,,,,,,,,,,,0,0,0,0,0,19,19,19,,,,,,,,,,,,,,f,21,A,B,1,0,Incorrect!,0.7682924999971874,594.2057690000001,None,594.2057690000001,None,595.0223910999994,None,,,,,4,001,2023-04-26_12h54.52.623,uncolored_sorted,2021.2.3,60.05371203918034,
C:\Users\subject\Desktop\SVRT Experiments\SVRT Experiment 3\svrt_images\generated_images\results_problem_21,C:\Users\subject\Desktop\SVRT Experiments\SVRT Experiment 3\svrt_images\generated_images\results_problem_21\sample_1_0003.png,,,,,,,,,,,,,,,,,,,,,,,0,0,0,0,0,20,20,20,,,,,,,,,,,,,,f,21,A,A,1,1,Correct!,1.4571207999979379,596.1889812999943,None,596.1889812999943,None,597.6722377999977,None,,,,,4,001,2023-04-26_12h54.52.623,uncolored_sorted,2021.2.3,60.05371203918034,
C:\Users\subject\Desktop\SVRT Experiments\SVRT Experiment 3\svrt_images\generated_images\results_problem_21,C:\Users\subject\Desktop\SVRT Experiments\SVRT Experiment 3\svrt_images\generated_images\results_problem_21\sample_1_0008.png,,,,,,,,,,,,,,,,,,,,,,,0,0,0,0,0,21,21,21,,,,,,,,,,,,,,j,21,B,A,1,0,Incorrect!,4.743096199999854,598.8388317999998,None,598.8388317999998,None,603.6218469999949,None,,,,,4,001,2023-04-26_12h54.52.623,uncolored_sorted,2021.2.3,60.05371203918034,
C:\Users\subject\Desktop\SVRT Experiments\SVRT Experiment 3\svrt_images\generated_images\results_problem_21,C:\Users\subject\Desktop\SVRT Experiments\SVRT Experiment 3\svrt_images\generated_images\results_problem_21\sample_0_0007.png,,,,,,,,,,,,,,,,,,,,,,,0,0,0,0,0,22,22,22,,,,,,,,,,,,,,j,21,B,B,1,1,Correct!,1.4483608999944408,604.821772999996,None,604.821772999996,None,606.2883711999966,None,,,,,4,001,2023-04-26_12h54.52.623,uncolored_sorted,2021.2.3,60.05371203918034,
C:\Users\subject\Desktop\SVRT Experiments\SVRT Experiment 3\svrt_images\generated_images\results_problem_21,C:\Users\subject\Desktop\SVRT Experiments\SVRT Experiment 3\svrt_images\generated_images\results_problem_21\sample_0_0012.png,,,,,,,,,,,,,,,,,,,,,,,0,0,0,0,0,23,23,23,,,,,,,,,,,,,,f,21,A,B,1,0,Incorrect!,5.229724999997416,607.4883008999968,None,607.4883008999968,None,612.7546738999954,None,,,,,4,001,2023-04-26_12h54.52.623,uncolored_sorted,2021.2.3,60.05371203918034,
C:\Users\subject\Desktop\SVRT Experiments\SVRT Experiment 3\svrt_images\generated_images\results_problem_21,C:\Users\subject\Desktop\SVRT Experiments\SVRT Experiment 3\svrt_images\generated_images\results_problem_21\sample_1_0000.png,,,,,,,,,,,,,,,,,,,,,,,0,0,0,0,0,24,24,24,,,,,,,,,,,,,,f,21,A,A,1,1,Correct!,0.8588011999963783,613.9712625999964,None,613.9712625999964,None,614.8878699999987,None,,,,,4,001,2023-04-26_12h54.52.623,uncolored_sorted,2021.2.3,60.05371203918034,
C:\Users\subject\Desktop\SVRT Experiments\SVRT Experiment 3\svrt_images\generated_images\results_problem_21,C:\Users\subject\Desktop\SVRT Experiments\SVRT Experiment 3\svrt_images\generated_images\results_problem_21\sample_0_0000.png,,,,,,,,,,,,,,,,,,,,,,,0,0,0,0,0,25,25,25,,,,,,,,,,,,,,j,21,B,B,1,1,Correct!,0.8702960000009625,616.0877798999936,None,616.0877798999936,None,617.0043494999991,None,,,,,4,001,2023-04-26_12h54.52.623,uncolored_sorted,2021.2.3,60.05371203918034,
C:\Users\subject\Desktop\SVRT Experiments\SVRT Experiment 3\svrt_images\generated_images\results_problem_21,C:\Users\subject\Desktop\SVRT Experiments\SVRT Experiment 3\svrt_images\generated_images\results_problem_21\sample_1_0016.png,,,,,,,,,,,,,,,,,,,,,,,0,0,0,0,0,26,26,26,,,,,,,,,,,,,,j,21,B,A,1,0,Incorrect!,5.280541000000085,618.2376112999991,None,618.2376112999991,None,623.5539839999983,None,,,,,4,001,2023-04-26_12h54.52.623,uncolored_sorted,2021.2.3,60.05371203918034,
C:\Users\subject\Desktop\SVRT Experiments\SVRT Experiment 3\svrt_images\generated_images\results_problem_21,C:\Users\subject\Desktop\SVRT Experiments\SVRT Experiment 3\svrt_images\generated_images\results_problem_21\sample_0_0005.png,,,,,,,,,,,,,,,,,,,,,,,0,0,0,0,0,27,27,27,,,,,,,,,,,,,,j,21,B,B,1,1,Correct!,3.5147628000049735,624.7872097999934,None,624.7872097999934,None,628.3536528999975,None,,,,,4,001,2023-04-26_12h54.52.623,uncolored_sorted,2021.2.3,60.05371203918034,
C:\Users\subject\Desktop\SVRT Experiments\SVRT Experiment 3\svrt_images\generated_images\results_problem_21,C:\Users\subject\Desktop\SVRT Experiments\SVRT Experiment 3\svrt_images\generated_images\results_problem_21\sample_0_0009.png,,,,,,,,,,,,,,,,,,,,,,,0,0,0,0,0,28,28,28,,,,,,,,,,,,,,f,21,A,B,1,0,Incorrect!,0.8417454000009457,629.6202230999988,None,629.6202230999988,None,630.5035128999953,None,,,,,4,001,2023-04-26_12h54.52.623,uncolored_sorted,2021.2.3,60.05371203918034,
C:\Users\subject\Desktop\SVRT Experiments\SVRT Experiment 3\svrt_images\generated_images\results_problem_21,C:\Users\subject\Desktop\SVRT Experiments\SVRT Experiment 3\svrt_images\generated_images\results_problem_21\sample_1_0006.png,,,,,,,,,,,,,,,,,,,,,,,0,0,0,0,0,29,29,29,,,,,,,,,,,,,,f,21,A,A,1,1,Correct!,1.1085908000022755,631.7534391999943,None,631.7534391999943,None,632.9033573999986,None,,,,,4,001,2023-04-26_12h54.52.623,uncolored_sorted,2021.2.3,60.05371203918034,
C:\Users\subject\Desktop\SVRT Experiments\SVRT Experiment 3\svrt_images\generated_images\results_problem_21,C:\Users\subject\Desktop\SVRT Experiments\SVRT Experiment 3\svrt_images\generated_images\results_problem_21\sample_0_0010.png,,,,,,,,,,,,,,,,,,,,,,,0,0,0,0,0,30,30,30,,,,,,,,,,,,,,f,21,A,B,1,0,Incorrect!,2.596122599999944,634.1699582000001,None,634.1699582000001,None,636.7864615999933,None,,,,,4,001,2023-04-26_12h54.52.623,uncolored_sorted,2021.2.3,60.05371203918034,
C:\Users\subject\Desktop\SVRT Experiments\SVRT Experiment 3\svrt_images\generated_images\results_problem_21,C:\Users\subject\Desktop\SVRT Experiments\SVRT Experiment 3\svrt_images\generated_images\results_problem_21\sample_1_0004.png,,,,,,,,,,,,,,,,,,,,,,,0,0,0,0,0,31,31,31,,,,,,,,,,,,,,f,21,A,A,1,1,Correct!,6.984383200004231,638.0697147999963,None,638.0697147999963,None,645.0859484999964,None,,,,,4,001,2023-04-26_12h54.52.623,uncolored_sorted,2021.2.3,60.05371203918034,
C:\Users\subject\Desktop\SVRT Experiments\SVRT Experiment 3\svrt_images\generated_images\results_problem_21,C:\Users\subject\Desktop\SVRT Experiments\SVRT Experiment 3\svrt_images\generated_images\results_problem_21\sample_1_0005.png,,,,,,,,,,,,,,,,,,,,,,,0,0,0,0,0,32,32,32,,,,,,,,,,,,,,f,21,A,A,1,1,Correct!,1.4527530999985174,646.3692308999962,None,646.3692308999962,None,647.8857842999932,None,,,,,4,001,2023-04-26_12h54.52.623,uncolored_sorted,2021.2.3,60.05371203918034,
C:\Users\subject\Desktop\SVRT Experiments\SVRT Experiment 3\svrt_images\generated_images\results_problem_21,C:\Users\subject\Desktop\SVRT Experiments\SVRT Experiment 3\svrt_images\generated_images\results_problem_21\sample_0_0014.png,,,,,,,,,,,,,,,,,,,,,,,0,0,0,0,0,33,33,33,,,,,,,,,,,,,,j,21,B,B,1,1,Correct!,1.0523742000004859,649.1857186999987,None,649.1857186999987,None,650.3356206999961,None,,,,,4,001,2023-04-26_12h54.52.623,uncolored_sorted,2021.2.3,60.05371203918034,
C:\Users\subject\Desktop\SVRT Experiments\SVRT Experiment 3\svrt_images\generated_images\results_problem_21,,,,,,,,,,,,,,,,,,,,,,,,0,0,0,0,,,,,,,,,,,,,,,,,,,,,,,,,,,,,,,,651.335551199998,651.335551199998,space,3.9745362999965437,4,001,2023-04-26_12h54.52.623,uncolored_sorted,2021.2.3,60.05371203918034,
C:\Users\subject\Desktop\SVRT Experiments\SVRT Experiment 3\svrt_images\generated_images\results_problem_12,,C:\Users\subject\Desktop\SVRT Experiments\SVRT Experiment 3\svrt_images\generated_images\results_problem_12\sample_0_0008.png,,,,,,,,,,,,,,,,,,,,,,0,1,1,1,0,0,0,0,,,,,,,,,,,,,,f,12,A,B,1,0,Incorrect!,4.971987600001739,655.5860605999987,None,655.5860605999987,None,660.5855243999977,None,,,,,4,001,2023-04-26_12h54.52.623,uncolored_sorted,2021.2.3,60.05371203918034,
C:\Users\subject\Desktop\SVRT Experiments\SVRT Experiment 3\svrt_images\generated_images\results_problem_12,,C:\Users\subject\Desktop\SVRT Experiments\SVRT Experiment 3\svrt_images\generated_images\results_problem_12\sample_1_0013.png,,,,,,,,,,,,,,,,,,,,,,0,1,1,1,0,1,1,1,,,,,,,,,,,,,,j,12,B,A,1,0,Incorrect!,2.3945681000041077,661.6354554999998,None,661.6354554999998,None,664.0519744999983,None,,,,,4,001,2023-04-26_12h54.52.623,uncolored_sorted,2021.2.3,60.05371203918034,
C:\Users\subject\Desktop\SVRT Experiments\SVRT Experiment 3\svrt_images\generated_images\results_problem_12,,C:\Users\subject\Desktop\SVRT Experiments\SVRT Experiment 3\svrt_images\generated_images\results_problem_12\sample_1_0000.png,,,,,,,,,,,,,,,,,,,,,,0,1,1,1,0,2,2,2,,,,,,,,,,,,,,f,12,A,A,1,1,Correct!,1.535339300004125,665.1185719999994,None,665.1185719999994,None,666.6847014999948,None,,,,,4,001,2023-04-26_12h54.52.623,uncolored_sorted,2021.2.3,60.05371203918034,
C:\Users\subject\Desktop\SVRT Experiments\SVRT Experiment 3\svrt_images\generated_images\results_problem_12,,C:\Users\subject\Desktop\SVRT Experiments\SVRT Experiment 3\svrt_images\generated_images\results_problem_12\sample_0_0003.png,,,,,,,,,,,,,,,,,,,,,,0,1,1,1,0,3,3,3,,,,,,,,,,,,,,f,12,A,B,1,0,Incorrect!,0.7433460999964154,667.7346404999989,None,667.7346404999989,None,668.5012498999931,None,,,,,4,001,2023-04-26_12h54.52.623,uncolored_sorted,2021.2.3,60.05371203918034,
C:\Users\subject\Desktop\SVRT Experiments\SVRT Experiment 3\svrt_images\generated_images\results_problem_12,,C:\Users\subject\Desktop\SVRT Experiments\SVRT Experiment 3\svrt_images\generated_images\results_problem_12\sample_1_0003.png,,,,,,,,,,,,,,,,,,,,,,0,1,1,1,0,4,4,4,,,,,,,,,,,,,,j,12,B,A,1,0,Incorrect!,1.037853499998164,669.5682613999961,None,669.5682613999961,None,670.6344097999972,None,,,,,4,001,2023-04-26_12h54.52.623,uncolored_sorted,2021.2.3,60.05371203918034,
C:\Users\subject\Desktop\SVRT Experiments\SVRT Experiment 3\svrt_images\generated_images\results_problem_12,,C:\Users\subject\Desktop\SVRT Experiments\SVRT Experiment 3\svrt_images\generated_images\results_problem_12\sample_0_0009.png,,,,,,,,,,,,,,,,,,,,,,0,1,1,1,0,5,5,5,,,,,,,,,,,,,,j,12,B,B,1,1,Correct!,2.601511099994241,671.684348499999,None,671.684348499999,None,674.3174804999944,None,,,,,4,001,2023-04-26_12h54.52.623,uncolored_sorted,2021.2.3,60.05371203918034,
C:\Users\subject\Desktop\SVRT Experiments\SVRT Experiment 3\svrt_images\generated_images\results_problem_12,,C:\Users\subject\Desktop\SVRT Experiments\SVRT Experiment 3\svrt_images\generated_images\results_problem_12\sample_0_0004.png,,,,,,,,,,,,,,,,,,,,,,0,1,1,1,0,6,6,6,,,,,,,,,,,,,,f,12,A,B,1,0,Incorrect!,0.8858261000059429,675.3840955999985,None,675.3840955999985,None,676.3006446999934,None,,,,,4,001,2023-04-26_12h54.52.623,uncolored_sorted,2021.2.3,60.05371203918034,
C:\Users\subject\Desktop\SVRT Experiments\SVRT Experiment 3\svrt_images\generated_images\results_problem_12,,C:\Users\subject\Desktop\SVRT Experiments\SVRT Experiment 3\svrt_images\generated_images\results_problem_12\sample_0_0014.png,,,,,,,,,,,,,,,,,,,,,,0,1,1,1,0,7,7,7,,,,,,,,,,,,,,j,12,B,B,1,1,Correct!,1.4308231999966665,677.367256599995,None,677.367256599995,None,678.8171136999954,None,,,,,4,001,2023-04-26_12h54.52.623,uncolored_sorted,2021.2.3,60.05371203918034,
C:\Users\subject\Desktop\SVRT Experiments\SVRT Experiment 3\svrt_images\generated_images\results_problem_12,,C:\Users\subject\Desktop\SVRT Experiments\SVRT Experiment 3\svrt_images\generated_images\results_problem_12\sample_1_0010.png,,,,,,,,,,,,,,,,,,,,,,0,1,1,1,0,8,8,8,,,,,,,,,,,,,,j,12,B,A,1,0,Incorrect!,3.44102269999712,679.9170488999953,None,679.9170488999953,None,683.383611199999,None,,,,,4,001,2023-04-26_12h54.52.623,uncolored_sorted,2021.2.3,60.05371203918034,
C:\Users\subject\Desktop\SVRT Experiments\SVRT Experiment 3\svrt_images\generated_images\results_problem_12,,C:\Users\subject\Desktop\SVRT Experiments\SVRT Experiment 3\svrt_images\generated_images\results_problem_12\sample_0_0002.png,,,,,,,,,,,,,,,,,,,,,,0,1,1,1,0,9,9,9,,,,,,,,,,,,,,j,12,B,B,1,1,Correct!,3.2273242000010214,684.4668868999943,None,684.4668868999943,None,687.7166737999942,None,,,,,4,001,2023-04-26_12h54.52.623,uncolored_sorted,2021.2.3,60.05371203918034,
C:\Users\subject\Desktop\SVRT Experiments\SVRT Experiment 3\svrt_images\generated_images\results_problem_12,,C:\Users\subject\Desktop\SVRT Experiments\SVRT Experiment 3\svrt_images\generated_images\results_problem_12\sample_1_0011.png,,,,,,,,,,,,,,,,,,,,,,0,1,1,1,0,10,10,10,,,,,,,,,,,,,,f,12,A,A,1,1,Correct!,0.605471300004865,688.8166375999936,None,688.8166375999936,None,689.4498976999967,None,,,,,4,001,2023-04-26_12h54.52.623,uncolored_sorted,2021.2.3,60.05371203918034,
C:\Users\subject\Desktop\SVRT Experiments\SVRT Experiment 3\svrt_images\generated_images\results_problem_12,,C:\Users\subject\Desktop\SVRT Experiments\SVRT Experiment 3\svrt_images\generated_images\results_problem_12\sample_0_0011.png,,,,,,,,,,,,,,,,,,,,,,0,1,1,1,0,11,11,11,,,,,,,,,,,,,,f,12,A,B,1,0,Incorrect!,0.9515240000037011,690.5665102999992,None,690.5665102999992,None,691.5497735999961,None,,,,,4,001,2023-04-26_12h54.52.623,uncolored_sorted,2021.2.3,60.05371203918034,
C:\Users\subject\Desktop\SVRT Experiments\SVRT Experiment 3\svrt_images\generated_images\results_problem_12,,C:\Users\subject\Desktop\SVRT Experiments\SVRT Experiment 3\svrt_images\generated_images\results_problem_12\sample_1_0002.png,,,,,,,,,,,,,,,,,,,,,,0,1,1,1,0,12,12,12,,,,,,,,,,,,,,f,12,A,A,1,1,Correct!,0.6763724999982514,692.6497101999994,None,692.6497101999994,None,693.349676299993,None,,,,,4,001,2023-04-26_12h54.52.623,uncolored_sorted,2021.2.3,60.05371203918034,
C:\Users\subject\Desktop\SVRT Experiments\SVRT Experiment 3\svrt_images\generated_images\results_problem_12,,C:\Users\subject\Desktop\SVRT Experiments\SVRT Experiment 3\svrt_images\generated_images\results_problem_12\sample_1_0016.png,,,,,,,,,,,,,,,,,,,,,,0,1,1,1,0,13,13,13,,,,,,,,,,,,,,f,12,A,A,1,1,Correct!,0.4763410000014119,694.4496050999951,None,694.4496050999951,None,694.9495674999998,None,,,,,4,001,2023-04-26_12h54.52.623,uncolored_sorted,2021.2.3,60.05371203918034,
C:\Users\subject\Desktop\SVRT Experiments\SVRT Experiment 3\svrt_images\generated_images\results_problem_12,,C:\Users\subject\Desktop\SVRT Experiments\SVRT Experiment 3\svrt_images\generated_images\results_problem_12\sample_1_0006.png,,,,,,,,,,,,,,,,,,,,,,0,1,1,1,0,14,14,14,,,,,,,,,,,,,,j,12,B,A,1,0,Incorrect!,0.9712045999986003,696.0828327999989,None,696.0828327999989,None,697.0994428999984,None,,,,,4,001,2023-04-26_12h54.52.623,uncolored_sorted,2021.2.3,60.05371203918034,
C:\Users\subject\Desktop\SVRT Experiments\SVRT Experiment 3\svrt_images\generated_images\results_problem_12,,C:\Users\subject\Desktop\SVRT Experiments\SVRT Experiment 3\svrt_images\generated_images\results_problem_12\sample_1_0005.png,,,,,,,,,,,,,,,,,,,,,,0,1,1,1,0,15,15,15,,,,,,,,,,,,,,j,12,B,A,1,0,Incorrect!,1.2693901999955415,698.2326965999964,None,698.2326965999964,None,699.549282699998,None,,,,,4,001,2023-04-26_12h54.52.623,uncolored_sorted,2021.2.3,60.05371203918034,
C:\Users\subject\Desktop\SVRT Experiments\SVRT Experiment 3\svrt_images\generated_images\results_problem_12,,C:\Users\subject\Desktop\SVRT Experiments\SVRT Experiment 3\svrt_images\generated_images\results_problem_12\sample_1_0001.png,,,,,,,,,,,,,,,,,,,,,,0,1,1,1,0,16,16,16,,,,,,,,,,,,,,j,12,B,A,1,0,Incorrect!,0.49888479999935953,700.6992361999946,None,700.6992361999946,None,701.2158566999933,None,,,,,4,001,2023-04-26_12h54.52.623,uncolored_sorted,2021.2.3,60.05371203918034,
C:\Users\subject\Desktop\SVRT Experiments\SVRT Experiment 3\svrt_images\generated_images\results_problem_12,,C:\Users\subject\Desktop\SVRT Experiments\SVRT Experiment 3\svrt_images\generated_images\results_problem_12\sample_0_0006.png,,,,,,,,,,,,,,,,,,,,,,0,1,1,1,0,17,17,17,,,,,,,,,,,,,,j,12,B,B,1,1,Correct!,0.3681032000022242,702.3657840999949,None,702.3657840999949,None,702.7824387000001,None,,,,,4,001,2023-04-26_12h54.52.623,uncolored_sorted,2021.2.3,60.05371203918034,
C:\Users\subject\Desktop\SVRT Experiments\SVRT Experiment 3\svrt_images\generated_images\results_problem_12,,C:\Users\subject\Desktop\SVRT Experiments\SVRT Experiment 3\svrt_images\generated_images\results_problem_12\sample_1_0015.png,,,,,,,,,,,,,,,,,,,,,,0,1,1,1,0,18,18,18,,,,,,,,,,,,,,j,12,B,A,1,0,Incorrect!,1.5056320000003325,703.9323584999947,None,703.9323584999947,None,705.4822691999943,None,,,,,4,001,2023-04-26_12h54.52.623,uncolored_sorted,2021.2.3,60.05371203918034,
C:\Users\subject\Desktop\SVRT Experiments\SVRT Experiment 3\svrt_images\generated_images\results_problem_12,,C:\Users\subject\Desktop\SVRT Experiments\SVRT Experiment 3\svrt_images\generated_images\results_problem_12\sample_0_0001.png,,,,,,,,,,,,,,,,,,,,,,0,1,1,1,0,19,19,19,,,,,,,,,,,,,,j,12,B,B,1,1,Correct!,0.6292611999961082,706.6488646999933,None,706.6488646999933,None,707.298811099994,None,,,,,4,001,2023-04-26_12h54.52.623,uncolored_sorted,2021.2.3,60.05371203918034,
C:\Users\subject\Desktop\SVRT Experiments\SVRT Experiment 3\svrt_images\generated_images\results_problem_12,,C:\Users\subject\Desktop\SVRT Experiments\SVRT Experiment 3\svrt_images\generated_images\results_problem_12\sample_1_0014.png,,,,,,,,,,,,,,,,,,,,,,0,1,1,1,0,20,20,20,,,,,,,,,,,,,,f,12,A,A,1,1,Correct!,0.8919481999982963,708.4820824999988,None,708.4820824999988,None,709.3986844999963,None,,,,,4,001,2023-04-26_12h54.52.623,uncolored_sorted,2021.2.3,60.05371203918034,
C:\Users\subject\Desktop\SVRT Experiments\SVRT Experiment 3\svrt_images\generated_images\results_problem_12,,C:\Users\subject\Desktop\SVRT Experiments\SVRT Experiment 3\svrt_images\generated_images\results_problem_12\sample_0_0012.png,,,,,,,,,,,,,,,,,,,,,,0,1,1,1,0,21,21,21,,,,,,,,,,,,,,f,12,A,B,1,0,Incorrect!,5.496156200002588,710.5819489999994,None,710.5819489999994,None,716.0982820999998,None,,,,,4,001,2023-04-26_12h54.52.623,uncolored_sorted,2021.2.3,60.05371203918034,
C:\Users\subject\Desktop\SVRT Experiments\SVRT Experiment 3\svrt_images\generated_images\results_problem_12,,C:\Users\subject\Desktop\SVRT Experiments\SVRT Experiment 3\svrt_images\generated_images\results_problem_12\sample_1_0008.png,,,,,,,,,,,,,,,,,,,,,,0,1,1,1,0,22,22,22,,,,,,,,,,,,,,j,12,B,A,1,0,Incorrect!,0.6518866999977035,717.2982365999997,None,717.2982365999997,None,718.0148273999948,None,,,,,4,001,2023-04-26_12h54.52.623,uncolored_sorted,2021.2.3,60.05371203918034,
C:\Users\subject\Desktop\SVRT Experiments\SVRT Experiment 3\svrt_images\generated_images\results_problem_12,,C:\Users\subject\Desktop\SVRT Experiments\SVRT Experiment 3\svrt_images\generated_images\results_problem_12\sample_0_0000.png,,,,,,,,,,,,,,,,,,,,,,0,1,1,1,0,23,23,23,,,,,,,,,,,,,,f,12,A,B,1,0,Incorrect!,0.8951672999974107,719.214759699993,None,719.214759699993,None,720.1313628999997,None,,,,,4,001,2023-04-26_12h54.52.623,uncolored_sorted,2021.2.3,60.05371203918034,
C:\Users\subject\Desktop\SVRT Experiments\SVRT Experiment 3\svrt_images\generated_images\results_problem_12,,C:\Users\subject\Desktop\SVRT Experiments\SVRT Experiment 3\svrt_images\generated_images\results_problem_12\sample_1_0012.png,,,,,,,,,,,,,,,,,,,,,,0,1,1,1,0,24,24,24,,,,,,,,,,,,,,f,12,A,A,1,1,Correct!,8.714095099996484,721.3479608999987,None,721.3479608999987,None,730.1140923999992,None,,,,,4,001,2023-04-26_12h54.52.623,uncolored_sorted,2021.2.3,60.05371203918034,
C:\Users\subject\Desktop\SVRT Experiments\SVRT Experiment 3\svrt_images\generated_images\results_problem_12,,C:\Users\subject\Desktop\SVRT Experiments\SVRT Experiment 3\svrt_images\generated_images\results_problem_12\sample_1_0009.png,,,,,,,,,,,,,,,,,,,,,,0,1,1,1,0,25,25,25,,,,,,,,,,,,,,f,12,A,A,1,1,Correct!,0.8100101000018185,731.3640883999979,None,731.3640883999979,None,732.2306342999946,None,,,,,4,001,2023-04-26_12h54.52.623,uncolored_sorted,2021.2.3,60.05371203918034,
C:\Users\subject\Desktop\SVRT Experiments\SVRT Experiment 3\svrt_images\generated_images\results_problem_12,,C:\Users\subject\Desktop\SVRT Experiments\SVRT Experiment 3\svrt_images\generated_images\results_problem_12\sample_0_0007.png,,,,,,,,,,,,,,,,,,,,,,0,1,1,1,0,26,26,26,,,,,,,,,,,,,,j,12,B,B,1,1,Correct!,0.7582994999975199,733.4638864999943,None,733.4638864999943,None,734.2804878999959,None,,,,,4,001,2023-04-26_12h54.52.623,uncolored_sorted,2021.2.3,60.05371203918034,
C:\Users\subject\Desktop\SVRT Experiments\SVRT Experiment 3\svrt_images\generated_images\results_problem_12,,C:\Users\subject\Desktop\SVRT Experiments\SVRT Experiment 3\svrt_images\generated_images\results_problem_12\sample_1_0007.png,,,,,,,,,,,,,,,,,,,,,,0,1,1,1,0,27,27,27,,,,,,,,,,,,,,f,12,A,A,1,1,Correct!,0.9796454000024823,735.5304309999992,None,735.5304309999992,None,736.563679699997,None,,,,,4,001,2023-04-26_12h54.52.623,uncolored_sorted,2021.2.3,60.05371203918034,
C:\Users\subject\Desktop\SVRT Experiments\SVRT Experiment 3\svrt_images\generated_images\results_problem_12,,C:\Users\subject\Desktop\SVRT Experiments\SVRT Experiment 3\svrt_images\generated_images\results_problem_12\sample_0_0010.png,,,,,,,,,,,,,,,,,,,,,,0,1,1,1,0,28,28,28,,,,,,,,,,,,,,j,12,B,B,1,1,Correct!,1.5596115999942413,737.8302737999984,None,737.8302737999984,None,739.4468311999954,None,,,,,4,001,2023-04-26_12h54.52.623,uncolored_sorted,2021.2.3,60.05371203918034,
C:\Users\subject\Desktop\SVRT Experiments\SVRT Experiment 3\svrt_images\generated_images\results_problem_12,,C:\Users\subject\Desktop\SVRT Experiments\SVRT Experiment 3\svrt_images\generated_images\results_problem_12\sample_0_0015.png,,,,,,,,,,,,,,,,,,,,,,0,1,1,1,0,29,29,29,,,,,,,,,,,,,,f,12,A,B,1,0,Incorrect!,0.9901210000025458,740.7840477999998,None,740.7840477999998,None,741.7966974999945,None,,,,,4,001,2023-04-26_12h54.52.623,uncolored_sorted,2021.2.3,60.05371203918034,
C:\Users\subject\Desktop\SVRT Experiments\SVRT Experiment 3\svrt_images\generated_images\results_problem_12,,C:\Users\subject\Desktop\SVRT Experiments\SVRT Experiment 3\svrt_images\generated_images\results_problem_12\sample_1_0004.png,,,,,,,,,,,,,,,,,,,,,,0,1,1,1,0,30,30,30,,,,,,,,,,,,,,f,12,A,A,1,1,Correct!,0.9507453000042005,743.063293399995,None,743.063293399995,None,744.0798964999994,None,,,,,4,001,2023-04-26_12h54.52.623,uncolored_sorted,2021.2.3,60.05371203918034,
C:\Users\subject\Desktop\SVRT Experiments\SVRT Experiment 3\svrt_images\generated_images\results_problem_12,,C:\Users\subject\Desktop\SVRT Experiments\SVRT Experiment 3\svrt_images\generated_images\results_problem_12\sample_0_0013.png,,,,,,,,,,,,,,,,,,,,,,0,1,1,1,0,31,31,31,,,,,,,,,,,,,,j,12,B,B,1,1,Correct!,0.9201494999942952,745.4298073999962,None,745.4298073999962,None,746.3797445999953,None,,,,,4,001,2023-04-26_12h54.52.623,uncolored_sorted,2021.2.3,60.05371203918034,
C:\Users\subject\Desktop\SVRT Experiments\SVRT Experiment 3\svrt_images\generated_images\results_problem_12,,C:\Users\subject\Desktop\SVRT Experiments\SVRT Experiment 3\svrt_images\generated_images\results_problem_12\sample_0_0016.png,,,,,,,,,,,,,,,,,,,,,,0,1,1,1,0,32,32,32,,,,,,,,,,,,,,j,12,B,B,1,1,Correct!,1.5657035000040196,747.6963771999945,None,747.6963771999945,None,749.2795759999935,None,,,,,4,001,2023-04-26_12h54.52.623,uncolored_sorted,2021.2.3,60.05371203918034,
C:\Users\subject\Desktop\SVRT Experiments\SVRT Experiment 3\svrt_images\generated_images\results_problem_12,,C:\Users\subject\Desktop\SVRT Experiments\SVRT Experiment 3\svrt_images\generated_images\results_problem_12\sample_0_0005.png,,,,,,,,,,,,,,,,,,,,,,0,1,1,1,0,33,33,33,,,,,,,,,,,,,,j,12,B,B,1,1,Correct!,0.8578889999989769,750.5961673999991,None,750.5961673999991,None,751.5127722999969,None,,,,,4,001,2023-04-26_12h54.52.623,uncolored_sorted,2021.2.3,60.05371203918034,
C:\Users\subject\Desktop\SVRT Experiments\SVRT Experiment 3\svrt_images\generated_images\results_problem_12,,,,,,,,,,,,,,,,,,,,,,,,0,1,1,1,,,,,,,,,,,,,,,,,,,,,,,,,,,,,,,,752.5127378999969,752.5127378999969,space,1.7733035999990534,4,001,2023-04-26_12h54.52.623,uncolored_sorted,2021.2.3,60.05371203918034,
C:\Users\subject\Desktop\SVRT Experiments\SVRT Experiment 3\svrt_images\generated_images\results_problem_3,,,C:\Users\subject\Desktop\SVRT Experiments\SVRT Experiment 3\svrt_images\generated_images\results_problem_3\sample_1_0009.png,,,,,,,,,,,,,,,,,,,,,0,2,2,2,0,0,0,0,,,,,,,,,,,,,,f,3,A,A,1,1,Correct!,1.6116008999961196,754.5464633999945,None,754.5464633999945,None,756.1797174999956,None,,,,,4,001,2023-04-26_12h54.52.623,uncolored_sorted,2021.2.3,60.05371203918034,
C:\Users\subject\Desktop\SVRT Experiments\SVRT Experiment 3\svrt_images\generated_images\results_problem_3,,,C:\Users\subject\Desktop\SVRT Experiments\SVRT Experiment 3\svrt_images\generated_images\results_problem_3\sample_0_0014.png,,,,,,,,,,,,,,,,,,,,,0,2,2,2,0,1,1,1,,,,,,,,,,,,,,j,3,B,B,1,1,Correct!,1.695087300002342,757.2630523999978,None,757.2630523999978,None,758.9791055999958,None,,,,,4,001,2023-04-26_12h54.52.623,uncolored_sorted,2021.2.3,60.05371203918034,
C:\Users\subject\Desktop\SVRT Experiments\SVRT Experiment 3\svrt_images\generated_images\results_problem_3,,,C:\Users\subject\Desktop\SVRT Experiments\SVRT Experiment 3\svrt_images\generated_images\results_problem_3\sample_1_0011.png,,,,,,,,,,,,,,,,,,,,,0,2,2,2,0,2,2,2,,,,,,,,,,,,,,j,3,B,A,1,0,Incorrect!,1.6958319000041229,760.0302430999945,None,760.0302430999945,None,761.7455779999946,None,,,,,4,001,2023-04-26_12h54.52.623,uncolored_sorted,2021.2.3,60.05371203918034,
C:\Users\subject\Desktop\SVRT Experiments\SVRT Experiment 3\svrt_images\generated_images\results_problem_3,,,C:\Users\subject\Desktop\SVRT Experiments\SVRT Experiment 3\svrt_images\generated_images\results_problem_3\sample_1_0003.png,,,,,,,,,,,,,,,,,,,,,0,2,2,2,0,3,3,3,,,,,,,,,,,,,,f,3,A,A,1,1,Correct!,1.139217700001609,762.7788665999979,None,762.7788665999979,None,763.9454197999949,None,,,,,4,001,2023-04-26_12h54.52.623,uncolored_sorted,2021.2.3,60.05371203918034,
C:\Users\subject\Desktop\SVRT Experiments\SVRT Experiment 3\svrt_images\generated_images\results_problem_3,,,C:\Users\subject\Desktop\SVRT Experiments\SVRT Experiment 3\svrt_images\generated_images\results_problem_3\sample_0_0015.png,,,,,,,,,,,,,,,,,,,,,0,2,2,2,0,4,4,4,,,,,,,,,,,,,,j,3,B,B,1,1,Correct!,2.170674799999688,764.9954011999944,None,764.9954011999944,None,767.1951868999968,None,,,,,4,001,2023-04-26_12h54.52.623,uncolored_sorted,2021.2.3,60.05371203918034,
C:\Users\subject\Desktop\SVRT Experiments\SVRT Experiment 3\svrt_images\generated_images\results_problem_3,,,C:\Users\subject\Desktop\SVRT Experiments\SVRT Experiment 3\svrt_images\generated_images\results_problem_3\sample_0_0007.png,,,,,,,,,,,,,,,,,,,,,0,2,2,2,0,5,5,5,,,,,,,,,,,,,,j,3,B,B,1,1,Correct!,0.6649928999977419,768.2451281999965,None,768.2451281999965,None,768.928708499996,None,,,,,4,001,2023-04-26_12h54.52.623,uncolored_sorted,2021.2.3,60.05371203918034,
C:\Users\subject\Desktop\SVRT Experiments\SVRT Experiment 3\svrt_images\generated_images\results_problem_3,,,C:\Users\subject\Desktop\SVRT Experiments\SVRT Experiment 3\svrt_images\generated_images\results_problem_3\sample_0_0011.png,,,,,,,,,,,,,,,,,,,,,0,2,2,2,0,6,6,6,,,,,,,,,,,,,,f,3,A,B,1,0,Incorrect!,0.8188235999987228,769.9952988999939,None,769.9952988999939,None,770.8451587999953,None,,,,,4,001,2023-04-26_12h54.52.623,uncolored_sorted,2021.2.3,60.05371203918034,
C:\Users\subject\Desktop\SVRT Experiments\SVRT Experiment 3\svrt_images\generated_images\results_problem_3,,,C:\Users\subject\Desktop\SVRT Experiments\SVRT Experiment 3\svrt_images\generated_images\results_problem_3\sample_0_0005.png,,,,,,,,,,,,,,,,,,,,,0,2,2,2,0,7,7,7,,,,,,,,,,,,,,j,3,B,B,1,1,Correct!,1.1102850000024773,771.9117549999937,None,771.9117549999937,None,773.0448259999976,None,,,,,4,001,2023-04-26_12h54.52.623,uncolored_sorted,2021.2.3,60.05371203918034,
C:\Users\subject\Desktop\SVRT Experiments\SVRT Experiment 3\svrt_images\generated_images\results_problem_3,,,C:\Users\subject\Desktop\SVRT Experiments\SVRT Experiment 3\svrt_images\generated_images\results_problem_3\sample_1_0007.png,,,,,,,,,,,,,,,,,,,,,0,2,2,2,0,8,8,8,,,,,,,,,,,,,,f,3,A,A,1,1,Correct!,0.8306652999963262,774.1114304999937,None,774.1114304999937,None,774.9613682999989,None,,,,,4,001,2023-04-26_12h54.52.623,uncolored_sorted,2021.2.3,60.05371203918034,
C:\Users\subject\Desktop\SVRT Experiments\SVRT Experiment 3\svrt_images\generated_images\results_problem_3,,,C:\Users\subject\Desktop\SVRT Experiments\SVRT Experiment 3\svrt_images\generated_images\results_problem_3\sample_1_0012.png,,,,,,,,,,,,,,,,,,,,,0,2,2,2,0,9,9,9,,,,,,,,,,,,,,f,3,A,A,1,1,Correct!,0.5774697999950149,776.0446598999988,None,776.0446598999988,None,776.6446101999973,None,,,,,4,001,2023-04-26_12h54.52.623,uncolored_sorted,2021.2.3,60.05371203918034,
C:\Users\subject\Desktop\SVRT Experiments\SVRT Experiment 3\svrt_images\generated_images\results_problem_3,,,C:\Users\subject\Desktop\SVRT Experiments\SVRT Experiment 3\svrt_images\generated_images\results_problem_3\sample_0_0006.png,,,,,,,,,,,,,,,,,,,,,0,2,2,2,0,10,10,10,,,,,,,,,,,,,,j,3,B,B,1,1,Correct!,0.6535281999967992,777.7445408999993,None,777.7445408999993,None,778.4278304999971,None,,,,,4,001,2023-04-26_12h54.52.623,uncolored_sorted,2021.2.3,60.05371203918034,
C:\Users\subject\Desktop\SVRT Experiments\SVRT Experiment 3\svrt_images\generated_images\results_problem_3,,,C:\Users\subject\Desktop\SVRT Experiments\SVRT Experiment 3\svrt_images\generated_images\results_problem_3\sample_1_0015.png,,,,,,,,,,,,,,,,,,,,,0,2,2,2,0,11,11,11,,,,,,,,,,,,,,f,3,A,A,1,1,Correct!,0.6301821999950334,779.5277638999978,None,779.5277638999978,None,780.1777248999933,None,,,,,4,001,2023-04-26_12h54.52.623,uncolored_sorted,2021.2.3,60.05371203918034,
C:\Users\subject\Desktop\SVRT Experiments\SVRT Experiment 3\svrt_images\generated_images\results_problem_3,,,C:\Users\subject\Desktop\SVRT Experiments\SVRT Experiment 3\svrt_images\generated_images\results_problem_3\sample_1_0010.png,,,,,,,,,,,,,,,,,,,,,0,2,2,2,0,12,12,12,,,,,,,,,,,,,,f,3,A,A,1,1,Correct!,0.8164535999967484,781.2776639999938,None,781.2776639999938,None,782.110937999998,None,,,,,4,001,2023-04-26_12h54.52.623,uncolored_sorted,2021.2.3,60.05371203918034,
C:\Users\subject\Desktop\SVRT Experiments\SVRT Experiment 3\svrt_images\generated_images\results_problem_3,,,C:\Users\subject\Desktop\SVRT Experiments\SVRT Experiment 3\svrt_images\generated_images\results_problem_3\sample_0_0008.png,,,,,,,,,,,,,,,,,,,,,0,2,2,2,0,13,13,13,,,,,,,,,,,,,,j,3,B,B,1,1,Correct!,0.643122499997844,783.210880599996,None,783.210880599996,None,783.8774971999956,None,,,,,4,001,2023-04-26_12h54.52.623,uncolored_sorted,2021.2.3,60.05371203918034,
C:\Users\subject\Desktop\SVRT Experiments\SVRT Experiment 3\svrt_images\generated_images\results_problem_3,,,C:\Users\subject\Desktop\SVRT Experiments\SVRT Experiment 3\svrt_images\generated_images\results_problem_3\sample_1_0008.png,,,,,,,,,,,,,,,,,,,,,0,2,2,2,0,14,14,14,,,,,,,,,,,,,,,,,,,,,,,,,,,,784.8774329999942,784.8774329999942,space,1.4405435000007856,4,001,2023-04-26_12h54.52.623,uncolored_sorted,2021.2.3,60.05371203918034,
C:\Users\subject\Desktop\SVRT Experiments\SVRT Experiment 3\svrt_images\generated_images\results_problem_22,,,C:\Users\subject\Desktop\SVRT Experiments\SVRT Experiment 3\svrt_images\generated_images\results_problem_3\sample_1_0008.png,C:\Users\subject\Desktop\SVRT Experiments\SVRT Experiment 3\svrt_images\generated_images\results_problem_22\sample_0_0001.png,,,,,,,,,,,,,,,,,,,,0,3,3,3,0,0,0,0,,,,,,,,,,,,,,f,22,A,B,1,0,Incorrect!,1.5066795999955502,786.4274151999998,None,786.4274151999998,None,787.9605803999948,None,,,,,4,001,2023-04-26_12h54.52.623,uncolored_sorted,2021.2.3,60.05371203918034,
C:\Users\subject\Desktop\SVRT Experiments\SVRT Experiment 3\svrt_images\generated_images\results_problem_22,,,C:\Users\subject\Desktop\SVRT Experiments\SVRT Experiment 3\svrt_images\generated_images\results_problem_3\sample_1_0008.png,C:\Users\subject\Desktop\SVRT Experiments\SVRT Experiment 3\svrt_images\generated_images\results_problem_22\sample_0_0007.png,,,,,,,,,,,,,,,,,,,,0,3,3,3,0,1,1,1,,,,,,,,,,,,,,f,22,A,B,1,0,Incorrect!,1.2588108999989345,789.0272063999946,None,789.0272063999946,None,790.3104393999965,None,,,,,4,001,2023-04-26_12h54.52.623,uncolored_sorted,2021.2.3,60.05371203918034,
C:\Users\subject\Desktop\SVRT Experiments\SVRT Experiment 3\svrt_images\generated_images\results_problem_22,,,C:\Users\subject\Desktop\SVRT Experiments\SVRT Experiment 3\svrt_images\generated_images\results_problem_3\sample_1_0008.png,C:\Users\subject\Desktop\SVRT Experiments\SVRT Experiment 3\svrt_images\generated_images\results_problem_22\sample_1_0012.png,,,,,,,,,,,,,,,,,,,,0,3,3,3,0,2,2,2,,,,,,,,,,,,,,f,22,A,A,1,1,Correct!,1.4383321999994223,791.3437111999956,None,791.3437111999956,None,792.8102789999975,None,,,,,4,001,2023-04-26_12h54.52.623,uncolored_sorted,2021.2.3,60.05371203918034,
C:\Users\subject\Desktop\SVRT Experiments\SVRT Experiment 3\svrt_images\generated_images\results_problem_22,,,C:\Users\subject\Desktop\SVRT Experiments\SVRT Experiment 3\svrt_images\generated_images\results_problem_3\sample_1_0008.png,C:\Users\subject\Desktop\SVRT Experiments\SVRT Experiment 3\svrt_images\generated_images\results_problem_22\sample_0_0013.png,,,,,,,,,,,,,,,,,,,,0,3,3,3,0,3,3,3,,,,,,,,,,,,,,j,22,B,B,1,1,Correct!,0.7783857999966131,793.8435480999979,None,793.8435480999979,None,794.6435077999995,None,,,,,4,001,2023-04-26_12h54.52.623,uncolored_sorted,2021.2.3,60.05371203918034,
C:\Users\subject\Desktop\SVRT Experiments\SVRT Experiment 3\svrt_images\generated_images\results_problem_22,,,C:\Users\subject\Desktop\SVRT Experiments\SVRT Experiment 3\svrt_images\generated_images\results_problem_3\sample_1_0008.png,C:\Users\subject\Desktop\SVRT Experiments\SVRT Experiment 3\svrt_images\generated_images\results_problem_22\sample_0_0009.png,,,,,,,,,,,,,,,,,,,,0,3,3,3,0,4,4,4,,,,,,,,,,,,,,j,22,B,B,1,1,Correct!,0.9292593999998644,795.6767967999986,None,795.6767967999986,None,796.6267209999933,None,,,,,4,001,2023-04-26_12h54.52.623,uncolored_sorted,2021.2.3,60.05371203918034,
C:\Users\subject\Desktop\SVRT Experiments\SVRT Experiment 3\svrt_images\generated_images\results_problem_22,,,C:\Users\subject\Desktop\SVRT Experiments\SVRT Experiment 3\svrt_images\generated_images\results_problem_3\sample_1_0008.png,C:\Users\subject\Desktop\SVRT Experiments\SVRT Experiment 3\svrt_images\generated_images\results_problem_22\sample_0_0000.png,,,,,,,,,,,,,,,,,,,,0,3,3,3,0,5,5,5,,,,,,,,,,,,,,j,22,B,B,1,1,Correct!,1.0414186999987578,797.6766613,None,797.6766613,None,798.7432600999964,None,,,,,4,001,2023-04-26_12h54.52.623,uncolored_sorted,2021.2.3,60.05371203918034,
C:\Users\subject\Desktop\SVRT Experiments\SVRT Experiment 3\svrt_images\generated_images\results_problem_22,,,C:\Users\subject\Desktop\SVRT Experiments\SVRT Experiment 3\svrt_images\generated_images\results_problem_3\sample_1_0008.png,C:\Users\subject\Desktop\SVRT Experiments\SVRT Experiment 3\svrt_images\generated_images\results_problem_22\sample_1_0007.png,,,,,,,,,,,,,,,,,,,,0,3,3,3,0,6,6,6,,,,,,,,,,,,,,f,22,A,A,1,1,Correct!,0.7326883000059752,799.7932382999934,None,799.7932382999934,None,800.543168199998,None,,,,,4,001,2023-04-26_12h54.52.623,uncolored_sorted,2021.2.3,60.05371203918034,
C:\Users\subject\Desktop\SVRT Experiments\SVRT Experiment 3\svrt_images\generated_images\results_problem_22,,,C:\Users\subject\Desktop\SVRT Experiments\SVRT Experiment 3\svrt_images\generated_images\results_problem_3\sample_1_0008.png,C:\Users\subject\Desktop\SVRT Experiments\SVRT Experiment 3\svrt_images\generated_images\results_problem_22\sample_1_0008.png,,,,,,,,,,,,,,,,,,,,0,3,3,3,0,7,7,7,,,,,,,,,,,,,,f,22,A,A,1,1,Correct!,0.5809233000036329,801.5931064999968,None,801.5931064999968,None,802.193076699994,None,,,,,4,001,2023-04-26_12h54.52.623,uncolored_sorted,2021.2.3,60.05371203918034,
C:\Users\subject\Desktop\SVRT Experiments\SVRT Experiment 3\svrt_images\generated_images\results_problem_22,,,C:\Users\subject\Desktop\SVRT Experiments\SVRT Experiment 3\svrt_images\generated_images\results_problem_3\sample_1_0008.png,C:\Users\subject\Desktop\SVRT Experiments\SVRT Experiment 3\svrt_images\generated_images\results_problem_22\sample_0_0004.png,,,,,,,,,,,,,,,,,,,,0,3,3,3,0,8,8,8,,,,,,,,,,,,,,j,22,B,B,1,1,Correct!,0.8190768999993452,803.2428503999981,None,803.2428503999981,None,804.0929546999978,None,,,,,4,001,2023-04-26_12h54.52.623,uncolored_sorted,2021.2.3,60.05371203918034,
C:\Users\subject\Desktop\SVRT Experiments\SVRT Experiment 3\svrt_images\generated_images\results_problem_22,,,C:\Users\subject\Desktop\SVRT Experiments\SVRT Experiment 3\svrt_images\generated_images\results_problem_3\sample_1_0008.png,C:\Users\subject\Desktop\SVRT Experiments\SVRT Experiment 3\svrt_images\generated_images\results_problem_22\sample_0_0005.png,,,,,,,,,,,,,,,,,,,,0,3,3,3,0,9,9,9,,,,,,,,,,,,,,,,,,,,,,,,,,,,805.0928956999996,805.0928956999996,space,0.6492510000025504,4,001,2023-04-26_12h54.52.623,uncolored_sorted,2021.2.3,60.05371203918034,
C:\Users\subject\Desktop\SVRT Experiments\SVRT Experiment 3\svrt_images\generated_images\results_problem_18,,,C:\Users\subject\Desktop\SVRT Experiments\SVRT Experiment 3\svrt_images\generated_images\results_problem_3\sample_1_0008.png,C:\Users\subject\Desktop\SVRT Experiments\SVRT Experiment 3\svrt_images\generated_images\results_problem_22\sample_0_0005.png,C:\Users\subject\Desktop\SVRT Experiments\SVRT Experiment 3\svrt_images\generated_images\results_problem_18\sample_1_0013.png,,,,,,,,,,,,,,,,,,,0,4,4,4,0,0,0,0,,,,,,,,,,,,,,f,18,A,A,1,1,Correct!,4.553818699998374,805.876201799998,None,805.876201799998,None,810.459514999995,None,,,,,4,001,2023-04-26_12h54.52.623,uncolored_sorted,2021.2.3,60.05371203918034,
C:\Users\subject\Desktop\SVRT Experiments\SVRT Experiment 3\svrt_images\generated_images\results_problem_18,,,C:\Users\subject\Desktop\SVRT Experiments\SVRT Experiment 3\svrt_images\generated_images\results_problem_3\sample_1_0008.png,C:\Users\subject\Desktop\SVRT Experiments\SVRT Experiment 3\svrt_images\generated_images\results_problem_22\sample_0_0005.png,C:\Users\subject\Desktop\SVRT Experiments\SVRT Experiment 3\svrt_images\generated_images\results_problem_18\sample_0_0011.png,,,,,,,,,,,,,,,,,,,0,4,4,4,0,1,1,1,,,,,,,,,,,,,,j,18,B,B,1,1,Correct!,1.3985462999989977,811.5594741999957,None,811.5594741999957,None,812.9760247999948,None,,,,,4,001,2023-04-26_12h54.52.623,uncolored_sorted,2021.2.3,60.05371203918034,
C:\Users\subject\Desktop\SVRT Experiments\SVRT Experiment 3\svrt_images\generated_images\results_problem_18,,,C:\Users\subject\Desktop\SVRT Experiments\SVRT Experiment 3\svrt_images\generated_images\results_problem_3\sample_1_0008.png,C:\Users\subject\Desktop\SVRT Experiments\SVRT Experiment 3\svrt_images\generated_images\results_problem_22\sample_0_0005.png,C:\Users\subject\Desktop\SVRT Experiments\SVRT Experiment 3\svrt_images\generated_images\results_problem_18\sample_0_0014.png,,,,,,,,,,,,,,,,,,,0,4,4,4,0,2,2,2,,,,,,,,,,,,,,j,18,B,B,1,1,Correct!,1.4920204000009107,814.0260233999943,None,814.0260233999943,None,815.5425829999949,None,,,,,4,001,2023-04-26_12h54.52.623,uncolored_sorted,2021.2.3,60.05371203918034,
C:\Users\subject\Desktop\SVRT Experiments\SVRT Experiment 3\svrt_images\generated_images\results_problem_18,,,C:\Users\subject\Desktop\SVRT Experiments\SVRT Experiment 3\svrt_images\generated_images\results_problem_3\sample_1_0008.png,C:\Users\subject\Desktop\SVRT Experiments\SVRT Experiment 3\svrt_images\generated_images\results_problem_22\sample_0_0005.png,C:\Users\subject\Desktop\SVRT Experiments\SVRT Experiment 3\svrt_images\generated_images\results_problem_18\sample_1_0001.png,,,,,,,,,,,,,,,,,,,0,4,4,4,0,3,3,3,,,,,,,,,,,,,,f,18,A,A,1,1,Correct!,1.1327017000003252,816.6092452999947,None,816.6092452999947,None,817.7588136999984,None,,,,,4,001,2023-04-26_12h54.52.623,uncolored_sorted,2021.2.3,60.05371203918034,
C:\Users\subject\Desktop\SVRT Experiments\SVRT Experiment 3\svrt_images\generated_images\results_problem_18,,,C:\Users\subject\Desktop\SVRT Experiments\SVRT Experiment 3\svrt_images\generated_images\results_problem_3\sample_1_0008.png,C:\Users\subject\Desktop\SVRT Experiments\SVRT Experiment 3\svrt_images\generated_images\results_problem_22\sample_0_0005.png,C:\Users\subject\Desktop\SVRT Experiments\SVRT Experiment 3\svrt_images\generated_images\results_problem_18\sample_1_0005.png,,,,,,,,,,,,,,,,,,,0,4,4,4,0,4,4,4,,,,,,,,,,,,,,f,18,A,A,1,1,Correct!,0.6127888000046369,818.8091290999946,None,818.8091290999946,None,819.4423944999944,None,,,,,4,001,2023-04-26_12h54.52.623,uncolored_sorted,2021.2.3,60.05371203918034,
C:\Users\subject\Desktop\SVRT Experiments\SVRT Experiment 3\svrt_images\generated_images\results_problem_18,,,C:\Users\subject\Desktop\SVRT Experiments\SVRT Experiment 3\svrt_images\generated_images\results_problem_3\sample_1_0008.png,C:\Users\subject\Desktop\SVRT Experiments\SVRT Experiment 3\svrt_images\generated_images\results_problem_22\sample_0_0005.png,C:\Users\subject\Desktop\SVRT Experiments\SVRT Experiment 3\svrt_images\generated_images\results_problem_18\sample_1_0009.png,,,,,,,,,,,,,,,,,,,0,4,4,4,0,5,5,5,,,,,,,,,,,,,,f,18,A,A,1,1,Correct!,1.0250849000003655,820.5089988999971,None,820.5089988999971,None,821.5585234999962,None,,,,,4,001,2023-04-26_12h54.52.623,uncolored_sorted,2021.2.3,60.05371203918034,
C:\Users\subject\Desktop\SVRT Experiments\SVRT Experiment 3\svrt_images\generated_images\results_problem_18,,,C:\Users\subject\Desktop\SVRT Experiments\SVRT Experiment 3\svrt_images\generated_images\results_problem_3\sample_1_0008.png,C:\Users\subject\Desktop\SVRT Experiments\SVRT Experiment 3\svrt_images\generated_images\results_problem_22\sample_0_0005.png,C:\Users\subject\Desktop\SVRT Experiments\SVRT Experiment 3\svrt_images\generated_images\results_problem_18\sample_0_0004.png,,,,,,,,,,,,,,,,,,,0,4,4,4,0,6,6,6,,,,,,,,,,,,,,j,18,B,B,1,1,Correct!,1.11712379999517,822.625129,None,822.625129,None,823.7750158999988,None,,,,,4,001,2023-04-26_12h54.52.623,uncolored_sorted,2021.2.3,60.05371203918034,
C:\Users\subject\Desktop\SVRT Experiments\SVRT Experiment 3\svrt_images\generated_images\results_problem_18,,,C:\Users\subject\Desktop\SVRT Experiments\SVRT Experiment 3\svrt_images\generated_images\results_problem_3\sample_1_0008.png,C:\Users\subject\Desktop\SVRT Experiments\SVRT Experiment 3\svrt_images\generated_images\results_problem_22\sample_0_0005.png,C:\Users\subject\Desktop\SVRT Experiments\SVRT Experiment 3\svrt_images\generated_images\results_problem_18\sample_1_0006.png,,,,,,,,,,,,,,,,,,,0,4,4,4,0,7,7,7,,,,,,,,,,,,,,,,,,,,,,,,,,,,824.7749672999998,824.7749672999998,space,0.6788967000029515,4,001,2023-04-26_12h54.52.623,uncolored_sorted,2021.2.3,60.05371203918034,
C:\Users\subject\Desktop\SVRT Experiments\SVRT Experiment 3\svrt_images\generated_images\results_problem_4,,,C:\Users\subject\Desktop\SVRT Experiments\SVRT Experiment 3\svrt_images\generated_images\results_problem_3\sample_1_0008.png,C:\Users\subject\Desktop\SVRT Experiments\SVRT Experiment 3\svrt_images\generated_images\results_problem_22\sample_0_0005.png,C:\Users\subject\Desktop\SVRT Experiments\SVRT Experiment 3\svrt_images\generated_images\results_problem_18\sample_1_0006.png,C:\Users\subject\Desktop\SVRT Experiments\SVRT Experiment 3\svrt_images\generated_images\results_problem_4\sample_1_0003.png,,,,,,,,,,,,,,,,,,0,5,5,5,0,0,0,0,,,,,,,,,,,,,,f,4,A,A,1,1,Correct!,2.8670309000008274,825.6588772999967,None,825.6588772999967,None,828.558265599997,None,,,,,4,001,2023-04-26_12h54.52.623,uncolored_sorted,2021.2.3,60.05371203918034,
C:\Users\subject\Desktop\SVRT Experiments\SVRT Experiment 3\svrt_images\generated_images\results_problem_4,,,C:\Users\subject\Desktop\SVRT Experiments\SVRT Experiment 3\svrt_images\generated_images\results_problem_3\sample_1_0008.png,C:\Users\subject\Desktop\SVRT Experiments\SVRT Experiment 3\svrt_images\generated_images\results_problem_22\sample_0_0005.png,C:\Users\subject\Desktop\SVRT Experiments\SVRT Experiment 3\svrt_images\generated_images\results_problem_18\sample_1_0006.png,C:\Users\subject\Desktop\SVRT Experiments\SVRT Experiment 3\svrt_images\generated_images\results_problem_4\sample_1_0009.png,,,,,,,,,,,,,,,,,,0,5,5,5,0,1,1,1,,,,,,,,,,,,,,f,4,A,A,1,1,Correct!,0.8966548000025796,829.7253483999957,None,829.7253483999957,None,830.6418242999935,None,,,,,4,001,2023-04-26_12h54.52.623,uncolored_sorted,2021.2.3,60.05371203918034,
C:\Users\subject\Desktop\SVRT Experiments\SVRT Experiment 3\svrt_images\generated_images\results_problem_4,,,C:\Users\subject\Desktop\SVRT Experiments\SVRT Experiment 3\svrt_images\generated_images\results_problem_3\sample_1_0008.png,C:\Users\subject\Desktop\SVRT Experiments\SVRT Experiment 3\svrt_images\generated_images\results_problem_22\sample_0_0005.png,C:\Users\subject\Desktop\SVRT Experiments\SVRT Experiment 3\svrt_images\generated_images\results_problem_18\sample_1_0006.png,C:\Users\subject\Desktop\SVRT Experiments\SVRT Experiment 3\svrt_images\generated_images\results_problem_4\sample_0_0005.png,,,,,,,,,,,,,,,,,,0,5,5,5,0,2,2,2,,,,,,,,,,,,,,j,4,B,B,1,1,Correct!,0.7843246999982512,831.7417870999998,None,831.7417870999998,None,832.5583816999933,None,,,,,4,001,2023-04-26_12h54.52.623,uncolored_sorted,2021.2.3,60.05371203918034,
C:\Users\subject\Desktop\SVRT Experiments\SVRT Experiment 3\svrt_images\generated_images\results_problem_4,,,C:\Users\subject\Desktop\SVRT Experiments\SVRT Experiment 3\svrt_images\generated_images\results_problem_3\sample_1_0008.png,C:\Users\subject\Desktop\SVRT Experiments\SVRT Experiment 3\svrt_images\generated_images\results_problem_22\sample_0_0005.png,C:\Users\subject\Desktop\SVRT Experiments\SVRT Experiment 3\svrt_images\generated_images\results_problem_18\sample_1_0006.png,C:\Users\subject\Desktop\SVRT Experiments\SVRT Experiment 3\svrt_images\generated_images\results_problem_4\sample_0_0015.png,,,,,,,,,,,,,,,,,,0,5,5,5,0,3,3,3,,,,,,,,,,,,,,j,4,B,B,1,1,Correct!,0.558933899999829,833.7430241999973,None,833.7430241999973,None,834.3249127999952,None,,,,,4,001,2023-04-26_12h54.52.623,uncolored_sorted,2021.2.3,60.05371203918034,
C:\Users\subject\Desktop\SVRT Experiments\SVRT Experiment 3\svrt_images\generated_images\results_problem_4,,,C:\Users\subject\Desktop\SVRT Experiments\SVRT Experiment 3\svrt_images\generated_images\results_problem_3\sample_1_0008.png,C:\Users\subject\Desktop\SVRT Experiments\SVRT Experiment 3\svrt_images\generated_images\results_problem_22\sample_0_0005.png,C:\Users\subject\Desktop\SVRT Experiments\SVRT Experiment 3\svrt_images\generated_images\results_problem_18\sample_1_0006.png,C:\Users\subject\Desktop\SVRT Experiments\SVRT Experiment 3\svrt_images\generated_images\results_problem_4\sample_0_0009.png,,,,,,,,,,,,,,,,,,0,5,5,5,0,4,4,4,,,,,,,,,,,,,,j,4,B,B,1,1,Correct!,0.7018632999970578,835.4081673999972,None,835.4081673999972,None,836.1413976999975,None,,,,,4,001,2023-04-26_12h54.52.623,uncolored_sorted,2021.2.3,60.05371203918034,
C:\Users\subject\Desktop\SVRT Experiments\SVRT Experiment 3\svrt_images\generated_images\results_problem_4,,,C:\Users\subject\Desktop\SVRT Experiments\SVRT Experiment 3\svrt_images\generated_images\results_problem_3\sample_1_0008.png,C:\Users\subject\Desktop\SVRT Experiments\SVRT Experiment 3\svrt_images\generated_images\results_problem_22\sample_0_0005.png,C:\Users\subject\Desktop\SVRT Experiments\SVRT Experiment 3\svrt_images\generated_images\results_problem_18\sample_1_0006.png,C:\Users\subject\Desktop\SVRT Experiments\SVRT Experiment 3\svrt_images\generated_images\results_problem_4\sample_0_0007.png,,,,,,,,,,,,,,,,,,0,5,5,5,0,5,5,5,,,,,,,,,,,,,,j,4,B,B,1,1,Correct!,0.8649173999947379,837.3411901,None,837.3411901,None,838.2245083999951,None,,,,,4,001,2023-04-26_12h54.52.623,uncolored_sorted,2021.2.3,60.05371203918034,
C:\Users\subject\Desktop\SVRT Experiments\SVRT Experiment 3\svrt_images\generated_images\results_problem_4,,,C:\Users\subject\Desktop\SVRT Experiments\SVRT Experiment 3\svrt_images\generated_images\results_problem_3\sample_1_0008.png,C:\Users\subject\Desktop\SVRT Experiments\SVRT Experiment 3\svrt_images\generated_images\results_problem_22\sample_0_0005.png,C:\Users\subject\Desktop\SVRT Experiments\SVRT Experiment 3\svrt_images\generated_images\results_problem_18\sample_1_0006.png,C:\Users\subject\Desktop\SVRT Experiments\SVRT Experiment 3\svrt_images\generated_images\results_problem_4\sample_1_0014.png,,,,,,,,,,,,,,,,,,0,5,5,5,0,6,6,6,,,,,,,,,,,,,,f,4,A,A,1,1,Correct!,0.8639878999965731,839.3741693999982,None,839.3741693999982,None,840.257437799999,None,,,,,4,001,2023-04-26_12h54.52.623,uncolored_sorted,2021.2.3,60.05371203918034,
C:\Users\subject\Desktop\SVRT Experiments\SVRT Experiment 3\svrt_images\generated_images\results_problem_4,,,C:\Users\subject\Desktop\SVRT Experiments\SVRT Experiment 3\svrt_images\generated_images\results_problem_3\sample_1_0008.png,C:\Users\subject\Desktop\SVRT Experiments\SVRT Experiment 3\svrt_images\generated_images\results_problem_22\sample_0_0005.png,C:\Users\subject\Desktop\SVRT Experiments\SVRT Experiment 3\svrt_images\generated_images\results_problem_18\sample_1_0006.png,C:\Users\subject\Desktop\SVRT Experiments\SVRT Experiment 3\svrt_images\generated_images\results_problem_4\sample_0_0006.png,,,,,,,,,,,,,,,,,,0,5,5,5,0,7,7,7,,,,,,,,,,,,,,,,,,,,,,,,,,,,841.2573178999955,841.2573178999955,space,1.0926461999988533,4,001,2023-04-26_12h54.52.623,uncolored_sorted,2021.2.3,60.05371203918034,
C:\Users\subject\Desktop\SVRT Experiments\SVRT Experiment 3\svrt_images\generated_images\results_problem_11,,,C:\Users\subject\Desktop\SVRT Experiments\SVRT Experiment 3\svrt_images\generated_images\results_problem_3\sample_1_0008.png,C:\Users\subject\Desktop\SVRT Experiments\SVRT Experiment 3\svrt_images\generated_images\results_problem_22\sample_0_0005.png,C:\Users\subject\Desktop\SVRT Experiments\SVRT Experiment 3\svrt_images\generated_images\results_problem_18\sample_1_0006.png,C:\Users\subject\Desktop\SVRT Experiments\SVRT Experiment 3\svrt_images\generated_images\results_problem_4\sample_0_0006.png,C:\Users\subject\Desktop\SVRT Experiments\SVRT Experiment 3\svrt_images\generated_images\results_problem_11\sample_0_0010.png,,,,,,,,,,,,,,,,,0,6,6,6,0,0,0,0,,,,,,,,,,,,,,f,11,A,B,1,0,Incorrect!,3.124819099997694,842.4572419999968,None,842.4572419999968,None,845.6073558999997,None,,,,,4,001,2023-04-26_12h54.52.623,uncolored_sorted,2021.2.3,60.05371203918034,
C:\Users\subject\Desktop\SVRT Experiments\SVRT Experiment 3\svrt_images\generated_images\results_problem_11,,,C:\Users\subject\Desktop\SVRT Experiments\SVRT Experiment 3\svrt_images\generated_images\results_problem_3\sample_1_0008.png,C:\Users\subject\Desktop\SVRT Experiments\SVRT Experiment 3\svrt_images\generated_images\results_problem_22\sample_0_0005.png,C:\Users\subject\Desktop\SVRT Experiments\SVRT Experiment 3\svrt_images\generated_images\results_problem_18\sample_1_0006.png,C:\Users\subject\Desktop\SVRT Experiments\SVRT Experiment 3\svrt_images\generated_images\results_problem_4\sample_0_0006.png,C:\Users\subject\Desktop\SVRT Experiments\SVRT Experiment 3\svrt_images\generated_images\results_problem_11\sample_0_0006.png,,,,,,,,,,,,,,,,,0,6,6,6,0,1,1,1,,,,,,,,,,,,,,j,11,B,B,1,1,Correct!,2.121476899999834,846.7406461999999,None,846.7406461999999,None,848.8904956999977,None,,,,,4,001,2023-04-26_12h54.52.623,uncolored_sorted,2021.2.3,60.05371203918034,
C:\Users\subject\Desktop\SVRT Experiments\SVRT Experiment 3\svrt_images\generated_images\results_problem_11,,,C:\Users\subject\Desktop\SVRT Experiments\SVRT Experiment 3\svrt_images\generated_images\results_problem_3\sample_1_0008.png,C:\Users\subject\Desktop\SVRT Experiments\SVRT Experiment 3\svrt_images\generated_images\results_problem_22\sample_0_0005.png,C:\Users\subject\Desktop\SVRT Experiments\SVRT Experiment 3\svrt_images\generated_images\results_problem_18\sample_1_0006.png,C:\Users\subject\Desktop\SVRT Experiments\SVRT Experiment 3\svrt_images\generated_images\results_problem_4\sample_0_0006.png,C:\Users\subject\Desktop\SVRT Experiments\SVRT Experiment 3\svrt_images\generated_images\results_problem_11\sample_0_0009.png,,,,,,,,,,,,,,,,,0,6,6,6,0,2,2,2,,,,,,,,,,,,,,f,11,A,B,1,0,Incorrect!,0.9663180999996257,850.0238713999934,None,850.0238713999934,None,851.0070301999949,None,,,,,4,001,2023-04-26_12h54.52.623,uncolored_sorted,2021.2.3,60.05371203918034,
C:\Users\subject\Desktop\SVRT Experiments\SVRT Experiment 3\svrt_images\generated_images\results_problem_11,,,C:\Users\subject\Desktop\SVRT Experiments\SVRT Experiment 3\svrt_images\generated_images\results_problem_3\sample_1_0008.png,C:\Users\subject\Desktop\SVRT Experiments\SVRT Experiment 3\svrt_images\generated_images\results_problem_22\sample_0_0005.png,C:\Users\subject\Desktop\SVRT Experiments\SVRT Experiment 3\svrt_images\generated_images\results_problem_18\sample_1_0006.png,C:\Users\subject\Desktop\SVRT Experiments\SVRT Experiment 3\svrt_images\generated_images\results_problem_4\sample_0_0006.png,C:\Users\subject\Desktop\SVRT Experiments\SVRT Experiment 3\svrt_images\generated_images\results_problem_11\sample_1_0010.png,,,,,,,,,,,,,,,,,0,6,6,6,0,3,3,3,,,,,,,,,,,,,,f,11,A,A,1,1,Correct!,0.8664425000024494,852.1234714999955,None,852.1234714999955,None,853.0069024999975,None,,,,,4,001,2023-04-26_12h54.52.623,uncolored_sorted,2021.2.3,60.05371203918034,
C:\Users\subject\Desktop\SVRT Experiments\SVRT Experiment 3\svrt_images\generated_images\results_problem_11,,,C:\Users\subject\Desktop\SVRT Experiments\SVRT Experiment 3\svrt_images\generated_images\results_problem_3\sample_1_0008.png,C:\Users\subject\Desktop\SVRT Experiments\SVRT Experiment 3\svrt_images\generated_images\results_problem_22\sample_0_0005.png,C:\Users\subject\Desktop\SVRT Experiments\SVRT Experiment 3\svrt_images\generated_images\results_problem_18\sample_1_0006.png,C:\Users\subject\Desktop\SVRT Experiments\SVRT Experiment 3\svrt_images\generated_images\results_problem_4\sample_0_0006.png,C:\Users\subject\Desktop\SVRT Experiments\SVRT Experiment 3\svrt_images\generated_images\results_problem_11\sample_0_0014.png,,,,,,,,,,,,,,,,,0,6,6,6,0,4,4,4,,,,,,,,,,,,,,j,11,B,B,1,1,Correct!,0.6726510000007693,854.1734986999945,None,854.1734986999945,None,854.873517999993,None,,,,,4,001,2023-04-26_12h54.52.623,uncolored_sorted,2021.2.3,60.05371203918034,
C:\Users\subject\Desktop\SVRT Experiments\SVRT Experiment 3\svrt_images\generated_images\results_problem_11,,,C:\Users\subject\Desktop\SVRT Experiments\SVRT Experiment 3\svrt_images\generated_images\results_problem_3\sample_1_0008.png,C:\Users\subject\Desktop\SVRT Experiments\SVRT Experiment 3\svrt_images\generated_images\results_problem_22\sample_0_0005.png,C:\Users\subject\Desktop\SVRT Experiments\SVRT Experiment 3\svrt_images\generated_images\results_problem_18\sample_1_0006.png,C:\Users\subject\Desktop\SVRT Experiments\SVRT Experiment 3\svrt_images\generated_images\results_problem_4\sample_0_0006.png,C:\Users\subject\Desktop\SVRT Experiments\SVRT Experiment 3\svrt_images\generated_images\results_problem_11\sample_1_0004.png,,,,,,,,,,,,,,,,,0,6,6,6,0,5,5,5,,,,,,,,,,,,,,f,11,A,A,1,1,Correct!,0.7460761000038474,855.9400760999997,None,855.9400760999997,None,856.7067053999999,None,,,,,4,001,2023-04-26_12h54.52.623,uncolored_sorted,2021.2.3,60.05371203918034,
C:\Users\subject\Desktop\SVRT Experiments\SVRT Experiment 3\svrt_images\generated_images\results_problem_11,,,C:\Users\subject\Desktop\SVRT Experiments\SVRT Experiment 3\svrt_images\generated_images\results_problem_3\sample_1_0008.png,C:\Users\subject\Desktop\SVRT Experiments\SVRT Experiment 3\svrt_images\generated_images\results_problem_22\sample_0_0005.png,C:\Users\subject\Desktop\SVRT Experiments\SVRT Experiment 3\svrt_images\generated_images\results_problem_18\sample_1_0006.png,C:\Users\subject\Desktop\SVRT Experiments\SVRT Experiment 3\svrt_images\generated_images\results_problem_4\sample_0_0006.png,C:\Users\subject\Desktop\SVRT Experiments\SVRT Experiment 3\svrt_images\generated_images\results_problem_11\sample_0_0008.png,,,,,,,,,,,,,,,,,0,6,6,6,0,6,6,6,,,,,,,,,,,,,,j,11,B,B,1,1,Correct!,0.623285699999542,857.8066443999996,None,857.8066443999996,None,858.4565431999945,None,,,,,4,001,2023-04-26_12h54.52.623,uncolored_sorted,2021.2.3,60.05371203918034,
C:\Users\subject\Desktop\SVRT Experiments\SVRT Experiment 3\svrt_images\generated_images\results_problem_11,,,C:\Users\subject\Desktop\SVRT Experiments\SVRT Experiment 3\svrt_images\generated_images\results_problem_3\sample_1_0008.png,C:\Users\subject\Desktop\SVRT Experiments\SVRT Experiment 3\svrt_images\generated_images\results_problem_22\sample_0_0005.png,C:\Users\subject\Desktop\SVRT Experiments\SVRT Experiment 3\svrt_images\generated_images\results_problem_18\sample_1_0006.png,C:\Users\subject\Desktop\SVRT Experiments\SVRT Experiment 3\svrt_images\generated_images\results_problem_4\sample_0_0006.png,C:\Users\subject\Desktop\SVRT Experiments\SVRT Experiment 3\svrt_images\generated_images\results_problem_11\sample_1_0008.png,,,,,,,,,,,,,,,,,0,6,6,6,0,7,7,7,,,,,,,,,,,,,,f,11,A,A,1,1,Correct!,0.7142228000011528,859.5398185999948,None,859.5398185999948,None,860.2730378999986,None,,,,,4,001,2023-04-26_12h54.52.623,uncolored_sorted,2021.2.3,60.05371203918034,
C:\Users\subject\Desktop\SVRT Experiments\SVRT Experiment 3\svrt_images\generated_images\results_problem_11,,,C:\Users\subject\Desktop\SVRT Experiments\SVRT Experiment 3\svrt_images\generated_images\results_problem_3\sample_1_0008.png,C:\Users\subject\Desktop\SVRT Experiments\SVRT Experiment 3\svrt_images\generated_images\results_problem_22\sample_0_0005.png,C:\Users\subject\Desktop\SVRT Experiments\SVRT Experiment 3\svrt_images\generated_images\results_problem_18\sample_1_0006.png,C:\Users\subject\Desktop\SVRT Experiments\SVRT Experiment 3\svrt_images\generated_images\results_problem_4\sample_0_0006.png,C:\Users\subject\Desktop\SVRT Experiments\SVRT Experiment 3\svrt_images\generated_images\results_problem_11\sample_0_0004.png,,,,,,,,,,,,,,,,,0,6,6,6,0,8,8,8,,,,,,,,,,,,,,j,11,B,B,1,1,Correct!,0.641321600000083,861.3727411,None,861.3727411,None,862.0392941999962,None,,,,,4,001,2023-04-26_12h54.52.623,uncolored_sorted,2021.2.3,60.05371203918034,
C:\Users\subject\Desktop\SVRT Experiments\SVRT Experiment 3\svrt_images\generated_images\results_problem_11,,,C:\Users\subject\Desktop\SVRT Experiments\SVRT Experiment 3\svrt_images\generated_images\results_problem_3\sample_1_0008.png,C:\Users\subject\Desktop\SVRT Experiments\SVRT Experiment 3\svrt_images\generated_images\results_problem_22\sample_0_0005.png,C:\Users\subject\Desktop\SVRT Experiments\SVRT Experiment 3\svrt_images\generated_images\results_problem_18\sample_1_0006.png,C:\Users\subject\Desktop\SVRT Experiments\SVRT Experiment 3\svrt_images\generated_images\results_problem_4\sample_0_0006.png,C:\Users\subject\Desktop\SVRT Experiments\SVRT Experiment 3\svrt_images\generated_images\results_problem_11\sample_0_0012.png,,,,,,,,,,,,,,,,,0,6,6,6,0,9,9,9,,,,,,,,,,,,,,j,11,B,B,1,1,Correct!,0.6771866999988561,863.2727416999987,None,863.2727416999987,None,863.9726687999937,None,,,,,4,001,2023-04-26_12h54.52.623,uncolored_sorted,2021.2.3,60.05371203918034,
C:\Users\subject\Desktop\SVRT Experiments\SVRT Experiment 3\svrt_images\generated_images\results_problem_11,,,C:\Users\subject\Desktop\SVRT Experiments\SVRT Experiment 3\svrt_images\generated_images\results_problem_3\sample_1_0008.png,C:\Users\subject\Desktop\SVRT Experiments\SVRT Experiment 3\svrt_images\generated_images\results_problem_22\sample_0_0005.png,C:\Users\subject\Desktop\SVRT Experiments\SVRT Experiment 3\svrt_images\generated_images\results_problem_18\sample_1_0006.png,C:\Users\subject\Desktop\SVRT Experiments\SVRT Experiment 3\svrt_images\generated_images\results_problem_4\sample_0_0006.png,C:\Users\subject\Desktop\SVRT Experiments\SVRT Experiment 3\svrt_images\generated_images\results_problem_11\sample_1_0015.png,,,,,,,,,,,,,,,,,0,6,6,6,0,10,10,10,,,,,,,,,,,,,,,,,,,,,,,,,,,,864.9726104000001,864.9726104000001,space,0.7535514999981388,4,001,2023-04-26_12h54.52.623,uncolored_sorted,2021.2.3,60.05371203918034,
C:\Users\subject\Desktop\SVRT Experiments\SVRT Experiment 3\svrt_images\generated_images\results_problem_14,,,C:\Users\subject\Desktop\SVRT Experiments\SVRT Experiment 3\svrt_images\generated_images\results_problem_3\sample_1_0008.png,C:\Users\subject\Desktop\SVRT Experiments\SVRT Experiment 3\svrt_images\generated_images\results_problem_22\sample_0_0005.png,C:\Users\subject\Desktop\SVRT Experiments\SVRT Experiment 3\svrt_images\generated_images\results_problem_18\sample_1_0006.png,C:\Users\subject\Desktop\SVRT Experiments\SVRT Experiment 3\svrt_images\generated_images\results_problem_4\sample_0_0006.png,C:\Users\subject\Desktop\SVRT Experiments\SVRT Experiment 3\svrt_images\generated_images\results_problem_11\sample_1_0015.png,C:\Users\subject\Desktop\SVRT Experiments\SVRT Experiment 3\svrt_images\generated_images\results_problem_14\sample_1_0014.png,,,,,,,,,,,,,,,,0,7,7,7,0,0,0,0,,,,,,,,,,,,,,f,14,A,A,1,1,Correct!,1.007100900002115,866.2231369999936,None,866.2231369999936,None,867.2563209,None,,,,,4,001,2023-04-26_12h54.52.623,uncolored_sorted,2021.2.3,60.05371203918034,
C:\Users\subject\Desktop\SVRT Experiments\SVRT Experiment 3\svrt_images\generated_images\results_problem_14,,,C:\Users\subject\Desktop\SVRT Experiments\SVRT Experiment 3\svrt_images\generated_images\results_problem_3\sample_1_0008.png,C:\Users\subject\Desktop\SVRT Experiments\SVRT Experiment 3\svrt_images\generated_images\results_problem_22\sample_0_0005.png,C:\Users\subject\Desktop\SVRT Experiments\SVRT Experiment 3\svrt_images\generated_images\results_problem_18\sample_1_0006.png,C:\Users\subject\Desktop\SVRT Experiments\SVRT Experiment 3\svrt_images\generated_images\results_problem_4\sample_0_0006.png,C:\Users\subject\Desktop\SVRT Experiments\SVRT Experiment 3\svrt_images\generated_images\results_problem_11\sample_1_0015.png,C:\Users\subject\Desktop\SVRT Experiments\SVRT Experiment 3\svrt_images\generated_images\results_problem_14\sample_0_0010.png,,,,,,,,,,,,,,,,0,7,7,7,0,1,1,1,,,,,,,,,,,,,,j,14,B,B,1,1,Correct!,1.3454608999963966,868.5564748999968,None,868.5564748999968,None,869.9223973999979,None,,,,,4,001,2023-04-26_12h54.52.623,uncolored_sorted,2021.2.3,60.05371203918034,
C:\Users\subject\Desktop\SVRT Experiments\SVRT Experiment 3\svrt_images\generated_images\results_problem_14,,,C:\Users\subject\Desktop\SVRT Experiments\SVRT Experiment 3\svrt_images\generated_images\results_problem_3\sample_1_0008.png,C:\Users\subject\Desktop\SVRT Experiments\SVRT Experiment 3\svrt_images\generated_images\results_problem_22\sample_0_0005.png,C:\Users\subject\Desktop\SVRT Experiments\SVRT Experiment 3\svrt_images\generated_images\results_problem_18\sample_1_0006.png,C:\Users\subject\Desktop\SVRT Experiments\SVRT Experiment 3\svrt_images\generated_images\results_problem_4\sample_0_0006.png,C:\Users\subject\Desktop\SVRT Experiments\SVRT Experiment 3\svrt_images\generated_images\results_problem_11\sample_1_0015.png,C:\Users\subject\Desktop\SVRT Experiments\SVRT Experiment 3\svrt_images\generated_images\results_problem_14\sample_0_0000.png,,,,,,,,,,,,,,,,0,7,7,7,0,2,2,2,,,,,,,,,,,,,,j,14,B,B,1,1,Correct!,0.9096107000004849,871.0723535999932,None,871.0723535999932,None,872.0059869999968,None,,,,,4,001,2023-04-26_12h54.52.623,uncolored_sorted,2021.2.3,60.05371203918034,
C:\Users\subject\Desktop\SVRT Experiments\SVRT Experiment 3\svrt_images\generated_images\results_problem_14,,,C:\Users\subject\Desktop\SVRT Experiments\SVRT Experiment 3\svrt_images\generated_images\results_problem_3\sample_1_0008.png,C:\Users\subject\Desktop\SVRT Experiments\SVRT Experiment 3\svrt_images\generated_images\results_problem_22\sample_0_0005.png,C:\Users\subject\Desktop\SVRT Experiments\SVRT Experiment 3\svrt_images\generated_images\results_problem_18\sample_1_0006.png,C:\Users\subject\Desktop\SVRT Experiments\SVRT Experiment 3\svrt_images\generated_images\results_problem_4\sample_0_0006.png,C:\Users\subject\Desktop\SVRT Experiments\SVRT Experiment 3\svrt_images\generated_images\results_problem_11\sample_1_0015.png,C:\Users\subject\Desktop\SVRT Experiments\SVRT Experiment 3\svrt_images\generated_images\results_problem_14\sample_0_0001.png,,,,,,,,,,,,,,,,0,7,7,7,0,3,3,3,,,,,,,,,,,,,,j,14,B,B,1,1,Correct!,1.4360630000010133,873.1059397999998,None,873.1059397999998,None,874.5721172999984,None,,,,,4,001,2023-04-26_12h54.52.623,uncolored_sorted,2021.2.3,60.05371203918034,
C:\Users\subject\Desktop\SVRT Experiments\SVRT Experiment 3\svrt_images\generated_images\results_problem_14,,,C:\Users\subject\Desktop\SVRT Experiments\SVRT Experiment 3\svrt_images\generated_images\results_problem_3\sample_1_0008.png,C:\Users\subject\Desktop\SVRT Experiments\SVRT Experiment 3\svrt_images\generated_images\results_problem_22\sample_0_0005.png,C:\Users\subject\Desktop\SVRT Experiments\SVRT Experiment 3\svrt_images\generated_images\results_problem_18\sample_1_0006.png,C:\Users\subject\Desktop\SVRT Experiments\SVRT Experiment 3\svrt_images\generated_images\results_problem_4\sample_0_0006.png,C:\Users\subject\Desktop\SVRT Experiments\SVRT Experiment 3\svrt_images\generated_images\results_problem_11\sample_1_0015.png,C:\Users\subject\Desktop\SVRT Experiments\SVRT Experiment 3\svrt_images\generated_images\results_problem_14\sample_1_0002.png,,,,,,,,,,,,,,,,0,7,7,7,0,4,4,4,,,,,,,,,,,,,,f,14,A,A,1,1,Correct!,0.7120454000032623,875.6220232999985,None,875.6220232999985,None,876.3553336999976,None,,,,,4,001,2023-04-26_12h54.52.623,uncolored_sorted,2021.2.3,60.05371203918034,
C:\Users\subject\Desktop\SVRT Experiments\SVRT Experiment 3\svrt_images\generated_images\results_problem_14,,,C:\Users\subject\Desktop\SVRT Experiments\SVRT Experiment 3\svrt_images\generated_images\results_problem_3\sample_1_0008.png,C:\Users\subject\Desktop\SVRT Experiments\SVRT Experiment 3\svrt_images\generated_images\results_problem_22\sample_0_0005.png,C:\Users\subject\Desktop\SVRT Experiments\SVRT Experiment 3\svrt_images\generated_images\results_problem_18\sample_1_0006.png,C:\Users\subject\Desktop\SVRT Experiments\SVRT Experiment 3\svrt_images\generated_images\results_problem_4\sample_0_0006.png,C:\Users\subject\Desktop\SVRT Experiments\SVRT Experiment 3\svrt_images\generated_images\results_problem_11\sample_1_0015.png,C:\Users\subject\Desktop\SVRT Experiments\SVRT Experiment 3\svrt_images\generated_images\results_problem_14\sample_0_0007.png,,,,,,,,,,,,,,,,0,7,7,7,0,5,5,5,,,,,,,,,,,,,,j,14,B,B,1,1,Correct!,0.6549803999951109,877.423103999994,None,877.423103999994,None,878.1054745000001,None,,,,,4,001,2023-04-26_12h54.52.623,uncolored_sorted,2021.2.3,60.05371203918034,
C:\Users\subject\Desktop\SVRT Experiments\SVRT Experiment 3\svrt_images\generated_images\results_problem_14,,,C:\Users\subject\Desktop\SVRT Experiments\SVRT Experiment 3\svrt_images\generated_images\results_problem_3\sample_1_0008.png,C:\Users\subject\Desktop\SVRT Experiments\SVRT Experiment 3\svrt_images\generated_images\results_problem_22\sample_0_0005.png,C:\Users\subject\Desktop\SVRT Experiments\SVRT Experiment 3\svrt_images\generated_images\results_problem_18\sample_1_0006.png,C:\Users\subject\Desktop\SVRT Experiments\SVRT Experiment 3\svrt_images\generated_images\results_problem_4\sample_0_0006.png,C:\Users\subject\Desktop\SVRT Experiments\SVRT Experiment 3\svrt_images\generated_images\results_problem_11\sample_1_0015.png,C:\Users\subject\Desktop\SVRT Experiments\SVRT Experiment 3\svrt_images\generated_images\results_problem_14\sample_0_0013.png,,,,,,,,,,,,,,,,0,7,7,7,0,6,6,6,,,,,,,,,,,,,,j,14,B,B,1,1,Correct!,1.3694292999934987,879.1887417999969,None,879.1887417999969,None,880.5882430999991,None,,,,,4,001,2023-04-26_12h54.52.623,uncolored_sorted,2021.2.3,60.05371203918034,
C:\Users\subject\Desktop\SVRT Experiments\SVRT Experiment 3\svrt_images\generated_images\results_problem_14,,,C:\Users\subject\Desktop\SVRT Experiments\SVRT Experiment 3\svrt_images\generated_images\results_problem_3\sample_1_0008.png,C:\Users\subject\Desktop\SVRT Experiments\SVRT Experiment 3\svrt_images\generated_images\results_problem_22\sample_0_0005.png,C:\Users\subject\Desktop\SVRT Experiments\SVRT Experiment 3\svrt_images\generated_images\results_problem_18\sample_1_0006.png,C:\Users\subject\Desktop\SVRT Experiments\SVRT Experiment 3\svrt_images\generated_images\results_problem_4\sample_0_0006.png,C:\Users\subject\Desktop\SVRT Experiments\SVRT Experiment 3\svrt_images\generated_images\results_problem_11\sample_1_0015.png,C:\Users\subject\Desktop\SVRT Experiments\SVRT Experiment 3\svrt_images\generated_images\results_problem_14\sample_1_0004.png,,,,,,,,,,,,,,,,0,7,7,7,0,7,7,7,,,,,,,,,,,,,,,,,,,,,,,,,,,,881.5881913999983,881.5881913999983,space,0.6817994000011822,4,001,2023-04-26_12h54.52.623,uncolored_sorted,2021.2.3,60.05371203918034,
C:\Users\subject\Desktop\SVRT Experiments\SVRT Experiment 3\svrt_images\generated_images\results_problem_10,,,C:\Users\subject\Desktop\SVRT Experiments\SVRT Experiment 3\svrt_images\generated_images\results_problem_3\sample_1_0008.png,C:\Users\subject\Desktop\SVRT Experiments\SVRT Experiment 3\svrt_images\generated_images\results_problem_22\sample_0_0005.png,C:\Users\subject\Desktop\SVRT Experiments\SVRT Experiment 3\svrt_images\generated_images\results_problem_18\sample_1_0006.png,C:\Users\subject\Desktop\SVRT Experiments\SVRT Experiment 3\svrt_images\generated_images\results_problem_4\sample_0_0006.png,C:\Users\subject\Desktop\SVRT Experiments\SVRT Experiment 3\svrt_images\generated_images\results_problem_11\sample_1_0015.png,C:\Users\subject\Desktop\SVRT Experiments\SVRT Experiment 3\svrt_images\generated_images\results_problem_14\sample_1_0004.png,C:\Users\subject\Desktop\SVRT Experiments\SVRT Experiment 3\svrt_images\generated_images\results_problem_10\sample_0_0009.png,,,,,,,,,,,,,,,0,8,8,8,0,0,0,0,,,,,,,,,,,,,,f,10,A,B,1,0,Incorrect!,1.1178870000003371,882.6722090999974,None,882.6722090999974,None,883.821978699998,None,,,,,4,001,2023-04-26_12h54.52.623,uncolored_sorted,2021.2.3,60.05371203918034,
C:\Users\subject\Desktop\SVRT Experiments\SVRT Experiment 3\svrt_images\generated_images\results_problem_10,,,C:\Users\subject\Desktop\SVRT Experiments\SVRT Experiment 3\svrt_images\generated_images\results_problem_3\sample_1_0008.png,C:\Users\subject\Desktop\SVRT Experiments\SVRT Experiment 3\svrt_images\generated_images\results_problem_22\sample_0_0005.png,C:\Users\subject\Desktop\SVRT Experiments\SVRT Experiment 3\svrt_images\generated_images\results_problem_18\sample_1_0006.png,C:\Users\subject\Desktop\SVRT Experiments\SVRT Experiment 3\svrt_images\generated_images\results_problem_4\sample_0_0006.png,C:\Users\subject\Desktop\SVRT Experiments\SVRT Experiment 3\svrt_images\generated_images\results_problem_11\sample_1_0015.png,C:\Users\subject\Desktop\SVRT Experiments\SVRT Experiment 3\svrt_images\generated_images\results_problem_14\sample_1_0004.png,C:\Users\subject\Desktop\SVRT Experiments\SVRT Experiment 3\svrt_images\generated_images\results_problem_10\sample_0_0006.png,,,,,,,,,,,,,,,0,8,8,8,0,1,1,1,,,,,,,,,,,,,,j,10,B,B,1,1,Correct!,1.0933825999964029,884.8885586999968,None,884.8885586999968,None,886.0050981999957,None,,,,,4,001,2023-04-26_12h54.52.623,uncolored_sorted,2021.2.3,60.05371203918034,
C:\Users\subject\Desktop\SVRT Experiments\SVRT Experiment 3\svrt_images\generated_images\results_problem_10,,,C:\Users\subject\Desktop\SVRT Experiments\SVRT Experiment 3\svrt_images\generated_images\results_problem_3\sample_1_0008.png,C:\Users\subject\Desktop\SVRT Experiments\SVRT Experiment 3\svrt_images\generated_images\results_problem_22\sample_0_0005.png,C:\Users\subject\Desktop\SVRT Experiments\SVRT Experiment 3\svrt_images\generated_images\results_problem_18\sample_1_0006.png,C:\Users\subject\Desktop\SVRT Experiments\SVRT Experiment 3\svrt_images\generated_images\results_problem_4\sample_0_0006.png,C:\Users\subject\Desktop\SVRT Experiments\SVRT Experiment 3\svrt_images\generated_images\results_problem_11\sample_1_0015.png,C:\Users\subject\Desktop\SVRT Experiments\SVRT Experiment 3\svrt_images\generated_images\results_problem_14\sample_1_0004.png,C:\Users\subject\Desktop\SVRT Experiments\SVRT Experiment 3\svrt_images\generated_images\results_problem_10\sample_0_0004.png,,,,,,,,,,,,,,,0,8,8,8,0,2,2,2,,,,,,,,,,,,,,j,10,B,B,1,1,Correct!,1.8874489000008907,887.0384340999954,None,887.0384340999954,None,888.9545336999945,None,,,,,4,001,2023-04-26_12h54.52.623,uncolored_sorted,2021.2.3,60.05371203918034,
C:\Users\subject\Desktop\SVRT Experiments\SVRT Experiment 3\svrt_images\generated_images\results_problem_10,,,C:\Users\subject\Desktop\SVRT Experiments\SVRT Experiment 3\svrt_images\generated_images\results_problem_3\sample_1_0008.png,C:\Users\subject\Desktop\SVRT Experiments\SVRT Experiment 3\svrt_images\generated_images\results_problem_22\sample_0_0005.png,C:\Users\subject\Desktop\SVRT Experiments\SVRT Experiment 3\svrt_images\generated_images\results_problem_18\sample_1_0006.png,C:\Users\subject\Desktop\SVRT Experiments\SVRT Experiment 3\svrt_images\generated_images\results_problem_4\sample_0_0006.png,C:\Users\subject\Desktop\SVRT Experiments\SVRT Experiment 3\svrt_images\generated_images\results_problem_11\sample_1_0015.png,C:\Users\subject\Desktop\SVRT Experiments\SVRT Experiment 3\svrt_images\generated_images\results_problem_14\sample_1_0004.png,C:\Users\subject\Desktop\SVRT Experiments\SVRT Experiment 3\svrt_images\generated_images\results_problem_10\sample_1_0013.png,,,,,,,,,,,,,,,0,8,8,8,0,3,3,3,,,,,,,,,,,,,,f,10,A,A,1,1,Correct!,0.6661151000007521,889.9878137999985,None,889.9878137999985,None,890.6715397999942,None,,,,,4,001,2023-04-26_12h54.52.623,uncolored_sorted,2021.2.3,60.05371203918034,
C:\Users\subject\Desktop\SVRT Experiments\SVRT Experiment 3\svrt_images\generated_images\results_problem_10,,,C:\Users\subject\Desktop\SVRT Experiments\SVRT Experiment 3\svrt_images\generated_images\results_problem_3\sample_1_0008.png,C:\Users\subject\Desktop\SVRT Experiments\SVRT Experiment 3\svrt_images\generated_images\results_problem_22\sample_0_0005.png,C:\Users\subject\Desktop\SVRT Experiments\SVRT Experiment 3\svrt_images\generated_images\results_problem_18\sample_1_0006.png,C:\Users\subject\Desktop\SVRT Experiments\SVRT Experiment 3\svrt_images\generated_images\results_problem_4\sample_0_0006.png,C:\Users\subject\Desktop\SVRT Experiments\SVRT Experiment 3\svrt_images\generated_images\results_problem_11\sample_1_0015.png,C:\Users\subject\Desktop\SVRT Experiments\SVRT Experiment 3\svrt_images\generated_images\results_problem_14\sample_1_0004.png,C:\Users\subject\Desktop\SVRT Experiments\SVRT Experiment 3\svrt_images\generated_images\results_problem_10\sample_1_0007.png,,,,,,,,,,,,,,,0,8,8,8,0,4,4,4,,,,,,,,,,,,,,f,10,A,A,1,1,Correct!,0.5611650999999256,891.8047881999955,None,891.8047881999955,None,892.3881234999935,None,,,,,4,001,2023-04-26_12h54.52.623,uncolored_sorted,2021.2.3,60.05371203918034,
C:\Users\subject\Desktop\SVRT Experiments\SVRT Experiment 3\svrt_images\generated_images\results_problem_10,,,C:\Users\subject\Desktop\SVRT Experiments\SVRT Experiment 3\svrt_images\generated_images\results_problem_3\sample_1_0008.png,C:\Users\subject\Desktop\SVRT Experiments\SVRT Experiment 3\svrt_images\generated_images\results_problem_22\sample_0_0005.png,C:\Users\subject\Desktop\SVRT Experiments\SVRT Experiment 3\svrt_images\generated_images\results_problem_18\sample_1_0006.png,C:\Users\subject\Desktop\SVRT Experiments\SVRT Experiment 3\svrt_images\generated_images\results_problem_4\sample_0_0006.png,C:\Users\subject\Desktop\SVRT Experiments\SVRT Experiment 3\svrt_images\generated_images\results_problem_11\sample_1_0015.png,C:\Users\subject\Desktop\SVRT Experiments\SVRT Experiment 3\svrt_images\generated_images\results_problem_14\sample_1_0004.png,C:\Users\subject\Desktop\SVRT Experiments\SVRT Experiment 3\svrt_images\generated_images\results_problem_10\sample_0_0012.png,,,,,,,,,,,,,,,0,8,8,8,0,5,5,5,,,,,,,,,,,,,,f,10,A,B,1,0,Incorrect!,0.9100102999946102,893.4879610999997,None,893.4879610999997,None,894.4211584999939,None,,,,,4,001,2023-04-26_12h54.52.623,uncolored_sorted,2021.2.3,60.05371203918034,
C:\Users\subject\Desktop\SVRT Experiments\SVRT Experiment 3\svrt_images\generated_images\results_problem_10,,,C:\Users\subject\Desktop\SVRT Experiments\SVRT Experiment 3\svrt_images\generated_images\results_problem_3\sample_1_0008.png,C:\Users\subject\Desktop\SVRT Experiments\SVRT Experiment 3\svrt_images\generated_images\results_problem_22\sample_0_0005.png,C:\Users\subject\Desktop\SVRT Experiments\SVRT Experiment 3\svrt_images\generated_images\results_problem_18\sample_1_0006.png,C:\Users\subject\Desktop\SVRT Experiments\SVRT Experiment 3\svrt_images\generated_images\results_problem_4\sample_0_0006.png,C:\Users\subject\Desktop\SVRT Experiments\SVRT Experiment 3\svrt_images\generated_images\results_problem_11\sample_1_0015.png,C:\Users\subject\Desktop\SVRT Experiments\SVRT Experiment 3\svrt_images\generated_images\results_problem_14\sample_1_0004.png,C:\Users\subject\Desktop\SVRT Experiments\SVRT Experiment 3\svrt_images\generated_images\results_problem_10\sample_1_0015.png,,,,,,,,,,,,,,,0,8,8,8,0,6,6,6,,,,,,,,,,,,,,f,10,A,A,1,1,Correct!,1.1152940000029048,895.570814199993,None,895.570814199993,None,896.7042669999937,None,,,,,4,001,2023-04-26_12h54.52.623,uncolored_sorted,2021.2.3,60.05371203918034,
C:\Users\subject\Desktop\SVRT Experiments\SVRT Experiment 3\svrt_images\generated_images\results_problem_10,,,C:\Users\subject\Desktop\SVRT Experiments\SVRT Experiment 3\svrt_images\generated_images\results_problem_3\sample_1_0008.png,C:\Users\subject\Desktop\SVRT Experiments\SVRT Experiment 3\svrt_images\generated_images\results_problem_22\sample_0_0005.png,C:\Users\subject\Desktop\SVRT Experiments\SVRT Experiment 3\svrt_images\generated_images\results_problem_18\sample_1_0006.png,C:\Users\subject\Desktop\SVRT Experiments\SVRT Experiment 3\svrt_images\generated_images\results_problem_4\sample_0_0006.png,C:\Users\subject\Desktop\SVRT Experiments\SVRT Experiment 3\svrt_images\generated_images\results_problem_11\sample_1_0015.png,C:\Users\subject\Desktop\SVRT Experiments\SVRT Experiment 3\svrt_images\generated_images\results_problem_14\sample_1_0004.png,C:\Users\subject\Desktop\SVRT Experiments\SVRT Experiment 3\svrt_images\generated_images\results_problem_10\sample_1_0004.png,,,,,,,,,,,,,,,0,8,8,8,0,7,7,7,,,,,,,,,,,,,,f,10,A,A,1,1,Correct!,0.6735618000020622,897.8205608999997,None,897.8205608999997,None,898.5207823999954,None,,,,,4,001,2023-04-26_12h54.52.623,uncolored_sorted,2021.2.3,60.05371203918034,
C:\Users\subject\Desktop\SVRT Experiments\SVRT Experiment 3\svrt_images\generated_images\results_problem_10,,,C:\Users\subject\Desktop\SVRT Experiments\SVRT Experiment 3\svrt_images\generated_images\results_problem_3\sample_1_0008.png,C:\Users\subject\Desktop\SVRT Experiments\SVRT Experiment 3\svrt_images\generated_images\results_problem_22\sample_0_0005.png,C:\Users\subject\Desktop\SVRT Experiments\SVRT Experiment 3\svrt_images\generated_images\results_problem_18\sample_1_0006.png,C:\Users\subject\Desktop\SVRT Experiments\SVRT Experiment 3\svrt_images\generated_images\results_problem_4\sample_0_0006.png,C:\Users\subject\Desktop\SVRT Experiments\SVRT Experiment 3\svrt_images\generated_images\results_problem_11\sample_1_0015.png,C:\Users\subject\Desktop\SVRT Experiments\SVRT Experiment 3\svrt_images\generated_images\results_problem_14\sample_1_0004.png,C:\Users\subject\Desktop\SVRT Experiments\SVRT Experiment 3\svrt_images\generated_images\results_problem_10\sample_0_0007.png,,,,,,,,,,,,,,,0,8,8,8,0,8,8,8,,,,,,,,,,,,,,j,10,B,B,1,1,Correct!,0.5846708999961265,899.6374599999981,None,899.6374599999981,None,900.2537973999933,None,,,,,4,001,2023-04-26_12h54.52.623,uncolored_sorted,2021.2.3,60.05371203918034,
C:\Users\subject\Desktop\SVRT Experiments\SVRT Experiment 3\svrt_images\generated_images\results_problem_10,,,C:\Users\subject\Desktop\SVRT Experiments\SVRT Experiment 3\svrt_images\generated_images\results_problem_3\sample_1_0008.png,C:\Users\subject\Desktop\SVRT Experiments\SVRT Experiment 3\svrt_images\generated_images\results_problem_22\sample_0_0005.png,C:\Users\subject\Desktop\SVRT Experiments\SVRT Experiment 3\svrt_images\generated_images\results_problem_18\sample_1_0006.png,C:\Users\subject\Desktop\SVRT Experiments\SVRT Experiment 3\svrt_images\generated_images\results_problem_4\sample_0_0006.png,C:\Users\subject\Desktop\SVRT Experiments\SVRT Experiment 3\svrt_images\generated_images\results_problem_11\sample_1_0015.png,C:\Users\subject\Desktop\SVRT Experiments\SVRT Experiment 3\svrt_images\generated_images\results_problem_14\sample_1_0004.png,C:\Users\subject\Desktop\SVRT Experiments\SVRT Experiment 3\svrt_images\generated_images\results_problem_10\sample_0_0013.png,,,,,,,,,,,,,,,0,8,8,8,0,9,9,9,,,,,,,,,,,,,,j,10,B,B,1,1,Correct!,1.0590704999995069,901.3870813999965,None,901.3870813999965,None,902.4702124999967,None,,,,,4,001,2023-04-26_12h54.52.623,uncolored_sorted,2021.2.3,60.05371203918034,
C:\Users\subject\Desktop\SVRT Experiments\SVRT Experiment 3\svrt_images\generated_images\results_problem_10,,,C:\Users\subject\Desktop\SVRT Experiments\SVRT Experiment 3\svrt_images\generated_images\results_problem_3\sample_1_0008.png,C:\Users\subject\Desktop\SVRT Experiments\SVRT Experiment 3\svrt_images\generated_images\results_problem_22\sample_0_0005.png,C:\Users\subject\Desktop\SVRT Experiments\SVRT Experiment 3\svrt_images\generated_images\results_problem_18\sample_1_0006.png,C:\Users\subject\Desktop\SVRT Experiments\SVRT Experiment 3\svrt_images\generated_images\results_problem_4\sample_0_0006.png,C:\Users\subject\Desktop\SVRT Experiments\SVRT Experiment 3\svrt_images\generated_images\results_problem_11\sample_1_0015.png,C:\Users\subject\Desktop\SVRT Experiments\SVRT Experiment 3\svrt_images\generated_images\results_problem_14\sample_1_0004.png,C:\Users\subject\Desktop\SVRT Experiments\SVRT Experiment 3\svrt_images\generated_images\results_problem_10\sample_0_0001.png,,,,,,,,,,,,,,,0,8,8,8,0,10,10,10,,,,,,,,,,,,,,j,10,B,B,1,1,Correct!,0.7459129999988363,903.6202715999971,None,903.6202715999971,None,904.3868976999947,None,,,,,4,001,2023-04-26_12h54.52.623,uncolored_sorted,2021.2.3,60.05371203918034,
C:\Users\subject\Desktop\SVRT Experiments\SVRT Experiment 3\svrt_images\generated_images\results_problem_10,,,C:\Users\subject\Desktop\SVRT Experiments\SVRT Experiment 3\svrt_images\generated_images\results_problem_3\sample_1_0008.png,C:\Users\subject\Desktop\SVRT Experiments\SVRT Experiment 3\svrt_images\generated_images\results_problem_22\sample_0_0005.png,C:\Users\subject\Desktop\SVRT Experiments\SVRT Experiment 3\svrt_images\generated_images\results_problem_18\sample_1_0006.png,C:\Users\subject\Desktop\SVRT Experiments\SVRT Experiment 3\svrt_images\generated_images\results_problem_4\sample_0_0006.png,C:\Users\subject\Desktop\SVRT Experiments\SVRT Experiment 3\svrt_images\generated_images\results_problem_11\sample_1_0015.png,C:\Users\subject\Desktop\SVRT Experiments\SVRT Experiment 3\svrt_images\generated_images\results_problem_14\sample_1_0004.png,C:\Users\subject\Desktop\SVRT Experiments\SVRT Experiment 3\svrt_images\generated_images\results_problem_10\sample_0_0003.png,,,,,,,,,,,,,,,0,8,8,8,0,11,11,11,,,,,,,,,,,,,,j,10,B,B,1,1,Correct!,0.8225585000036517,905.7035405999995,None,905.7035405999995,None,906.5534193999993,None,,,,,4,001,2023-04-26_12h54.52.623,uncolored_sorted,2021.2.3,60.05371203918034,
C:\Users\subject\Desktop\SVRT Experiments\SVRT Experiment 3\svrt_images\generated_images\results_problem_10,,,C:\Users\subject\Desktop\SVRT Experiments\SVRT Experiment 3\svrt_images\generated_images\results_problem_3\sample_1_0008.png,C:\Users\subject\Desktop\SVRT Experiments\SVRT Experiment 3\svrt_images\generated_images\results_problem_22\sample_0_0005.png,C:\Users\subject\Desktop\SVRT Experiments\SVRT Experiment 3\svrt_images\generated_images\results_problem_18\sample_1_0006.png,C:\Users\subject\Desktop\SVRT Experiments\SVRT Experiment 3\svrt_images\generated_images\results_problem_4\sample_0_0006.png,C:\Users\subject\Desktop\SVRT Experiments\SVRT Experiment 3\svrt_images\generated_images\results_problem_11\sample_1_0015.png,C:\Users\subject\Desktop\SVRT Experiments\SVRT Experiment 3\svrt_images\generated_images\results_problem_14\sample_1_0004.png,C:\Users\subject\Desktop\SVRT Experiments\SVRT Experiment 3\svrt_images\generated_images\results_problem_10\sample_0_0010.png,,,,,,,,,,,,,,,0,8,8,8,0,12,12,12,,,,,,,,,,,,,,j,10,B,B,1,1,Correct!,1.1919253000014578,907.6700245999964,None,907.6700245999964,None,908.886591699993,None,,,,,4,001,2023-04-26_12h54.52.623,uncolored_sorted,2021.2.3,60.05371203918034,
C:\Users\subject\Desktop\SVRT Experiments\SVRT Experiment 3\svrt_images\generated_images\results_problem_10,,,C:\Users\subject\Desktop\SVRT Experiments\SVRT Experiment 3\svrt_images\generated_images\results_problem_3\sample_1_0008.png,C:\Users\subject\Desktop\SVRT Experiments\SVRT Experiment 3\svrt_images\generated_images\results_problem_22\sample_0_0005.png,C:\Users\subject\Desktop\SVRT Experiments\SVRT Experiment 3\svrt_images\generated_images\results_problem_18\sample_1_0006.png,C:\Users\subject\Desktop\SVRT Experiments\SVRT Experiment 3\svrt_images\generated_images\results_problem_4\sample_0_0006.png,C:\Users\subject\Desktop\SVRT Experiments\SVRT Experiment 3\svrt_images\generated_images\results_problem_11\sample_1_0015.png,C:\Users\subject\Desktop\SVRT Experiments\SVRT Experiment 3\svrt_images\generated_images\results_problem_14\sample_1_0004.png,C:\Users\subject\Desktop\SVRT Experiments\SVRT Experiment 3\svrt_images\generated_images\results_problem_10\sample_0_0016.png,,,,,,,,,,,,,,,0,8,8,8,0,13,13,13,,,,,,,,,,,,,,,,,,,,,,,,,,,,909.8865517999948,909.8865517999948,space,0.3994260000035865,4,001,2023-04-26_12h54.52.623,uncolored_sorted,2021.2.3,60.05371203918034,
C:\Users\subject\Desktop\SVRT Experiments\SVRT Experiment 3\svrt_images\generated_images\results_problem_16,,,C:\Users\subject\Desktop\SVRT Experiments\SVRT Experiment 3\svrt_images\generated_images\results_problem_3\sample_1_0008.png,C:\Users\subject\Desktop\SVRT Experiments\SVRT Experiment 3\svrt_images\generated_images\results_problem_22\sample_0_0005.png,C:\Users\subject\Desktop\SVRT Experiments\SVRT Experiment 3\svrt_images\generated_images\results_problem_18\sample_1_0006.png,C:\Users\subject\Desktop\SVRT Experiments\SVRT Experiment 3\svrt_images\generated_images\results_problem_4\sample_0_0006.png,C:\Users\subject\Desktop\SVRT Experiments\SVRT Experiment 3\svrt_images\generated_images\results_problem_11\sample_1_0015.png,C:\Users\subject\Desktop\SVRT Experiments\SVRT Experiment 3\svrt_images\generated_images\results_problem_14\sample_1_0004.png,C:\Users\subject\Desktop\SVRT Experiments\SVRT Experiment 3\svrt_images\generated_images\results_problem_10\sample_0_0016.png,C:\Users\subject\Desktop\SVRT Experiments\SVRT Experiment 3\svrt_images\generated_images\results_problem_16\sample_0_0008.png,,,,,,,,,,,,,,0,9,9,9,0,0,0,0,,,,,,,,,,,,,,f,16,A,B,1,0,Incorrect!,0.987451000000874,910.3865356999959,None,910.3865356999959,None,911.4031439999962,None,,,,,4,001,2023-04-26_12h54.52.623,uncolored_sorted,2021.2.3,60.05371203918034,
C:\Users\subject\Desktop\SVRT Experiments\SVRT Experiment 3\svrt_images\generated_images\results_problem_16,,,C:\Users\subject\Desktop\SVRT Experiments\SVRT Experiment 3\svrt_images\generated_images\results_problem_3\sample_1_0008.png,C:\Users\subject\Desktop\SVRT Experiments\SVRT Experiment 3\svrt_images\generated_images\results_problem_22\sample_0_0005.png,C:\Users\subject\Desktop\SVRT Experiments\SVRT Experiment 3\svrt_images\generated_images\results_problem_18\sample_1_0006.png,C:\Users\subject\Desktop\SVRT Experiments\SVRT Experiment 3\svrt_images\generated_images\results_problem_4\sample_0_0006.png,C:\Users\subject\Desktop\SVRT Experiments\SVRT Experiment 3\svrt_images\generated_images\results_problem_11\sample_1_0015.png,C:\Users\subject\Desktop\SVRT Experiments\SVRT Experiment 3\svrt_images\generated_images\results_problem_14\sample_1_0004.png,C:\Users\subject\Desktop\SVRT Experiments\SVRT Experiment 3\svrt_images\generated_images\results_problem_10\sample_0_0016.png,C:\Users\subject\Desktop\SVRT Experiments\SVRT Experiment 3\svrt_images\generated_images\results_problem_16\sample_1_0014.png,,,,,,,,,,,,,,0,9,9,9,0,1,1,1,,,,,,,,,,,,,,f,16,A,A,1,1,Correct!,1.2089168000020436,912.4530682999975,None,912.4530682999975,None,913.6863614999966,None,,,,,4,001,2023-04-26_12h54.52.623,uncolored_sorted,2021.2.3,60.05371203918034,
