folder,results_problem_21,results_problem_17,results_problem_19,results_problem_6,results_problem_14,results_problem_12,results_problem_4,results_problem_7,results_problem_1,results_problem_16,results_problem_10,results_problem_22,results_problem_9,results_problem_8,results_problem_13,results_problem_2,results_problem_3,results_problem_20,results_problem_18,results_problem_23,results_problem_15,results_problem_11,results_problem_5,categories.thisRepN,categories.thisTrialN,categories.thisN,categories.thisIndex,trials.thisRepN,trials.thisTrialN,trials.thisN,trials.thisIndex,consent_text.started,consent_kb.started,consent_kb.keys,consent_kb.rt,Gender.keys,Gender.rt,Age,instructions_text.started,instructions_text.stopped,instructions_kb.keys,instructions_kb.rt,instructions_kb.started,instructions_kb.stopped,trial_kb.keys,current_problem_num,category_resp,answer,seed,accuracy,feedback,trial_kb.rt,trial_kb.started,trial_kb.stopped,trial_image.started,trial_image.stopped,feedback_text.started,feedback_text.stopped,new_problem_kb.started,new_problem_text.started,new_problem_kb.keys,new_problem_kb.rt,Participant #,session,date,expName,psychopyVersion,frameRate,
,,,,,,,,,,,,,,,,,,,,,,,,,,,,,,,,19.21031850000145,19.21031850000145,y,35.44603419996565,,,,,,,,,,,,,,,,,,,,,,,,,,,,51,001,2023-05-16_08h59.38.841,uncolored_shuffled,2021.2.3,59.97422307813654,
,,,,,,,,,,,,,,,,,,,,,,,,,,,,,,,,,,,,m,9.969104500021785,,,,,,,,,,,,,,,,,,,,,,,,,,51,001,2023-05-16_08h59.38.841,uncolored_shuffled,2021.2.3,59.97422307813654,
,,,,,,,,,,,,,,,,,,,,,,,,,,,,,,,,,,,,,,32,78.56932500004768,None,space,35.92688340001041,78.56932500004768,None,,,,,,,,,,,,,,,,,,,51,001,2023-05-16_08h59.38.841,uncolored_shuffled,2021.2.3,59.97422307813654,
C:\Users\subject\Desktop\SVRT Experiments\SVRT Experiment 3\svrt_images\generated_images\results_problem_21,C:\Users\subject\Desktop\SVRT Experiments\SVRT Experiment 3\svrt_images\generated_images\results_problem_21\sample_1_0002.png,,,,,,,,,,,,,,,,,,,,,,,0,0,0,0,0,0,0,0,,,,,,,,,,,,,,f,21,A,A,13,1,Correct!,10.964586200017948,114.69983430003049,None,114.69983430003049,None,125.6994554999983,None,,,,,51,001,2023-05-16_08h59.38.841,uncolored_shuffled,2021.2.3,59.97422307813654,
C:\Users\subject\Desktop\SVRT Experiments\SVRT Experiment 3\svrt_images\generated_images\results_problem_21,C:\Users\subject\Desktop\SVRT Experiments\SVRT Experiment 3\svrt_images\generated_images\results_problem_21\sample_0_0004.png,,,,,,,,,,,,,,,,,,,,,,,0,0,0,0,0,1,1,1,,,,,,,,,,,,,,f,21,A,B,13,0,Incorrect!,10.896868999989238,126.79940940003144,None,126.79940940003144,None,137.71530130004976,None,,,,,51,001,2023-05-16_08h59.38.841,uncolored_shuffled,2021.2.3,59.97422307813654,
C:\Users\subject\Desktop\SVRT Experiments\SVRT Experiment 3\svrt_images\generated_images\results_problem_21,C:\Users\subject\Desktop\SVRT Experiments\SVRT Experiment 3\svrt_images\generated_images\results_problem_21\sample_0_0006.png,,,,,,,,,,,,,,,,,,,,,,,0,0,0,0,0,2,2,2,,,,,,,,,,,,,,j,21,B,B,13,1,Correct!,7.665786400029901,138.79860400001053,None,138.79860400001053,None,146.49764190003043,None,,,,,51,001,2023-05-16_08h59.38.841,uncolored_shuffled,2021.2.3,59.97422307813654,
C:\Users\subject\Desktop\SVRT Experiments\SVRT Experiment 3\svrt_images\generated_images\results_problem_21,C:\Users\subject\Desktop\SVRT Experiments\SVRT Experiment 3\svrt_images\generated_images\results_problem_21\sample_0_0012.png,,,,,,,,,,,,,,,,,,,,,,,0,0,0,0,0,3,3,3,,,,,,,,,,,,,,f,21,A,B,13,0,Incorrect!,4.003717299958225,147.56467010005144,None,147.56467010005144,None,151.59718959999736,None,,,,,51,001,2023-05-16_08h59.38.841,uncolored_shuffled,2021.2.3,59.97422307813654,
C:\Users\subject\Desktop\SVRT Experiments\SVRT Experiment 3\svrt_images\generated_images\results_problem_21,C:\Users\subject\Desktop\SVRT Experiments\SVRT Experiment 3\svrt_images\generated_images\results_problem_21\sample_1_0012.png,,,,,,,,,,,,,,,,,,,,,,,0,0,0,0,0,4,4,4,,,,,,,,,,,,,,j,21,B,A,13,0,Incorrect!,6.887920799956191,152.68052829999942,None,152.68052829999942,None,159.59675970004173,None,,,,,51,001,2023-05-16_08h59.38.841,uncolored_shuffled,2021.2.3,59.97422307813654,
C:\Users\subject\Desktop\SVRT Experiments\SVRT Experiment 3\svrt_images\generated_images\results_problem_21,C:\Users\subject\Desktop\SVRT Experiments\SVRT Experiment 3\svrt_images\generated_images\results_problem_21\sample_0_0013.png,,,,,,,,,,,,,,,,,,,,,,,0,0,0,0,0,5,5,5,,,,,,,,,,,,,,f,21,A,B,13,0,Incorrect!,1.8625437000300735,160.72998740000185,None,160.72998740000185,None,162.6132846000255,None,,,,,51,001,2023-05-16_08h59.38.841,uncolored_shuffled,2021.2.3,59.97422307813654,
C:\Users\subject\Desktop\SVRT Experiments\SVRT Experiment 3\svrt_images\generated_images\results_problem_21,C:\Users\subject\Desktop\SVRT Experiments\SVRT Experiment 3\svrt_images\generated_images\results_problem_21\sample_1_0006.png,,,,,,,,,,,,,,,,,,,,,,,0,0,0,0,0,6,6,6,,,,,,,,,,,,,,j,21,B,A,13,0,Incorrect!,2.8639125999761745,163.6964064000058,None,163.6964064000058,None,166.57953590003308,None,,,,,51,001,2023-05-16_08h59.38.841,uncolored_shuffled,2021.2.3,59.97422307813654,
C:\Users\subject\Desktop\SVRT Experiments\SVRT Experiment 3\svrt_images\generated_images\results_problem_21,C:\Users\subject\Desktop\SVRT Experiments\SVRT Experiment 3\svrt_images\generated_images\results_problem_21\sample_1_0016.png,,,,,,,,,,,,,,,,,,,,,,,0,0,0,0,0,7,7,7,,,,,,,,,,,,,,j,21,B,A,13,0,Incorrect!,6.497505200037267,167.66277210001135,None,167.66277210001135,None,174.1791111000348,None,,,,,51,001,2023-05-16_08h59.38.841,uncolored_shuffled,2021.2.3,59.97422307813654,
C:\Users\subject\Desktop\SVRT Experiments\SVRT Experiment 3\svrt_images\generated_images\results_problem_21,C:\Users\subject\Desktop\SVRT Experiments\SVRT Experiment 3\svrt_images\generated_images\results_problem_21\sample_1_0005.png,,,,,,,,,,,,,,,,,,,,,,,0,0,0,0,0,8,8,8,,,,,,,,,,,,,,j,21,B,A,13,0,Incorrect!,1.4750271000084467,175.24545670003863,None,175.24545670003863,None,176.74554350000108,None,,,,,51,001,2023-05-16_08h59.38.841,uncolored_shuffled,2021.2.3,59.97422307813654,
C:\Users\subject\Desktop\SVRT Experiments\SVRT Experiment 3\svrt_images\generated_images\results_problem_21,C:\Users\subject\Desktop\SVRT Experiments\SVRT Experiment 3\svrt_images\generated_images\results_problem_21\sample_0_0009.png,,,,,,,,,,,,,,,,,,,,,,,0,0,0,0,0,9,9,9,,,,,,,,,,,,,,f,21,A,B,13,0,Incorrect!,3.7922514000092633,178.09606490004808,None,178.09606490004808,None,181.91241800005082,None,,,,,51,001,2023-05-16_08h59.38.841,uncolored_shuffled,2021.2.3,59.97422307813654,
C:\Users\subject\Desktop\SVRT Experiments\SVRT Experiment 3\svrt_images\generated_images\results_problem_21,C:\Users\subject\Desktop\SVRT Experiments\SVRT Experiment 3\svrt_images\generated_images\results_problem_21\sample_0_0016.png,,,,,,,,,,,,,,,,,,,,,,,0,0,0,0,0,10,10,10,,,,,,,,,,,,,,j,21,B,B,13,1,Correct!,11.11405570001807,183.06232500000624,None,183.06232500000624,None,194.2115613000351,None,,,,,51,001,2023-05-16_08h59.38.841,uncolored_shuffled,2021.2.3,59.97422307813654,
C:\Users\subject\Desktop\SVRT Experiments\SVRT Experiment 3\svrt_images\generated_images\results_problem_21,C:\Users\subject\Desktop\SVRT Experiments\SVRT Experiment 3\svrt_images\generated_images\results_problem_21\sample_0_0010.png,,,,,,,,,,,,,,,,,,,,,,,0,0,0,0,0,11,11,11,,,,,,,,,,,,,,j,21,B,B,13,1,Correct!,3.719665599986911,195.5448520000209,None,195.5448520000209,None,199.29442040005233,None,,,,,51,001,2023-05-16_08h59.38.841,uncolored_shuffled,2021.2.3,59.97422307813654,
C:\Users\subject\Desktop\SVRT Experiments\SVRT Experiment 3\svrt_images\generated_images\results_problem_21,C:\Users\subject\Desktop\SVRT Experiments\SVRT Experiment 3\svrt_images\generated_images\results_problem_21\sample_1_0008.png,,,,,,,,,,,,,,,,,,,,,,,0,0,0,0,0,12,12,12,,,,,,,,,,,,,,j,21,B,A,13,0,Incorrect!,5.380879400006961,200.42770640004892,None,200.42770640004892,None,205.84385030000703,None,,,,,51,001,2023-05-16_08h59.38.841,uncolored_shuffled,2021.2.3,59.97422307813654,
C:\Users\subject\Desktop\SVRT Experiments\SVRT Experiment 3\svrt_images\generated_images\results_problem_21,C:\Users\subject\Desktop\SVRT Experiments\SVRT Experiment 3\svrt_images\generated_images\results_problem_21\sample_0_0007.png,,,,,,,,,,,,,,,,,,,,,,,0,0,0,0,0,13,13,13,,,,,,,,,,,,,,f,21,A,B,13,0,Incorrect!,6.493407700036187,207.0271324000205,None,207.0271324000205,None,213.54290860000765,None,,,,,51,001,2023-05-16_08h59.38.841,uncolored_shuffled,2021.2.3,59.97422307813654,
C:\Users\subject\Desktop\SVRT Experiments\SVRT Experiment 3\svrt_images\generated_images\results_problem_21,C:\Users\subject\Desktop\SVRT Experiments\SVRT Experiment 3\svrt_images\generated_images\results_problem_21\sample_0_0003.png,,,,,,,,,,,,,,,,,,,,,,,0,0,0,0,0,14,14,14,,,,,,,,,,,,,,f,21,A,B,13,0,Incorrect!,8.372598699992523,228.4759954000474,None,228.4759954000474,None,236.89140290004434,None,,,,,51,001,2023-05-16_08h59.38.841,uncolored_shuffled,2021.2.3,59.97422307813654,
C:\Users\subject\Desktop\SVRT Experiments\SVRT Experiment 3\svrt_images\generated_images\results_problem_21,C:\Users\subject\Desktop\SVRT Experiments\SVRT Experiment 3\svrt_images\generated_images\results_problem_21\sample_1_0007.png,,,,,,,,,,,,,,,,,,,,,,,0,0,0,0,0,15,15,15,,,,,,,,,,,,,,f,21,A,A,13,1,Correct!,5.3502186999539845,238.05813489999855,None,238.05813489999855,None,243.44119630003115,None,,,,,51,001,2023-05-16_08h59.38.841,uncolored_shuffled,2021.2.3,59.97422307813654,
C:\Users\subject\Desktop\SVRT Experiments\SVRT Experiment 3\svrt_images\generated_images\results_problem_21,C:\Users\subject\Desktop\SVRT Experiments\SVRT Experiment 3\svrt_images\generated_images\results_problem_21\sample_1_0013.png,,,,,,,,,,,,,,,,,,,,,,,0,0,0,0,0,16,16,16,,,,,,,,,,,,,,f,21,A,A,13,1,Correct!,2.766914599982556,246.64146450004773,None,246.64146450004773,None,249.45777670003008,None,,,,,51,001,2023-05-16_08h59.38.841,uncolored_shuffled,2021.2.3,59.97422307813654,
C:\Users\subject\Desktop\SVRT Experiments\SVRT Experiment 3\svrt_images\generated_images\results_problem_21,C:\Users\subject\Desktop\SVRT Experiments\SVRT Experiment 3\svrt_images\generated_images\results_problem_21\sample_0_0002.png,,,,,,,,,,,,,,,,,,,,,,,0,0,0,0,0,17,17,17,,,,,,,,,,,,,,f,21,A,B,13,0,Incorrect!,2.766750200011302,250.6576223000302,None,250.6576223000302,None,253.45721630001208,None,,,,,51,001,2023-05-16_08h59.38.841,uncolored_shuffled,2021.2.3,59.97422307813654,
C:\Users\subject\Desktop\SVRT Experiments\SVRT Experiment 3\svrt_images\generated_images\results_problem_21,C:\Users\subject\Desktop\SVRT Experiments\SVRT Experiment 3\svrt_images\generated_images\results_problem_21\sample_0_0000.png,,,,,,,,,,,,,,,,,,,,,,,0,0,0,0,0,18,18,18,,,,,,,,,,,,,,j,21,B,B,13,1,Correct!,3.920011300011538,254.6403914000257,None,254.6403914000257,None,258.5901564999949,None,,,,,51,001,2023-05-16_08h59.38.841,uncolored_shuffled,2021.2.3,59.97422307813654,
C:\Users\subject\Desktop\SVRT Experiments\SVRT Experiment 3\svrt_images\generated_images\results_problem_21,C:\Users\subject\Desktop\SVRT Experiments\SVRT Experiment 3\svrt_images\generated_images\results_problem_21\sample_1_0014.png,,,,,,,,,,,,,,,,,,,,,,,0,0,0,0,0,19,19,19,,,,,,,,,,,,,,f,21,A,A,13,1,Correct!,5.793147000018507,259.82337260001805,None,259.82337260001805,None,265.63964950002264,None,,,,,51,001,2023-05-16_08h59.38.841,uncolored_shuffled,2021.2.3,59.97422307813654,
C:\Users\subject\Desktop\SVRT Experiments\SVRT Experiment 3\svrt_images\generated_images\results_problem_21,C:\Users\subject\Desktop\SVRT Experiments\SVRT Experiment 3\svrt_images\generated_images\results_problem_21\sample_1_0011.png,,,,,,,,,,,,,,,,,,,,,,,0,0,0,0,0,20,20,20,,,,,,,,,,,,,,j,21,B,A,13,0,Incorrect!,2.1846939000533894,266.83966789999977,None,266.83966789999977,None,269.0561410000082,None,,,,,51,001,2023-05-16_08h59.38.841,uncolored_shuffled,2021.2.3,59.97422307813654,
C:\Users\subject\Desktop\SVRT Experiments\SVRT Experiment 3\svrt_images\generated_images\results_problem_21,C:\Users\subject\Desktop\SVRT Experiments\SVRT Experiment 3\svrt_images\generated_images\results_problem_21\sample_1_0003.png,,,,,,,,,,,,,,,,,,,,,,,0,0,0,0,0,21,21,21,,,,,,,,,,,,,,f,21,A,A,13,1,Correct!,4.383990200003609,270.272714700026,None,270.272714700026,None,274.72240750002675,None,,,,,51,001,2023-05-16_08h59.38.841,uncolored_shuffled,2021.2.3,59.97422307813654,
C:\Users\subject\Desktop\SVRT Experiments\SVRT Experiment 3\svrt_images\generated_images\results_problem_21,C:\Users\subject\Desktop\SVRT Experiments\SVRT Experiment 3\svrt_images\generated_images\results_problem_21\sample_1_0010.png,,,,,,,,,,,,,,,,,,,,,,,0,0,0,0,0,22,22,22,,,,,,,,,,,,,,f,21,A,A,13,1,Correct!,1.564246300025843,275.9723370000138,None,275.9723370000138,None,277.58891320001567,None,,,,,51,001,2023-05-16_08h59.38.841,uncolored_shuffled,2021.2.3,59.97422307813654,
C:\Users\subject\Desktop\SVRT Experiments\SVRT Experiment 3\svrt_images\generated_images\results_problem_21,C:\Users\subject\Desktop\SVRT Experiments\SVRT Experiment 3\svrt_images\generated_images\results_problem_21\sample_0_0001.png,,,,,,,,,,,,,,,,,,,,,,,0,0,0,0,0,23,23,23,,,,,,,,,,,,,,j,21,B,B,13,1,Correct!,1.6406524000340141,279.2559711000067,None,279.2559711000067,None,280.9554124000133,None,,,,,51,001,2023-05-16_08h59.38.841,uncolored_shuffled,2021.2.3,59.97422307813654,
C:\Users\subject\Desktop\SVRT Experiments\SVRT Experiment 3\svrt_images\generated_images\results_problem_21,C:\Users\subject\Desktop\SVRT Experiments\SVRT Experiment 3\svrt_images\generated_images\results_problem_21\sample_0_0014.png,,,,,,,,,,,,,,,,,,,,,,,0,0,0,0,0,24,24,24,,,,,,,,,,,,,,j,21,B,B,13,1,Correct!,1.347411099995952,282.20528710004874,None,282.20528710004874,None,283.5718499000068,None,,,,,51,001,2023-05-16_08h59.38.841,uncolored_shuffled,2021.2.3,59.97422307813654,
C:\Users\subject\Desktop\SVRT Experiments\SVRT Experiment 3\svrt_images\generated_images\results_problem_21,C:\Users\subject\Desktop\SVRT Experiments\SVRT Experiment 3\svrt_images\generated_images\results_problem_21\sample_0_0005.png,,,,,,,,,,,,,,,,,,,,,,,0,0,0,0,0,25,25,25,,,,,,,,,,,,,,j,21,B,B,13,1,Correct!,1.3376125000067987,284.8550776000484,None,284.8550776000484,None,286.22168509999756,None,,,,,51,001,2023-05-16_08h59.38.841,uncolored_shuffled,2021.2.3,59.97422307813654,
C:\Users\subject\Desktop\SVRT Experiments\SVRT Experiment 3\svrt_images\generated_images\results_problem_21,C:\Users\subject\Desktop\SVRT Experiments\SVRT Experiment 3\svrt_images\generated_images\results_problem_21\sample_0_0011.png,,,,,,,,,,,,,,,,,,,,,,,0,0,0,0,0,26,26,26,,,,,,,,,,,,,,f,21,A,B,13,0,Incorrect!,3.392405399994459,287.48829170002136,None,287.48829170002136,None,290.90467420005007,None,,,,,51,001,2023-05-16_08h59.38.841,uncolored_shuffled,2021.2.3,59.97422307813654,
C:\Users\subject\Desktop\SVRT Experiments\SVRT Experiment 3\svrt_images\generated_images\results_problem_21,C:\Users\subject\Desktop\SVRT Experiments\SVRT Experiment 3\svrt_images\generated_images\results_problem_21\sample_1_0015.png,,,,,,,,,,,,,,,,,,,,,,,0,0,0,0,0,27,27,27,,,,,,,,,,,,,,f,21,A,A,13,1,Correct!,2.4367610000190325,292.187948100036,None,292.187948100036,None,294.687835400051,None,,,,,51,001,2023-05-16_08h59.38.841,uncolored_shuffled,2021.2.3,59.97422307813654,
C:\Users\subject\Desktop\SVRT Experiments\SVRT Experiment 3\svrt_images\generated_images\results_problem_21,C:\Users\subject\Desktop\SVRT Experiments\SVRT Experiment 3\svrt_images\generated_images\results_problem_21\sample_0_0008.png,,,,,,,,,,,,,,,,,,,,,,,0,0,0,0,0,28,28,28,,,,,,,,,,,,,,f,21,A,B,13,0,Incorrect!,2.506876799976453,296.0376913000364,None,296.0376913000364,None,298.5875072000199,None,,,,,51,001,2023-05-16_08h59.38.841,uncolored_shuffled,2021.2.3,59.97422307813654,
C:\Users\subject\Desktop\SVRT Experiments\SVRT Experiment 3\svrt_images\generated_images\results_problem_21,C:\Users\subject\Desktop\SVRT Experiments\SVRT Experiment 3\svrt_images\generated_images\results_problem_21\sample_0_0015.png,,,,,,,,,,,,,,,,,,,,,,,0,0,0,0,0,29,29,29,,,,,,,,,,,,,,f,21,A,B,13,0,Incorrect!,5.90578050003387,299.8707983000204,None,299.8707983000204,None,305.82039589999476,None,,,,,51,001,2023-05-16_08h59.38.841,uncolored_shuffled,2021.2.3,59.97422307813654,
C:\Users\subject\Desktop\SVRT Experiments\SVRT Experiment 3\svrt_images\generated_images\results_problem_21,C:\Users\subject\Desktop\SVRT Experiments\SVRT Experiment 3\svrt_images\generated_images\results_problem_21\sample_1_0004.png,,,,,,,,,,,,,,,,,,,,,,,0,0,0,0,0,30,30,30,,,,,,,,,,,,,,f,21,A,A,13,1,Correct!,3.8882168999989517,307.1203364999965,None,307.1203364999965,None,311.0867178000044,None,,,,,51,001,2023-05-16_08h59.38.841,uncolored_shuffled,2021.2.3,59.97422307813654,
C:\Users\subject\Desktop\SVRT Experiments\SVRT Experiment 3\svrt_images\generated_images\results_problem_21,C:\Users\subject\Desktop\SVRT Experiments\SVRT Experiment 3\svrt_images\generated_images\results_problem_21\sample_1_0000.png,,,,,,,,,,,,,,,,,,,,,,,0,0,0,0,0,31,31,31,,,,,,,,,,,,,,f,21,A,A,13,1,Correct!,1.7414760999963619,312.403317600023,None,312.403317600023,None,314.2198754000128,None,,,,,51,001,2023-05-16_08h59.38.841,uncolored_shuffled,2021.2.3,59.97422307813654,
C:\Users\subject\Desktop\SVRT Experiments\SVRT Experiment 3\svrt_images\generated_images\results_problem_21,C:\Users\subject\Desktop\SVRT Experiments\SVRT Experiment 3\svrt_images\generated_images\results_problem_21\sample_1_0009.png,,,,,,,,,,,,,,,,,,,,,,,0,0,0,0,0,32,32,32,,,,,,,,,,,,,,j,21,B,A,13,0,Incorrect!,6.193011800001841,315.90366120002,None,315.90366120002,None,322.1693439000519,None,,,,,51,001,2023-05-16_08h59.38.841,uncolored_shuffled,2021.2.3,59.97422307813654,
C:\Users\subject\Desktop\SVRT Experiments\SVRT Experiment 3\svrt_images\generated_images\results_problem_21,C:\Users\subject\Desktop\SVRT Experiments\SVRT Experiment 3\svrt_images\generated_images\results_problem_21\sample_1_0001.png,,,,,,,,,,,,,,,,,,,,,,,0,0,0,0,0,33,33,33,,,,,,,,,,,,,,j,21,B,A,13,0,Incorrect!,2.8913509999983944,323.66923670005053,None,323.66923670005053,None,326.6024026000523,None,,,,,51,001,2023-05-16_08h59.38.841,uncolored_shuffled,2021.2.3,59.97422307813654,
C:\Users\subject\Desktop\SVRT Experiments\SVRT Experiment 3\svrt_images\generated_images\results_problem_21,,,,,,,,,,,,,,,,,,,,,,,,0,0,0,0,,,,,,,,,,,,,,,,,,,,,,,,,,,,,,,,327.6023260000511,327.6023260000511,space,2.670409499958623,51,001,2023-05-16_08h59.38.841,uncolored_shuffled,2021.2.3,59.97422307813654,
C:\Users\subject\Desktop\SVRT Experiments\SVRT Experiment 3\svrt_images\generated_images\results_problem_17,,C:\Users\subject\Desktop\SVRT Experiments\SVRT Experiment 3\svrt_images\generated_images\results_problem_17\sample_0_0001.png,,,,,,,,,,,,,,,,,,,,,,0,1,1,1,0,0,0,0,,,,,,,,,,,,,,j,17,B,B,13,1,Correct!,3.902428700006567,330.40228030004073,None,330.40228030004073,None,334.3352293000207,None,,,,,51,001,2023-05-16_08h59.38.841,uncolored_shuffled,2021.2.3,59.97422307813654,
C:\Users\subject\Desktop\SVRT Experiments\SVRT Experiment 3\svrt_images\generated_images\results_problem_17,,C:\Users\subject\Desktop\SVRT Experiments\SVRT Experiment 3\svrt_images\generated_images\results_problem_17\sample_0_0010.png,,,,,,,,,,,,,,,,,,,,,,0,1,1,1,0,1,1,1,,,,,,,,,,,,,,j,17,B,B,13,1,Correct!,4.840251000015996,335.36849650001386,None,335.36849650001386,None,340.2348639999982,None,,,,,51,001,2023-05-16_08h59.38.841,uncolored_shuffled,2021.2.3,59.97422307813654,
C:\Users\subject\Desktop\SVRT Experiments\SVRT Experiment 3\svrt_images\generated_images\results_problem_17,,C:\Users\subject\Desktop\SVRT Experiments\SVRT Experiment 3\svrt_images\generated_images\results_problem_17\sample_1_0014.png,,,,,,,,,,,,,,,,,,,,,,0,1,1,1,0,2,2,2,,,,,,,,,,,,,,j,17,B,A,13,0,Incorrect!,0.9566951000015251,341.268078299996,None,341.268078299996,None,342.25138820003485,None,,,,,51,001,2023-05-16_08h59.38.841,uncolored_shuffled,2021.2.3,59.97422307813654,
C:\Users\subject\Desktop\SVRT Experiments\SVRT Experiment 3\svrt_images\generated_images\results_problem_17,,C:\Users\subject\Desktop\SVRT Experiments\SVRT Experiment 3\svrt_images\generated_images\results_problem_17\sample_1_0005.png,,,,,,,,,,,,,,,,,,,,,,0,1,1,1,0,3,3,3,,,,,,,,,,,,,,j,17,B,A,13,0,Incorrect!,2.8238545000203885,343.3846609000466,None,343.3846609000466,None,346.23453790001804,None,,,,,51,001,2023-05-16_08h59.38.841,uncolored_shuffled,2021.2.3,59.97422307813654,
C:\Users\subject\Desktop\SVRT Experiments\SVRT Experiment 3\svrt_images\generated_images\results_problem_17,,C:\Users\subject\Desktop\SVRT Experiments\SVRT Experiment 3\svrt_images\generated_images\results_problem_17\sample_0_0015.png,,,,,,,,,,,,,,,,,,,,,,0,1,1,1,0,4,4,4,,,,,,,,,,,,,,f,17,A,B,13,0,Incorrect!,1.9149150000303052,347.3177729000454,None,347.3177729000454,None,349.25117550004506,None,,,,,51,001,2023-05-16_08h59.38.841,uncolored_shuffled,2021.2.3,59.97422307813654,
C:\Users\subject\Desktop\SVRT Experiments\SVRT Experiment 3\svrt_images\generated_images\results_problem_17,,C:\Users\subject\Desktop\SVRT Experiments\SVRT Experiment 3\svrt_images\generated_images\results_problem_17\sample_0_0011.png,,,,,,,,,,,,,,,,,,,,,,0,1,1,1,0,5,5,5,,,,,,,,,,,,,,f,17,A,B,13,0,Incorrect!,1.0895049999817275,350.3511031999951,None,350.3511031999951,None,351.4674034000491,None,,,,,51,001,2023-05-16_08h59.38.841,uncolored_shuffled,2021.2.3,59.97422307813654,
C:\Users\subject\Desktop\SVRT Experiments\SVRT Experiment 3\svrt_images\generated_images\results_problem_17,,C:\Users\subject\Desktop\SVRT Experiments\SVRT Experiment 3\svrt_images\generated_images\results_problem_17\sample_1_0013.png,,,,,,,,,,,,,,,,,,,,,,0,1,1,1,0,6,6,6,,,,,,,,,,,,,,j,17,B,A,13,0,Incorrect!,2.6460645999759436,352.6506483000121,None,352.6506483000121,None,355.3172018000041,None,,,,,51,001,2023-05-16_08h59.38.841,uncolored_shuffled,2021.2.3,59.97422307813654,
C:\Users\subject\Desktop\SVRT Experiments\SVRT Experiment 3\svrt_images\generated_images\results_problem_17,,C:\Users\subject\Desktop\SVRT Experiments\SVRT Experiment 3\svrt_images\generated_images\results_problem_17\sample_0_0016.png,,,,,,,,,,,,,,,,,,,,,,0,1,1,1,0,7,7,7,,,,,,,,,,,,,,f,17,A,B,13,0,Incorrect!,2.8481983999954537,356.40039230004186,None,356.40039230004186,None,359.26676430000225,None,,,,,51,001,2023-05-16_08h59.38.841,uncolored_shuffled,2021.2.3,59.97422307813654,
C:\Users\subject\Desktop\SVRT Experiments\SVRT Experiment 3\svrt_images\generated_images\results_problem_17,,C:\Users\subject\Desktop\SVRT Experiments\SVRT Experiment 3\svrt_images\generated_images\results_problem_17\sample_1_0011.png,,,,,,,,,,,,,,,,,,,,,,0,1,1,1,0,8,8,8,,,,,,,,,,,,,,f,17,A,A,13,1,Correct!,3.794498500006739,360.35026300000027,None,360.35026300000027,None,364.16668040002696,None,,,,,51,001,2023-05-16_08h59.38.841,uncolored_shuffled,2021.2.3,59.97422307813654,
C:\Users\subject\Desktop\SVRT Experiments\SVRT Experiment 3\svrt_images\generated_images\results_problem_17,,C:\Users\subject\Desktop\SVRT Experiments\SVRT Experiment 3\svrt_images\generated_images\results_problem_17\sample_1_0008.png,,,,,,,,,,,,,,,,,,,,,,0,1,1,1,0,9,9,9,,,,,,,,,,,,,,f,17,A,A,13,1,Correct!,1.1021008000243455,365.26657229999546,None,365.26657229999546,None,366.3998638000339,None,,,,,51,001,2023-05-16_08h59.38.841,uncolored_shuffled,2021.2.3,59.97422307813654,
C:\Users\subject\Desktop\SVRT Experiments\SVRT Experiment 3\svrt_images\generated_images\results_problem_17,,C:\Users\subject\Desktop\SVRT Experiments\SVRT Experiment 3\svrt_images\generated_images\results_problem_17\sample_1_0009.png,,,,,,,,,,,,,,,,,,,,,,0,1,1,1,0,10,10,10,,,,,,,,,,,,,,j,17,B,A,13,0,Incorrect!,1.0452041000244208,367.4996287000249,None,367.4996287000249,None,368.566421800002,None,,,,,51,001,2023-05-16_08h59.38.841,uncolored_shuffled,2021.2.3,59.97422307813654,
C:\Users\subject\Desktop\SVRT Experiments\SVRT Experiment 3\svrt_images\generated_images\results_problem_17,,C:\Users\subject\Desktop\SVRT Experiments\SVRT Experiment 3\svrt_images\generated_images\results_problem_17\sample_1_0012.png,,,,,,,,,,,,,,,,,,,,,,0,1,1,1,0,11,11,11,,,,,,,,,,,,,,j,17,B,A,13,0,Incorrect!,1.2930964000406675,369.6996816000319,None,369.6996816000319,None,371.016262500023,None,,,,,51,001,2023-05-16_08h59.38.841,uncolored_shuffled,2021.2.3,59.97422307813654,
C:\Users\subject\Desktop\SVRT Experiments\SVRT Experiment 3\svrt_images\generated_images\results_problem_17,,C:\Users\subject\Desktop\SVRT Experiments\SVRT Experiment 3\svrt_images\generated_images\results_problem_17\sample_1_0004.png,,,,,,,,,,,,,,,,,,,,,,0,1,1,1,0,12,12,12,,,,,,,,,,,,,,f,17,A,A,13,1,Correct!,1.5426279000239447,372.26618060003966,None,372.26618060003966,None,373.83260600001086,None,,,,,51,001,2023-05-16_08h59.38.841,uncolored_shuffled,2021.2.3,59.97422307813654,
C:\Users\subject\Desktop\SVRT Experiments\SVRT Experiment 3\svrt_images\generated_images\results_problem_17,,C:\Users\subject\Desktop\SVRT Experiments\SVRT Experiment 3\svrt_images\generated_images\results_problem_17\sample_1_0001.png,,,,,,,,,,,,,,,,,,,,,,0,1,1,1,0,13,13,13,,,,,,,,,,,,,,f,17,A,A,13,1,Correct!,0.8587601000326686,374.9660018000286,None,374.9660018000286,None,375.84927580005024,None,,,,,51,001,2023-05-16_08h59.38.841,uncolored_shuffled,2021.2.3,59.97422307813654,
C:\Users\subject\Desktop\SVRT Experiments\SVRT Experiment 3\svrt_images\generated_images\results_problem_17,,C:\Users\subject\Desktop\SVRT Experiments\SVRT Experiment 3\svrt_images\generated_images\results_problem_17\sample_1_0015.png,,,,,,,,,,,,,,,,,,,,,,0,1,1,1,0,14,14,14,,,,,,,,,,,,,,f,17,A,A,13,1,Correct!,0.95357499999227,376.9992096000351,None,376.9992096000351,None,377.98246160004055,None,,,,,51,001,2023-05-16_08h59.38.841,uncolored_shuffled,2021.2.3,59.97422307813654,
C:\Users\subject\Desktop\SVRT Experiments\SVRT Experiment 3\svrt_images\generated_images\results_problem_17,,C:\Users\subject\Desktop\SVRT Experiments\SVRT Experiment 3\svrt_images\generated_images\results_problem_17\sample_1_0000.png,,,,,,,,,,,,,,,,,,,,,,0,1,1,1,0,15,15,15,,,,,,,,,,,,,,f,17,A,A,13,1,Correct!,0.8605014000204392,379.31627190002473,None,379.31627190002473,None,380.23280729999533,None,,,,,51,001,2023-05-16_08h59.38.841,uncolored_shuffled,2021.2.3,59.97422307813654,
C:\Users\subject\Desktop\SVRT Experiments\SVRT Experiment 3\svrt_images\generated_images\results_problem_17,,C:\Users\subject\Desktop\SVRT Experiments\SVRT Experiment 3\svrt_images\generated_images\results_problem_17\sample_0_0014.png,,,,,,,,,,,,,,,,,,,,,,0,1,1,1,0,16,16,16,,,,,,,,,,,,,,f,17,A,B,13,0,Incorrect!,1.3520940999733284,381.43276600004174,None,381.43276600004174,None,382.84921620000387,None,,,,,51,001,2023-05-16_08h59.38.841,uncolored_shuffled,2021.2.3,59.97422307813654,
C:\Users\subject\Desktop\SVRT Experiments\SVRT Experiment 3\svrt_images\generated_images\results_problem_17,,C:\Users\subject\Desktop\SVRT Experiments\SVRT Experiment 3\svrt_images\generated_images\results_problem_17\sample_1_0016.png,,,,,,,,,,,,,,,,,,,,,,0,1,1,1,0,17,17,17,,,,,,,,,,,,,,f,17,A,A,13,1,Correct!,1.1516845999867655,384.0491449999972,None,384.0491449999972,None,385.265573200013,None,,,,,51,001,2023-05-16_08h59.38.841,uncolored_shuffled,2021.2.3,59.97422307813654,
C:\Users\subject\Desktop\SVRT Experiments\SVRT Experiment 3\svrt_images\generated_images\results_problem_17,,C:\Users\subject\Desktop\SVRT Experiments\SVRT Experiment 3\svrt_images\generated_images\results_problem_17\sample_0_0003.png,,,,,,,,,,,,,,,,,,,,,,0,1,1,1,0,18,18,18,,,,,,,,,,,,,,f,17,A,B,13,0,Incorrect!,2.158549799991306,386.4821564000449,None,386.4821564000449,None,388.6651421000133,None,,,,,51,001,2023-05-16_08h59.38.841,uncolored_shuffled,2021.2.3,59.97422307813654,
C:\Users\subject\Desktop\SVRT Experiments\SVRT Experiment 3\svrt_images\generated_images\results_problem_17,,C:\Users\subject\Desktop\SVRT Experiments\SVRT Experiment 3\svrt_images\generated_images\results_problem_17\sample_1_0006.png,,,,,,,,,,,,,,,,,,,,,,0,1,1,1,0,19,19,19,,,,,,,,,,,,,,j,17,B,A,13,0,Incorrect!,1.3683537999750115,389.8483955000411,None,389.8483955000411,None,391.2650049000513,None,,,,,51,001,2023-05-16_08h59.38.841,uncolored_shuffled,2021.2.3,59.97422307813654,
C:\Users\subject\Desktop\SVRT Experiments\SVRT Experiment 3\svrt_images\generated_images\results_problem_17,,C:\Users\subject\Desktop\SVRT Experiments\SVRT Experiment 3\svrt_images\generated_images\results_problem_17\sample_0_0007.png,,,,,,,,,,,,,,,,,,,,,,0,1,1,1,0,20,20,20,,,,,,,,,,,,,,f,17,A,B,13,0,Incorrect!,1.1206218000152148,392.44823209999595,None,392.44823209999595,None,393.5981553000165,None,,,,,51,001,2023-05-16_08h59.38.841,uncolored_shuffled,2021.2.3,59.97422307813654,
C:\Users\subject\Desktop\SVRT Experiments\SVRT Experiment 3\svrt_images\generated_images\results_problem_17,,C:\Users\subject\Desktop\SVRT Experiments\SVRT Experiment 3\svrt_images\generated_images\results_problem_17\sample_1_0007.png,,,,,,,,,,,,,,,,,,,,,,0,1,1,1,0,21,21,21,,,,,,,,,,,,,,j,17,B,A,13,0,Incorrect!,1.650709800014738,394.7981762000127,None,394.7981762000127,None,396.48130670003593,None,,,,,51,001,2023-05-16_08h59.38.841,uncolored_shuffled,2021.2.3,59.97422307813654,
C:\Users\subject\Desktop\SVRT Experiments\SVRT Experiment 3\svrt_images\generated_images\results_problem_17,,C:\Users\subject\Desktop\SVRT Experiments\SVRT Experiment 3\svrt_images\generated_images\results_problem_17\sample_1_0002.png,,,,,,,,,,,,,,,,,,,,,,0,1,1,1,0,22,22,22,,,,,,,,,,,,,,f,17,A,A,13,1,Correct!,0.8470110000343993,397.6978907000157,None,397.6978907000157,None,398.56450370000675,None,,,,,51,001,2023-05-16_08h59.38.841,uncolored_shuffled,2021.2.3,59.97422307813654,
C:\Users\subject\Desktop\SVRT Experiments\SVRT Experiment 3\svrt_images\generated_images\results_problem_17,,C:\Users\subject\Desktop\SVRT Experiments\SVRT Experiment 3\svrt_images\generated_images\results_problem_17\sample_0_0006.png,,,,,,,,,,,,,,,,,,,,,,0,1,1,1,0,23,23,23,,,,,,,,,,,,,,f,17,A,B,13,0,Incorrect!,1.162826599960681,399.797898000048,None,399.797898000048,None,401.01439050002955,None,,,,,51,001,2023-05-16_08h59.38.841,uncolored_shuffled,2021.2.3,59.97422307813654,
C:\Users\subject\Desktop\SVRT Experiments\SVRT Experiment 3\svrt_images\generated_images\results_problem_17,,C:\Users\subject\Desktop\SVRT Experiments\SVRT Experiment 3\svrt_images\generated_images\results_problem_17\sample_0_0000.png,,,,,,,,,,,,,,,,,,,,,,0,1,1,1,0,24,24,24,,,,,,,,,,,,,,j,17,B,B,13,1,Correct!,1.8490828999783844,402.247629999998,None,402.247629999998,None,404.11416960001225,None,,,,,51,001,2023-05-16_08h59.38.841,uncolored_shuffled,2021.2.3,59.97422307813654,
C:\Users\subject\Desktop\SVRT Experiments\SVRT Experiment 3\svrt_images\generated_images\results_problem_17,,C:\Users\subject\Desktop\SVRT Experiments\SVRT Experiment 3\svrt_images\generated_images\results_problem_17\sample_0_0013.png,,,,,,,,,,,,,,,,,,,,,,0,1,1,1,0,25,25,25,,,,,,,,,,,,,,f,17,A,B,13,0,Incorrect!,1.8045127000077628,405.364105500048,None,405.364105500048,None,407.19730640004855,None,,,,,51,001,2023-05-16_08h59.38.841,uncolored_shuffled,2021.2.3,59.97422307813654,
C:\Users\subject\Desktop\SVRT Experiments\SVRT Experiment 3\svrt_images\generated_images\results_problem_17,,C:\Users\subject\Desktop\SVRT Experiments\SVRT Experiment 3\svrt_images\generated_images\results_problem_17\sample_0_0002.png,,,,,,,,,,,,,,,,,,,,,,0,1,1,1,0,26,26,26,,,,,,,,,,,,,,j,17,B,B,13,1,Correct!,1.0255556000047363,408.44726109999465,None,408.44726109999465,None,409.5138506000512,None,,,,,51,001,2023-05-16_08h59.38.841,uncolored_shuffled,2021.2.3,59.97422307813654,
C:\Users\subject\Desktop\SVRT Experiments\SVRT Experiment 3\svrt_images\generated_images\results_problem_17,,C:\Users\subject\Desktop\SVRT Experiments\SVRT Experiment 3\svrt_images\generated_images\results_problem_17\sample_1_0003.png,,,,,,,,,,,,,,,,,,,,,,0,1,1,1,0,27,27,27,,,,,,,,,,,,,,f,17,A,A,13,1,Correct!,2.7544625000446104,413.6141555000213,None,413.6141555000213,None,416.44673640001565,None,,,,,51,001,2023-05-16_08h59.38.841,uncolored_shuffled,2021.2.3,59.97422307813654,
C:\Users\subject\Desktop\SVRT Experiments\SVRT Experiment 3\svrt_images\generated_images\results_problem_17,,C:\Users\subject\Desktop\SVRT Experiments\SVRT Experiment 3\svrt_images\generated_images\results_problem_17\sample_0_0012.png,,,,,,,,,,,,,,,,,,,,,,0,1,1,1,0,28,28,28,,,,,,,,,,,,,,f,17,A,B,13,0,Incorrect!,1.0068036000011489,417.72981460002484,None,417.72981460002484,None,418.81321780005237,None,,,,,51,001,2023-05-16_08h59.38.841,uncolored_shuffled,2021.2.3,59.97422307813654,
C:\Users\subject\Desktop\SVRT Experiments\SVRT Experiment 3\svrt_images\generated_images\results_problem_17,,C:\Users\subject\Desktop\SVRT Experiments\SVRT Experiment 3\svrt_images\generated_images\results_problem_17\sample_1_0010.png,,,,,,,,,,,,,,,,,,,,,,0,1,1,1,0,29,29,29,,,,,,,,,,,,,,f,17,A,A,13,1,Correct!,2.9123766999691725,420.09650870005134,None,420.09650870005134,None,423.04630750004435,None,,,,,51,001,2023-05-16_08h59.38.841,uncolored_shuffled,2021.2.3,59.97422307813654,
C:\Users\subject\Desktop\SVRT Experiments\SVRT Experiment 3\svrt_images\generated_images\results_problem_17,,C:\Users\subject\Desktop\SVRT Experiments\SVRT Experiment 3\svrt_images\generated_images\results_problem_17\sample_0_0008.png,,,,,,,,,,,,,,,,,,,,,,0,1,1,1,0,30,30,30,,,,,,,,,,,,,,f,17,A,B,13,0,Incorrect!,1.878623999946285,424.346243100008,None,424.346243100008,None,426.2961540000397,None,,,,,51,001,2023-05-16_08h59.38.841,uncolored_shuffled,2021.2.3,59.97422307813654,
C:\Users\subject\Desktop\SVRT Experiments\SVRT Experiment 3\svrt_images\generated_images\results_problem_17,,C:\Users\subject\Desktop\SVRT Experiments\SVRT Experiment 3\svrt_images\generated_images\results_problem_17\sample_0_0004.png,,,,,,,,,,,,,,,,,,,,,,0,1,1,1,0,31,31,31,,,,,,,,,,,,,,f,17,A,B,13,0,Incorrect!,1.2049152000108734,427.59603050001897,None,427.59603050001897,None,428.8792768000276,None,,,,,51,001,2023-05-16_08h59.38.841,uncolored_shuffled,2021.2.3,59.97422307813654,
C:\Users\subject\Desktop\SVRT Experiments\SVRT Experiment 3\svrt_images\generated_images\results_problem_17,,C:\Users\subject\Desktop\SVRT Experiments\SVRT Experiment 3\svrt_images\generated_images\results_problem_17\sample_0_0005.png,,,,,,,,,,,,,,,,,,,,,,0,1,1,1,0,32,32,32,,,,,,,,,,,,,,j,17,B,B,13,1,Correct!,0.7011021000216715,430.19588370004203,None,430.19588370004203,None,430.9291638000286,None,,,,,51,001,2023-05-16_08h59.38.841,uncolored_shuffled,2021.2.3,59.97422307813654,
C:\Users\subject\Desktop\SVRT Experiments\SVRT Experiment 3\svrt_images\generated_images\results_problem_17,,C:\Users\subject\Desktop\SVRT Experiments\SVRT Experiment 3\svrt_images\generated_images\results_problem_17\sample_0_0009.png,,,,,,,,,,,,,,,,,,,,,,0,1,1,1,0,33,33,33,,,,,,,,,,,,,,j,17,B,B,13,1,Correct!,0.7311522000236437,432.2457295000204,None,432.2457295000204,None,433.0123506000382,None,,,,,51,001,2023-05-16_08h59.38.841,uncolored_shuffled,2021.2.3,59.97422307813654,
C:\Users\subject\Desktop\SVRT Experiments\SVRT Experiment 3\svrt_images\generated_images\results_problem_17,,,,,,,,,,,,,,,,,,,,,,,,0,1,1,1,,,,,,,,,,,,,,,,,,,,,,,,,,,,,,,,434.0122908000485,434.0122908000485,space,2.8365752000245266,51,001,2023-05-16_08h59.38.841,uncolored_shuffled,2021.2.3,59.97422307813654,
C:\Users\subject\Desktop\SVRT Experiments\SVRT Experiment 3\svrt_images\generated_images\results_problem_19,,,C:\Users\subject\Desktop\SVRT Experiments\SVRT Experiment 3\svrt_images\generated_images\results_problem_19\sample_0_0015.png,,,,,,,,,,,,,,,,,,,,,0,2,2,2,0,0,0,0,,,,,,,,,,,,,,f,19,A,B,13,0,Incorrect!,1.7740676999674179,436.9788228000398,None,436.9788228000398,None,438.77865250001196,None,,,,,51,001,2023-05-16_08h59.38.841,uncolored_shuffled,2021.2.3,59.97422307813654,
C:\Users\subject\Desktop\SVRT Experiments\SVRT Experiment 3\svrt_images\generated_images\results_problem_19,,,C:\Users\subject\Desktop\SVRT Experiments\SVRT Experiment 3\svrt_images\generated_images\results_problem_19\sample_0_0011.png,,,,,,,,,,,,,,,,,,,,,0,2,2,2,0,1,1,1,,,,,,,,,,,,,,f,19,A,B,13,0,Incorrect!,2.8755703999777324,439.8453696000506,None,439.8453696000506,None,442.7450996999978,None,,,,,51,001,2023-05-16_08h59.38.841,uncolored_shuffled,2021.2.3,59.97422307813654,
C:\Users\subject\Desktop\SVRT Experiments\SVRT Experiment 3\svrt_images\generated_images\results_problem_19,,,C:\Users\subject\Desktop\SVRT Experiments\SVRT Experiment 3\svrt_images\generated_images\results_problem_19\sample_0_0007.png,,,,,,,,,,,,,,,,,,,,,0,2,2,2,0,2,2,2,,,,,,,,,,,,,,j,19,B,B,13,1,Correct!,1.0218801999581046,443.7950060000294,None,443.7950060000294,None,444.84497780003585,None,,,,,51,001,2023-05-16_08h59.38.841,uncolored_shuffled,2021.2.3,59.97422307813654,
C:\Users\subject\Desktop\SVRT Experiments\SVRT Experiment 3\svrt_images\generated_images\results_problem_19,,,C:\Users\subject\Desktop\SVRT Experiments\SVRT Experiment 3\svrt_images\generated_images\results_problem_19\sample_1_0015.png,,,,,,,,,,,,,,,,,,,,,0,2,2,2,0,3,3,3,,,,,,,,,,,,,,j,19,B,A,13,0,Incorrect!,1.2733265000279061,445.91160320001654,None,445.91160320001654,None,447.2116948000039,None,,,,,51,001,2023-05-16_08h59.38.841,uncolored_shuffled,2021.2.3,59.97422307813654,
C:\Users\subject\Desktop\SVRT Experiments\SVRT Experiment 3\svrt_images\generated_images\results_problem_19,,,C:\Users\subject\Desktop\SVRT Experiments\SVRT Experiment 3\svrt_images\generated_images\results_problem_19\sample_0_0016.png,,,,,,,,,,,,,,,,,,,,,0,2,2,2,0,4,4,4,,,,,,,,,,,,,,f,19,A,B,13,0,Incorrect!,3.6905451000202447,448.27828900003806,None,448.27828900003806,None,451.99471690005157,None,,,,,51,001,2023-05-16_08h59.38.841,uncolored_shuffled,2021.2.3,59.97422307813654,
C:\Users\subject\Desktop\SVRT Experiments\SVRT Experiment 3\svrt_images\generated_images\results_problem_19,,,C:\Users\subject\Desktop\SVRT Experiments\SVRT Experiment 3\svrt_images\generated_images\results_problem_19\sample_0_0002.png,,,,,,,,,,,,,,,,,,,,,0,2,2,2,0,5,5,5,,,,,,,,,,,,,,j,19,B,B,13,1,Correct!,3.081602499994915,453.11137560004136,None,453.11137560004136,None,456.21087760000955,None,,,,,51,001,2023-05-16_08h59.38.841,uncolored_shuffled,2021.2.3,59.97422307813654,
C:\Users\subject\Desktop\SVRT Experiments\SVRT Experiment 3\svrt_images\generated_images\results_problem_19,,,C:\Users\subject\Desktop\SVRT Experiments\SVRT Experiment 3\svrt_images\generated_images\results_problem_19\sample_1_0016.png,,,,,,,,,,,,,,,,,,,,,0,2,2,2,0,6,6,6,,,,,,,,,,,,,,j,19,B,A,13,0,Incorrect!,2.8555565000278875,457.5613790000207,None,457.5613790000207,None,460.44396730000153,None,,,,,51,001,2023-05-16_08h59.38.841,uncolored_shuffled,2021.2.3,59.97422307813654,
C:\Users\subject\Desktop\SVRT Experiments\SVRT Experiment 3\svrt_images\generated_images\results_problem_19,,,C:\Users\subject\Desktop\SVRT Experiments\SVRT Experiment 3\svrt_images\generated_images\results_problem_19\sample_1_0012.png,,,,,,,,,,,,,,,,,,,,,0,2,2,2,0,7,7,7,,,,,,,,,,,,,,f,19,A,A,13,1,Correct!,3.3216779999784194,461.52724790002685,None,461.52724790002685,None,464.8770385000389,None,,,,,51,001,2023-05-16_08h59.38.841,uncolored_shuffled,2021.2.3,59.97422307813654,
C:\Users\subject\Desktop\SVRT Experiments\SVRT Experiment 3\svrt_images\generated_images\results_problem_19,,,C:\Users\subject\Desktop\SVRT Experiments\SVRT Experiment 3\svrt_images\generated_images\results_problem_19\sample_1_0001.png,,,,,,,,,,,,,,,,,,,,,0,2,2,2,0,8,8,8,,,,,,,,,,,,,,f,19,A,A,13,1,Correct!,1.3928387999767438,466.1281194000039,None,466.1281194000039,None,467.5435506000067,None,,,,,51,001,2023-05-16_08h59.38.841,uncolored_shuffled,2021.2.3,59.97422307813654,
C:\Users\subject\Desktop\SVRT Experiments\SVRT Experiment 3\svrt_images\generated_images\results_problem_19,,,C:\Users\subject\Desktop\SVRT Experiments\SVRT Experiment 3\svrt_images\generated_images\results_problem_19\sample_1_0007.png,,,,,,,,,,,,,,,,,,,,,0,2,2,2,0,9,9,9,,,,,,,,,,,,,,j,19,B,A,13,0,Incorrect!,1.7261196000035852,468.6268175000441,None,468.6268175000441,None,470.3767041999963,None,,,,,51,001,2023-05-16_08h59.38.841,uncolored_shuffled,2021.2.3,59.97422307813654,
C:\Users\subject\Desktop\SVRT Experiments\SVRT Experiment 3\svrt_images\generated_images\results_problem_19,,,C:\Users\subject\Desktop\SVRT Experiments\SVRT Experiment 3\svrt_images\generated_images\results_problem_19\sample_1_0004.png,,,,,,,,,,,,,,,,,,,,,0,2,2,2,0,10,10,10,,,,,,,,,,,,,,f,19,A,A,13,1,Correct!,1.0490018000127748,471.5599599000416,None,471.5599599000416,None,472.6263971000444,None,,,,,51,001,2023-05-16_08h59.38.841,uncolored_shuffled,2021.2.3,59.97422307813654,
C:\Users\subject\Desktop\SVRT Experiments\SVRT Experiment 3\svrt_images\generated_images\results_problem_19,,,C:\Users\subject\Desktop\SVRT Experiments\SVRT Experiment 3\svrt_images\generated_images\results_problem_19\sample_0_0010.png,,,,,,,,,,,,,,,,,,,,,0,2,2,2,0,11,11,11,,,,,,,,,,,,,,f,19,A,B,13,0,Incorrect!,0.8492135999840684,473.75966150005115,None,473.75966150005115,None,474.6264559000265,None,,,,,51,001,2023-05-16_08h59.38.841,uncolored_shuffled,2021.2.3,59.97422307813654,
C:\Users\subject\Desktop\SVRT Experiments\SVRT Experiment 3\svrt_images\generated_images\results_problem_19,,,C:\Users\subject\Desktop\SVRT Experiments\SVRT Experiment 3\svrt_images\generated_images\results_problem_19\sample_0_0009.png,,,,,,,,,,,,,,,,,,,,,0,2,2,2,0,12,12,12,,,,,,,,,,,,,,j,19,B,B,13,1,Correct!,2.881272100028582,475.75973710004473,None,475.75973710004473,None,478.6593544000061,None,,,,,51,001,2023-05-16_08h59.38.841,uncolored_shuffled,2021.2.3,59.97422307813654,
C:\Users\subject\Desktop\SVRT Experiments\SVRT Experiment 3\svrt_images\generated_images\results_problem_19,,,C:\Users\subject\Desktop\SVRT Experiments\SVRT Experiment 3\svrt_images\generated_images\results_problem_19\sample_1_0014.png,,,,,,,,,,,,,,,,,,,,,0,2,2,2,0,13,13,13,,,,,,,,,,,,,,j,19,B,A,13,0,Incorrect!,0.9289777000085451,479.77599380002357,None,479.77599380002357,None,480.7260820000083,None,,,,,51,001,2023-05-16_08h59.38.841,uncolored_shuffled,2021.2.3,59.97422307813654,
C:\Users\subject\Desktop\SVRT Experiments\SVRT Experiment 3\svrt_images\generated_images\results_problem_19,,,C:\Users\subject\Desktop\SVRT Experiments\SVRT Experiment 3\svrt_images\generated_images\results_problem_19\sample_0_0014.png,,,,,,,,,,,,,,,,,,,,,0,2,2,2,0,14,14,14,,,,,,,,,,,,,,j,19,B,B,13,1,Correct!,0.765529400028754,481.85934260004433,None,481.85934260004433,None,482.64257830003044,None,,,,,51,001,2023-05-16_08h59.38.841,uncolored_shuffled,2021.2.3,59.97422307813654,
C:\Users\subject\Desktop\SVRT Experiments\SVRT Experiment 3\svrt_images\generated_images\results_problem_19,,,C:\Users\subject\Desktop\SVRT Experiments\SVRT Experiment 3\svrt_images\generated_images\results_problem_19\sample_1_0003.png,,,,,,,,,,,,,,,,,,,,,0,2,2,2,0,15,15,15,,,,,,,,,,,,,,j,19,B,A,13,0,Incorrect!,0.8324326000292785,483.79254460002994,None,483.79254460002994,None,484.64252680004574,None,,,,,51,001,2023-05-16_08h59.38.841,uncolored_shuffled,2021.2.3,59.97422307813654,
C:\Users\subject\Desktop\SVRT Experiments\SVRT Experiment 3\svrt_images\generated_images\results_problem_19,,,C:\Users\subject\Desktop\SVRT Experiments\SVRT Experiment 3\svrt_images\generated_images\results_problem_19\sample_0_0003.png,,,,,,,,,,,,,,,,,,,,,0,2,2,2,0,16,16,16,,,,,,,,,,,,,,f,19,A,B,13,0,Incorrect!,0.6552411000011489,485.82575800002087,None,485.82575800002087,None,486.50904309999896,None,,,,,51,001,2023-05-16_08h59.38.841,uncolored_shuffled,2021.2.3,59.97422307813654,
C:\Users\subject\Desktop\SVRT Experiments\SVRT Experiment 3\svrt_images\generated_images\results_problem_19,,,C:\Users\subject\Desktop\SVRT Experiments\SVRT Experiment 3\svrt_images\generated_images\results_problem_19\sample_1_0013.png,,,,,,,,,,,,,,,,,,,,,0,2,2,2,0,17,17,17,,,,,,,,,,,,,,j,19,B,A,13,0,Incorrect!,2.149863800033927,487.65896730002714,None,487.65896730002714,None,489.84222829999635,None,,,,,51,001,2023-05-16_08h59.38.841,uncolored_shuffled,2021.2.3,59.97422307813654,
C:\Users\subject\Desktop\SVRT Experiments\SVRT Experiment 3\svrt_images\generated_images\results_problem_19,,,C:\Users\subject\Desktop\SVRT Experiments\SVRT Experiment 3\svrt_images\generated_images\results_problem_19\sample_0_0006.png,,,,,,,,,,,,,,,,,,,,,0,2,2,2,0,18,18,18,,,,,,,,,,,,,,j,19,B,B,13,1,Correct!,4.352234199992381,491.00877360004233,None,491.00877360004233,None,495.3918343000114,None,,,,,51,001,2023-05-16_08h59.38.841,uncolored_shuffled,2021.2.3,59.97422307813654,
C:\Users\subject\Desktop\SVRT Experiments\SVRT Experiment 3\svrt_images\generated_images\results_problem_19,,,C:\Users\subject\Desktop\SVRT Experiments\SVRT Experiment 3\svrt_images\generated_images\results_problem_19\sample_1_0010.png,,,,,,,,,,,,,,,,,,,,,0,2,2,2,0,19,19,19,,,,,,,,,,,,,,f,19,A,A,13,1,Correct!,1.170380900031887,496.55844480003,None,496.55844480003,None,497.7750178000424,None,,,,,51,001,2023-05-16_08h59.38.841,uncolored_shuffled,2021.2.3,59.97422307813654,
C:\Users\subject\Desktop\SVRT Experiments\SVRT Experiment 3\svrt_images\generated_images\results_problem_19,,,C:\Users\subject\Desktop\SVRT Experiments\SVRT Experiment 3\svrt_images\generated_images\results_problem_19\sample_0_0004.png,,,,,,,,,,,,,,,,,,,,,0,2,2,2,0,20,20,20,,,,,,,,,,,,,,j,19,B,B,13,1,Correct!,1.2468570999917574,499.44212459999835,None,499.44212459999835,None,500.72519240004476,None,,,,,51,001,2023-05-16_08h59.38.841,uncolored_shuffled,2021.2.3,59.97422307813654,
C:\Users\subject\Desktop\SVRT Experiments\SVRT Experiment 3\svrt_images\generated_images\results_problem_19,,,C:\Users\subject\Desktop\SVRT Experiments\SVRT Experiment 3\svrt_images\generated_images\results_problem_19\sample_0_0000.png,,,,,,,,,,,,,,,,,,,,,0,2,2,2,0,21,21,21,,,,,,,,,,,,,,f,19,A,B,13,0,Incorrect!,0.6171060999622568,501.9917901000008,None,501.9917901000008,None,502.64138630003436,None,,,,,51,001,2023-05-16_08h59.38.841,uncolored_shuffled,2021.2.3,59.97422307813654,
C:\Users\subject\Desktop\SVRT Experiments\SVRT Experiment 3\svrt_images\generated_images\results_problem_19,,,C:\Users\subject\Desktop\SVRT Experiments\SVRT Experiment 3\svrt_images\generated_images\results_problem_19\sample_0_0013.png,,,,,,,,,,,,,,,,,,,,,0,2,2,2,0,22,22,22,,,,,,,,,,,,,,j,19,B,B,13,1,Correct!,1.9990552000235766,503.8579849000089,None,503.8579849000089,None,505.87453260004986,None,,,,,51,001,2023-05-16_08h59.38.841,uncolored_shuffled,2021.2.3,59.97422307813654,
C:\Users\subject\Desktop\SVRT Experiments\SVRT Experiment 3\svrt_images\generated_images\results_problem_19,,,C:\Users\subject\Desktop\SVRT Experiments\SVRT Experiment 3\svrt_images\generated_images\results_problem_19\sample_1_0006.png,,,,,,,,,,,,,,,,,,,,,0,2,2,2,0,23,23,23,,,,,,,,,,,,,,f,19,A,A,13,1,Correct!,0.9544889000244439,507.1744538000203,None,507.1744538000203,None,508.1910494000185,None,,,,,51,001,2023-05-16_08h59.38.841,uncolored_shuffled,2021.2.3,59.97422307813654,
C:\Users\subject\Desktop\SVRT Experiments\SVRT Experiment 3\svrt_images\generated_images\results_problem_19,,,C:\Users\subject\Desktop\SVRT Experiments\SVRT Experiment 3\svrt_images\generated_images\results_problem_19\sample_1_0008.png,,,,,,,,,,,,,,,,,,,,,0,2,2,2,0,24,24,24,,,,,,,,,,,,,,f,19,A,A,13,1,Correct!,0.8780387000297196,509.49098890001187,None,509.49098890001187,None,510.4075647999998,None,,,,,51,001,2023-05-16_08h59.38.841,uncolored_shuffled,2021.2.3,59.97422307813654,
C:\Users\subject\Desktop\SVRT Experiments\SVRT Experiment 3\svrt_images\generated_images\results_problem_19,,,C:\Users\subject\Desktop\SVRT Experiments\SVRT Experiment 3\svrt_images\generated_images\results_problem_19\sample_0_0001.png,,,,,,,,,,,,,,,,,,,,,0,2,2,2,0,25,25,25,,,,,,,,,,,,,,f,19,A,B,13,0,Incorrect!,1.9429567999904975,512.0580708000343,None,512.0580708000343,None,514.0406828999985,None,,,,,51,001,2023-05-16_08h59.38.841,uncolored_shuffled,2021.2.3,59.97422307813654,
C:\Users\subject\Desktop\SVRT Experiments\SVRT Experiment 3\svrt_images\generated_images\results_problem_19,,,C:\Users\subject\Desktop\SVRT Experiments\SVRT Experiment 3\svrt_images\generated_images\results_problem_19\sample_1_0002.png,,,,,,,,,,,,,,,,,,,,,0,2,2,2,0,26,26,26,,,,,,,,,,,,,,j,19,B,A,13,0,Incorrect!,1.189527900016401,515.3073256000062,None,515.3073256000062,None,516.5405719000264,None,,,,,51,001,2023-05-16_08h59.38.841,uncolored_shuffled,2021.2.3,59.97422307813654,
C:\Users\subject\Desktop\SVRT Experiments\SVRT Experiment 3\svrt_images\generated_images\results_problem_19,,,C:\Users\subject\Desktop\SVRT Experiments\SVRT Experiment 3\svrt_images\generated_images\results_problem_19\sample_0_0008.png,,,,,,,,,,,,,,,,,,,,,0,2,2,2,0,27,27,27,,,,,,,,,,,,,,f,19,A,B,13,0,Incorrect!,0.755144199996721,517.7738271999988,None,517.7738271999988,None,518.5904006000492,None,,,,,51,001,2023-05-16_08h59.38.841,uncolored_shuffled,2021.2.3,59.97422307813654,
C:\Users\subject\Desktop\SVRT Experiments\SVRT Experiment 3\svrt_images\generated_images\results_problem_19,,,C:\Users\subject\Desktop\SVRT Experiments\SVRT Experiment 3\svrt_images\generated_images\results_problem_19\sample_1_0000.png,,,,,,,,,,,,,,,,,,,,,0,2,2,2,0,28,28,28,,,,,,,,,,,,,,j,19,B,A,13,0,Incorrect!,2.271453199966345,520.2575369999977,None,520.2575369999977,None,522.5735041000298,None,,,,,51,001,2023-05-16_08h59.38.841,uncolored_shuffled,2021.2.3,59.97422307813654,
C:\Users\subject\Desktop\SVRT Experiments\SVRT Experiment 3\svrt_images\generated_images\results_problem_19,,,C:\Users\subject\Desktop\SVRT Experiments\SVRT Experiment 3\svrt_images\generated_images\results_problem_19\sample_0_0012.png,,,,,,,,,,,,,,,,,,,,,0,2,2,2,0,29,29,29,,,,,,,,,,,,,,f,19,A,B,13,0,Incorrect!,1.5202362000127323,523.8567456000019,None,523.8567456000019,None,525.40667940001,None,,,,,51,001,2023-05-16_08h59.38.841,uncolored_shuffled,2021.2.3,59.97422307813654,
C:\Users\subject\Desktop\SVRT Experiments\SVRT Experiment 3\svrt_images\generated_images\results_problem_19,,,C:\Users\subject\Desktop\SVRT Experiments\SVRT Experiment 3\svrt_images\generated_images\results_problem_19\sample_1_0011.png,,,,,,,,,,,,,,,,,,,,,0,2,2,2,0,30,30,30,,,,,,,,,,,,,,j,19,B,A,13,0,Incorrect!,1.1350789000280201,526.6899369000457,None,526.6899369000457,None,527.9065379000385,None,,,,,51,001,2023-05-16_08h59.38.841,uncolored_shuffled,2021.2.3,59.97422307813654,
C:\Users\subject\Desktop\SVRT Experiments\SVRT Experiment 3\svrt_images\generated_images\results_problem_19,,,C:\Users\subject\Desktop\SVRT Experiments\SVRT Experiment 3\svrt_images\generated_images\results_problem_19\sample_1_0005.png,,,,,,,,,,,,,,,,,,,,,0,2,2,2,0,31,31,31,,,,,,,,,,,,,,f,19,A,A,13,1,Correct!,3.594547800021246,529.2064405000419,None,529.2064405000419,None,532.822869900032,None,,,,,51,001,2023-05-16_08h59.38.841,uncolored_shuffled,2021.2.3,59.97422307813654,
C:\Users\subject\Desktop\SVRT Experiments\SVRT Experiment 3\svrt_images\generated_images\results_problem_19,,,C:\Users\subject\Desktop\SVRT Experiments\SVRT Experiment 3\svrt_images\generated_images\results_problem_19\sample_0_0005.png,,,,,,,,,,,,,,,,,,,,,0,2,2,2,0,32,32,32,,,,,,,,,,,,,,f,19,A,B,13,0,Incorrect!,1.3335760000045411,534.1394597000326,None,534.1394597000326,None,535.5227386000333,None,,,,,51,001,2023-05-16_08h59.38.841,uncolored_shuffled,2021.2.3,59.97422307813654,
C:\Users\subject\Desktop\SVRT Experiments\SVRT Experiment 3\svrt_images\generated_images\results_problem_19,,,C:\Users\subject\Desktop\SVRT Experiments\SVRT Experiment 3\svrt_images\generated_images\results_problem_19\sample_1_0009.png,,,,,,,,,,,,,,,,,,,,,0,2,2,2,0,33,33,33,,,,,,,,,,,,,,j,19,B,A,13,0,Incorrect!,0.5370531000080518,536.8559725999949,None,536.8559725999949,None,537.4392483000411,None,,,,,51,001,2023-05-16_08h59.38.841,uncolored_shuffled,2021.2.3,59.97422307813654,
C:\Users\subject\Desktop\SVRT Experiments\SVRT Experiment 3\svrt_images\generated_images\results_problem_19,,,,,,,,,,,,,,,,,,,,,,,,0,2,2,2,,,,,,,,,,,,,,,,,,,,,,,,,,,,,,,,538.4392387000262,538.4392387000262,space,2.8256809000158682,51,001,2023-05-16_08h59.38.841,uncolored_shuffled,2021.2.3,59.97422307813654,
C:\Users\subject\Desktop\SVRT Experiments\SVRT Experiment 3\svrt_images\generated_images\results_problem_6,,,,C:\Users\subject\Desktop\SVRT Experiments\SVRT Experiment 3\svrt_images\generated_images\results_problem_6\sample_0_0016.png,,,,,,,,,,,,,,,,,,,,0,3,3,3,0,0,0,0,,,,,,,,,,,,,,f,6,A,B,13,0,Incorrect!,1.5181393999955617,541.5229738000198,None,541.5229738000198,None,543.0728144000168,None,,,,,51,001,2023-05-16_08h59.38.841,uncolored_shuffled,2021.2.3,59.97422307813654,
C:\Users\subject\Desktop\SVRT Experiments\SVRT Experiment 3\svrt_images\generated_images\results_problem_6,,,,C:\Users\subject\Desktop\SVRT Experiments\SVRT Experiment 3\svrt_images\generated_images\results_problem_6\sample_0_0006.png,,,,,,,,,,,,,,,,,,,,0,3,3,3,0,1,1,1,,,,,,,,,,,,,,f,6,A,B,13,0,Incorrect!,1.2842023999546655,544.1727734000306,None,544.1727734000306,None,545.4892546000192,None,,,,,51,001,2023-05-16_08h59.38.841,uncolored_shuffled,2021.2.3,59.97422307813654,
C:\Users\subject\Desktop\SVRT Experiments\SVRT Experiment 3\svrt_images\generated_images\results_problem_6,,,,C:\Users\subject\Desktop\SVRT Experiments\SVRT Experiment 3\svrt_images\generated_images\results_problem_6\sample_1_0015.png,,,,,,,,,,,,,,,,,,,,0,3,3,3,0,2,2,2,,,,,,,,,,,,,,j,6,B,A,13,0,Incorrect!,0.6444980999804102,546.5725491000339,None,546.5725491000339,None,547.2391736000427,None,,,,,51,001,2023-05-16_08h59.38.841,uncolored_shuffled,2021.2.3,59.97422307813654,
C:\Users\subject\Desktop\SVRT Experiments\SVRT Experiment 3\svrt_images\generated_images\results_problem_6,,,,C:\Users\subject\Desktop\SVRT Experiments\SVRT Experiment 3\svrt_images\generated_images\results_problem_6\sample_0_0015.png,,,,,,,,,,,,,,,,,,,,0,3,3,3,0,3,3,3,,,,,,,,,,,,,,j,6,B,B,13,1,Correct!,0.9112786000478081,548.3057541000308,None,548.3057541000308,None,549.2389895000379,None,,,,,51,001,2023-05-16_08h59.38.841,uncolored_shuffled,2021.2.3,59.97422307813654,
C:\Users\subject\Desktop\SVRT Experiments\SVRT Experiment 3\svrt_images\generated_images\results_problem_6,,,,C:\Users\subject\Desktop\SVRT Experiments\SVRT Experiment 3\svrt_images\generated_images\results_problem_6\sample_1_0016.png,,,,,,,,,,,,,,,,,,,,0,3,3,3,0,4,4,4,,,,,,,,,,,,,,j,6,B,A,13,0,Incorrect!,1.1678815999766812,550.3051942000166,None,550.3051942000166,None,551.5050968000432,None,,,,,51,001,2023-05-16_08h59.38.841,uncolored_shuffled,2021.2.3,59.97422307813654,
C:\Users\subject\Desktop\SVRT Experiments\SVRT Experiment 3\svrt_images\generated_images\results_problem_6,,,,C:\Users\subject\Desktop\SVRT Experiments\SVRT Experiment 3\svrt_images\generated_images\results_problem_6\sample_0_0003.png,,,,,,,,,,,,,,,,,,,,0,3,3,3,0,5,5,5,,,,,,,,,,,,,,f,6,A,B,13,0,Incorrect!,0.8205658999504521,552.5883540000068,None,552.5883540000068,None,553.4383472000482,None,,,,,51,001,2023-05-16_08h59.38.841,uncolored_shuffled,2021.2.3,59.97422307813654,
C:\Users\subject\Desktop\SVRT Experiments\SVRT Experiment 3\svrt_images\generated_images\results_problem_6,,,,C:\Users\subject\Desktop\SVRT Experiments\SVRT Experiment 3\svrt_images\generated_images\results_problem_6\sample_1_0007.png,,,,,,,,,,,,,,,,,,,,0,3,3,3,0,6,6,6,,,,,,,,,,,,,,j,6,B,A,13,0,Incorrect!,2.087231100013014,554.5215909000253,None,554.5215909000253,None,556.6380479000509,None,,,,,51,001,2023-05-16_08h59.38.841,uncolored_shuffled,2021.2.3,59.97422307813654,
C:\Users\subject\Desktop\SVRT Experiments\SVRT Experiment 3\svrt_images\generated_images\results_problem_6,,,,C:\Users\subject\Desktop\SVRT Experiments\SVRT Experiment 3\svrt_images\generated_images\results_problem_6\sample_1_0010.png,,,,,,,,,,,,,,,,,,,,0,3,3,3,0,7,7,7,,,,,,,,,,,,,,f,6,A,A,13,1,Correct!,2.4391466999659315,557.7379755000002,None,557.7379755000002,None,560.2043790000025,None,,,,,51,001,2023-05-16_08h59.38.841,uncolored_shuffled,2021.2.3,59.97422307813654,
C:\Users\subject\Desktop\SVRT Experiments\SVRT Experiment 3\svrt_images\generated_images\results_problem_6,,,,C:\Users\subject\Desktop\SVRT Experiments\SVRT Experiment 3\svrt_images\generated_images\results_problem_6\sample_1_0012.png,,,,,,,,,,,,,,,,,,,,0,3,3,3,0,8,8,8,,,,,,,,,,,,,,j,6,B,A,13,0,Incorrect!,1.4168777000159025,561.304308700026,None,561.304308700026,None,562.754444900027,None,,,,,51,001,2023-05-16_08h59.38.841,uncolored_shuffled,2021.2.3,59.97422307813654,
C:\Users\subject\Desktop\SVRT Experiments\SVRT Experiment 3\svrt_images\generated_images\results_problem_6,,,,C:\Users\subject\Desktop\SVRT Experiments\SVRT Experiment 3\svrt_images\generated_images\results_problem_6\sample_0_0004.png,,,,,,,,,,,,,,,,,,,,0,3,3,3,0,9,9,9,,,,,,,,,,,,,,f,6,A,B,13,0,Incorrect!,0.6728127999813296,563.9043155999971,None,563.9043155999971,None,564.6043189000338,None,,,,,51,001,2023-05-16_08h59.38.841,uncolored_shuffled,2021.2.3,59.97422307813654,
C:\Users\subject\Desktop\SVRT Experiments\SVRT Experiment 3\svrt_images\generated_images\results_problem_6,,,,C:\Users\subject\Desktop\SVRT Experiments\SVRT Experiment 3\svrt_images\generated_images\results_problem_6\sample_1_0008.png,,,,,,,,,,,,,,,,,,,,0,3,3,3,0,10,10,10,,,,,,,,,,,,,,f,6,A,A,13,1,Correct!,1.384177699976135,565.7208861000254,None,565.7208861000254,None,567.137474200048,None,,,,,51,001,2023-05-16_08h59.38.841,uncolored_shuffled,2021.2.3,59.97422307813654,
C:\Users\subject\Desktop\SVRT Experiments\SVRT Experiment 3\svrt_images\generated_images\results_problem_6,,,,C:\Users\subject\Desktop\SVRT Experiments\SVRT Experiment 3\svrt_images\generated_images\results_problem_6\sample_0_0005.png,,,,,,,,,,,,,,,,,,,,0,3,3,3,0,11,11,11,,,,,,,,,,,,,,j,6,B,B,13,1,Correct!,1.3470551000209525,568.2540712000336,None,568.2540712000336,None,569.6204739999957,None,,,,,51,001,2023-05-16_08h59.38.841,uncolored_shuffled,2021.2.3,59.97422307813654,
C:\Users\subject\Desktop\SVRT Experiments\SVRT Experiment 3\svrt_images\generated_images\results_problem_6,,,,C:\Users\subject\Desktop\SVRT Experiments\SVRT Experiment 3\svrt_images\generated_images\results_problem_6\sample_0_0009.png,,,,,,,,,,,,,,,,,,,,0,3,3,3,0,12,12,12,,,,,,,,,,,,,,j,6,B,B,13,1,Correct!,0.8793453000253066,570.753736600047,None,570.753736600047,None,571.6538636000478,None,,,,,51,001,2023-05-16_08h59.38.841,uncolored_shuffled,2021.2.3,59.97422307813654,
C:\Users\subject\Desktop\SVRT Experiments\SVRT Experiment 3\svrt_images\generated_images\results_problem_6,,,,C:\Users\subject\Desktop\SVRT Experiments\SVRT Experiment 3\svrt_images\generated_images\results_problem_6\sample_0_0013.png,,,,,,,,,,,,,,,,,,,,0,3,3,3,0,13,13,13,,,,,,,,,,,,,,f,6,A,B,13,0,Incorrect!,0.9898258000030182,572.787125700037,None,572.787125700037,None,573.8036885000183,None,,,,,51,001,2023-05-16_08h59.38.841,uncolored_shuffled,2021.2.3,59.97422307813654,
C:\Users\subject\Desktop\SVRT Experiments\SVRT Experiment 3\svrt_images\generated_images\results_problem_6,,,,C:\Users\subject\Desktop\SVRT Experiments\SVRT Experiment 3\svrt_images\generated_images\results_problem_6\sample_1_0011.png,,,,,,,,,,,,,,,,,,,,0,3,3,3,0,14,14,14,,,,,,,,,,,,,,j,6,B,A,13,0,Incorrect!,0.8713497000280768,574.9536417000345,None,574.9536417000345,None,575.870264200028,None,,,,,51,001,2023-05-16_08h59.38.841,uncolored_shuffled,2021.2.3,59.97422307813654,
C:\Users\subject\Desktop\SVRT Experiments\SVRT Experiment 3\svrt_images\generated_images\results_problem_6,,,,C:\Users\subject\Desktop\SVRT Experiments\SVRT Experiment 3\svrt_images\generated_images\results_problem_6\sample_0_0001.png,,,,,,,,,,,,,,,,,,,,0,3,3,3,0,15,15,15,,,,,,,,,,,,,,f,6,A,B,13,0,Incorrect!,0.9128187000169419,577.1201865000185,None,577.1201865000185,None,578.0701560000307,None,,,,,51,001,2023-05-16_08h59.38.841,uncolored_shuffled,2021.2.3,59.97422307813654,
C:\Users\subject\Desktop\SVRT Experiments\SVRT Experiment 3\svrt_images\generated_images\results_problem_6,,,,C:\Users\subject\Desktop\SVRT Experiments\SVRT Experiment 3\svrt_images\generated_images\results_problem_6\sample_1_0006.png,,,,,,,,,,,,,,,,,,,,0,3,3,3,0,16,16,16,,,,,,,,,,,,,,j,6,B,A,13,0,Incorrect!,1.0201307000243105,579.2367764000082,None,579.2367764000082,None,580.2866619999986,None,,,,,51,001,2023-05-16_08h59.38.841,uncolored_shuffled,2021.2.3,59.97422307813654,
C:\Users\subject\Desktop\SVRT Experiments\SVRT Experiment 3\svrt_images\generated_images\results_problem_6,,,,C:\Users\subject\Desktop\SVRT Experiments\SVRT Experiment 3\svrt_images\generated_images\results_problem_6\sample_1_0003.png,,,,,,,,,,,,,,,,,,,,0,3,3,3,0,17,17,17,,,,,,,,,,,,,,j,6,B,A,13,0,Incorrect!,0.5158302999916486,581.453267200035,None,581.453267200035,None,582.0032051000162,None,,,,,51,001,2023-05-16_08h59.38.841,uncolored_shuffled,2021.2.3,59.97422307813654,
C:\Users\subject\Desktop\SVRT Experiments\SVRT Experiment 3\svrt_images\generated_images\results_problem_6,,,,C:\Users\subject\Desktop\SVRT Experiments\SVRT Experiment 3\svrt_images\generated_images\results_problem_6\sample_1_0000.png,,,,,,,,,,,,,,,,,,,,0,3,3,3,0,18,18,18,,,,,,,,,,,,,,j,6,B,A,13,0,Incorrect!,0.923247300030198,583.2698840000085,None,583.2698840000085,None,584.2197472000262,None,,,,,51,001,2023-05-16_08h59.38.841,uncolored_shuffled,2021.2.3,59.97422307813654,
C:\Users\subject\Desktop\SVRT Experiments\SVRT Experiment 3\svrt_images\generated_images\results_problem_6,,,,C:\Users\subject\Desktop\SVRT Experiments\SVRT Experiment 3\svrt_images\generated_images\results_problem_6\sample_0_0014.png,,,,,,,,,,,,,,,,,,,,0,3,3,3,0,19,19,19,,,,,,,,,,,,,,f,6,A,B,13,0,Incorrect!,0.6613288000226021,585.4196773000294,None,585.4196773000294,None,586.1029716000194,None,,,,,51,001,2023-05-16_08h59.38.841,uncolored_shuffled,2021.2.3,59.97422307813654,
C:\Users\subject\Desktop\SVRT Experiments\SVRT Experiment 3\svrt_images\generated_images\results_problem_6,,,,C:\Users\subject\Desktop\SVRT Experiments\SVRT Experiment 3\svrt_images\generated_images\results_problem_6\sample_0_0007.png,,,,,,,,,,,,,,,,,,,,0,3,3,3,0,20,20,20,,,,,,,,,,,,,,f,6,A,B,13,0,Incorrect!,0.7274762999732047,587.3695891000098,None,587.3695891000098,None,588.1195316000376,None,,,,,51,001,2023-05-16_08h59.38.841,uncolored_shuffled,2021.2.3,59.97422307813654,
C:\Users\subject\Desktop\SVRT Experiments\SVRT Experiment 3\svrt_images\generated_images\results_problem_6,,,,C:\Users\subject\Desktop\SVRT Experiments\SVRT Experiment 3\svrt_images\generated_images\results_problem_6\sample_1_0014.png,,,,,,,,,,,,,,,,,,,,0,3,3,3,0,21,21,21,,,,,,,,,,,,,,f,6,A,A,13,1,Correct!,0.7769794999621809,589.336112799996,None,589.336112799996,None,590.1360571000259,None,,,,,51,001,2023-05-16_08h59.38.841,uncolored_shuffled,2021.2.3,59.97422307813654,
C:\Users\subject\Desktop\SVRT Experiments\SVRT Experiment 3\svrt_images\generated_images\results_problem_6,,,,C:\Users\subject\Desktop\SVRT Experiments\SVRT Experiment 3\svrt_images\generated_images\results_problem_6\sample_0_0012.png,,,,,,,,,,,,,,,,,,,,0,3,3,3,0,22,22,22,,,,,,,,,,,,,,j,6,B,B,13,1,Correct!,0.49965399998473004,591.4693178000161,None,591.4693178000161,None,591.9859796999954,None,,,,,51,001,2023-05-16_08h59.38.841,uncolored_shuffled,2021.2.3,59.97422307813654,
C:\Users\subject\Desktop\SVRT Experiments\SVRT Experiment 3\svrt_images\generated_images\results_problem_6,,,,C:\Users\subject\Desktop\SVRT Experiments\SVRT Experiment 3\svrt_images\generated_images\results_problem_6\sample_0_0011.png,,,,,,,,,,,,,,,,,,,,0,3,3,3,0,23,23,23,,,,,,,,,,,,,,f,6,A,B,13,0,Incorrect!,1.4536946999724023,593.2192047000281,None,593.2192047000281,None,594.7357303000172,None,,,,,51,001,2023-05-16_08h59.38.841,uncolored_shuffled,2021.2.3,59.97422307813654,
C:\Users\subject\Desktop\SVRT Experiments\SVRT Experiment 3\svrt_images\generated_images\results_problem_6,,,,C:\Users\subject\Desktop\SVRT Experiments\SVRT Experiment 3\svrt_images\generated_images\results_problem_6\sample_0_0010.png,,,,,,,,,,,,,,,,,,,,0,3,3,3,0,24,24,24,,,,,,,,,,,,,,f,6,A,B,13,0,Incorrect!,0.7847058000043035,595.9524060999975,None,595.9524060999975,None,596.7689583000029,None,,,,,51,001,2023-05-16_08h59.38.841,uncolored_shuffled,2021.2.3,59.97422307813654,
C:\Users\subject\Desktop\SVRT Experiments\SVRT Experiment 3\svrt_images\generated_images\results_problem_6,,,,C:\Users\subject\Desktop\SVRT Experiments\SVRT Experiment 3\svrt_images\generated_images\results_problem_6\sample_1_0013.png,,,,,,,,,,,,,,,,,,,,0,3,3,3,0,25,25,25,,,,,,,,,,,,,,f,6,A,A,13,1,Correct!,1.0666747000068426,598.1022385000251,None,598.1022385000251,None,599.2188529000268,None,,,,,51,001,2023-05-16_08h59.38.841,uncolored_shuffled,2021.2.3,59.97422307813654,
C:\Users\subject\Desktop\SVRT Experiments\SVRT Experiment 3\svrt_images\generated_images\results_problem_6,,,,C:\Users\subject\Desktop\SVRT Experiments\SVRT Experiment 3\svrt_images\generated_images\results_problem_6\sample_1_0009.png,,,,,,,,,,,,,,,,,,,,0,3,3,3,0,26,26,26,,,,,,,,,,,,,,j,6,B,A,13,0,Incorrect!,0.972343000001274,600.4687661000062,None,600.4687661000062,None,601.4852288000402,None,,,,,51,001,2023-05-16_08h59.38.841,uncolored_shuffled,2021.2.3,59.97422307813654,
C:\Users\subject\Desktop\SVRT Experiments\SVRT Experiment 3\svrt_images\generated_images\results_problem_6,,,,C:\Users\subject\Desktop\SVRT Experiments\SVRT Experiment 3\svrt_images\generated_images\results_problem_6\sample_1_0001.png,,,,,,,,,,,,,,,,,,,,0,3,3,3,0,27,27,27,,,,,,,,,,,,,,f,6,A,A,13,1,Correct!,1.1851290000486188,602.7520055000205,None,602.7520055000205,None,604.018562000012,None,,,,,51,001,2023-05-16_08h59.38.841,uncolored_shuffled,2021.2.3,59.97422307813654,
C:\Users\subject\Desktop\SVRT Experiments\SVRT Experiment 3\svrt_images\generated_images\results_problem_6,,,,C:\Users\subject\Desktop\SVRT Experiments\SVRT Experiment 3\svrt_images\generated_images\results_problem_6\sample_0_0008.png,,,,,,,,,,,,,,,,,,,,0,3,3,3,0,28,28,28,,,,,,,,,,,,,,j,6,B,B,13,1,Correct!,1.0652158999582753,605.3518222999992,None,605.3518222999992,None,606.4350242000073,None,,,,,51,001,2023-05-16_08h59.38.841,uncolored_shuffled,2021.2.3,59.97422307813654,
C:\Users\subject\Desktop\SVRT Experiments\SVRT Experiment 3\svrt_images\generated_images\results_problem_6,,,,C:\Users\subject\Desktop\SVRT Experiments\SVRT Experiment 3\svrt_images\generated_images\results_problem_6\sample_1_0002.png,,,,,,,,,,,,,,,,,,,,0,3,3,3,0,29,29,29,,,,,,,,,,,,,,f,6,A,A,13,1,Correct!,1.1426797999884002,607.8183054000256,None,607.8183054000256,None,609.0348749000113,None,,,,,51,001,2023-05-16_08h59.38.841,uncolored_shuffled,2021.2.3,59.97422307813654,
C:\Users\subject\Desktop\SVRT Experiments\SVRT Experiment 3\svrt_images\generated_images\results_problem_6,,,,C:\Users\subject\Desktop\SVRT Experiments\SVRT Experiment 3\svrt_images\generated_images\results_problem_6\sample_1_0004.png,,,,,,,,,,,,,,,,,,,,0,3,3,3,0,30,30,30,,,,,,,,,,,,,,f,6,A,A,13,1,Correct!,0.8508420999860391,610.3181314000394,None,610.3181314000394,None,611.2014396000304,None,,,,,51,001,2023-05-16_08h59.38.841,uncolored_shuffled,2021.2.3,59.97422307813654,
C:\Users\subject\Desktop\SVRT Experiments\SVRT Experiment 3\svrt_images\generated_images\results_problem_6,,,,C:\Users\subject\Desktop\SVRT Experiments\SVRT Experiment 3\svrt_images\generated_images\results_problem_6\sample_0_0002.png,,,,,,,,,,,,,,,,,,,,0,3,3,3,0,31,31,31,,,,,,,,,,,,,,j,6,B,B,13,1,Correct!,0.9870739000034519,612.5180583000183,None,612.5180583000183,None,613.534611500043,None,,,,,51,001,2023-05-16_08h59.38.841,uncolored_shuffled,2021.2.3,59.97422307813654,
C:\Users\subject\Desktop\SVRT Experiments\SVRT Experiment 3\svrt_images\generated_images\results_problem_6,,,,C:\Users\subject\Desktop\SVRT Experiments\SVRT Experiment 3\svrt_images\generated_images\results_problem_6\sample_0_0000.png,,,,,,,,,,,,,,,,,,,,0,3,3,3,0,32,32,32,,,,,,,,,,,,,,f,6,A,B,13,0,Incorrect!,0.736567499989178,615.1684304000228,None,615.1684304000228,None,615.9844969999976,None,,,,,51,001,2023-05-16_08h59.38.841,uncolored_shuffled,2021.2.3,59.97422307813654,
C:\Users\subject\Desktop\SVRT Experiments\SVRT Experiment 3\svrt_images\generated_images\results_problem_6,,,,C:\Users\subject\Desktop\SVRT Experiments\SVRT Experiment 3\svrt_images\generated_images\results_problem_6\sample_1_0005.png,,,,,,,,,,,,,,,,,,,,0,3,3,3,0,33,33,33,,,,,,,,,,,,,,f,6,A,A,13,1,Correct!,0.8913273000507616,617.3177136000013,None,617.3177136000013,None,618.2509746000287,None,,,,,51,001,2023-05-16_08h59.38.841,uncolored_shuffled,2021.2.3,59.97422307813654,
C:\Users\subject\Desktop\SVRT Experiments\SVRT Experiment 3\svrt_images\generated_images\results_problem_6,,,,,,,,,,,,,,,,,,,,,,,,0,3,3,3,,,,,,,,,,,,,,,,,,,,,,,,,,,,,,,,619.2509475999977,619.2509475999977,space,2.189949199964758,51,001,2023-05-16_08h59.38.841,uncolored_shuffled,2021.2.3,59.97422307813654,
C:\Users\subject\Desktop\SVRT Experiments\SVRT Experiment 3\svrt_images\generated_images\results_problem_14,,,,,C:\Users\subject\Desktop\SVRT Experiments\SVRT Experiment 3\svrt_images\generated_images\results_problem_14\sample_0_0006.png,,,,,,,,,,,,,,,,,,,0,4,4,4,0,0,0,0,,,,,,,,,,,,,,j,14,B,B,13,1,Correct!,2.9965460000094026,621.4683750999975,None,621.4683750999975,None,624.4844700000249,None,,,,,51,001,2023-05-16_08h59.38.841,uncolored_shuffled,2021.2.3,59.97422307813654,
C:\Users\subject\Desktop\SVRT Experiments\SVRT Experiment 3\svrt_images\generated_images\results_problem_14,,,,,C:\Users\subject\Desktop\SVRT Experiments\SVRT Experiment 3\svrt_images\generated_images\results_problem_14\sample_0_0001.png,,,,,,,,,,,,,,,,,,,0,4,4,4,0,1,1,1,,,,,,,,,,,,,,j,14,B,B,13,1,Correct!,1.1986860999604687,625.5542270000442,None,625.5542270000442,None,626.8028416000307,None,,,,,51,001,2023-05-16_08h59.38.841,uncolored_shuffled,2021.2.3,59.97422307813654,
C:\Users\subject\Desktop\SVRT Experiments\SVRT Experiment 3\svrt_images\generated_images\results_problem_14,,,,,C:\Users\subject\Desktop\SVRT Experiments\SVRT Experiment 3\svrt_images\generated_images\results_problem_14\sample_1_0009.png,,,,,,,,,,,,,,,,,,,0,4,4,4,0,2,2,2,,,,,,,,,,,,,,j,14,B,A,13,0,Incorrect!,1.9083050999906845,627.8846280000289,None,627.8846280000289,None,629.8347726000356,None,,,,,51,001,2023-05-16_08h59.38.841,uncolored_shuffled,2021.2.3,59.97422307813654,
C:\Users\subject\Desktop\SVRT Experiments\SVRT Experiment 3\svrt_images\generated_images\results_problem_14,,,,,C:\Users\subject\Desktop\SVRT Experiments\SVRT Experiment 3\svrt_images\generated_images\results_problem_14\sample_0_0009.png,,,,,,,,,,,,,,,,,,,0,4,4,4,0,3,3,3,,,,,,,,,,,,,,f,14,A,B,13,0,Incorrect!,1.5759789000148885,630.9532101000077,None,630.9532101000077,None,632.5505277000484,None,,,,,51,001,2023-05-16_08h59.38.841,uncolored_shuffled,2021.2.3,59.97422307813654,
C:\Users\subject\Desktop\SVRT Experiments\SVRT Experiment 3\svrt_images\generated_images\results_problem_14,,,,,C:\Users\subject\Desktop\SVRT Experiments\SVRT Experiment 3\svrt_images\generated_images\results_problem_14\sample_1_0005.png,,,,,,,,,,,,,,,,,,,0,4,4,4,0,4,4,4,,,,,,,,,,,,,,j,14,B,A,13,0,Incorrect!,0.8324563000351191,633.600469500001,None,633.600469500001,None,634.4503964000032,None,,,,,51,001,2023-05-16_08h59.38.841,uncolored_shuffled,2021.2.3,59.97422307813654,
C:\Users\subject\Desktop\SVRT Experiments\SVRT Experiment 3\svrt_images\generated_images\results_problem_14,,,,,C:\Users\subject\Desktop\SVRT Experiments\SVRT Experiment 3\svrt_images\generated_images\results_problem_14\sample_0_0010.png,,,,,,,,,,,,,,,,,,,0,4,4,4,0,5,5,5,,,,,,,,,,,,,,j,14,B,B,13,1,Correct!,0.8036720000091009,635.5332636000239,None,635.5332636000239,None,636.3665767000057,None,,,,,51,001,2023-05-16_08h59.38.841,uncolored_shuffled,2021.2.3,59.97422307813654,
C:\Users\subject\Desktop\SVRT Experiments\SVRT Experiment 3\svrt_images\generated_images\results_problem_14,,,,,C:\Users\subject\Desktop\SVRT Experiments\SVRT Experiment 3\svrt_images\generated_images\results_problem_14\sample_0_0002.png,,,,,,,,,,,,,,,,,,,0,4,4,4,0,6,6,6,,,,,,,,,,,,,,j,14,B,B,13,1,Correct!,1.367079499992542,637.4498601999949,None,637.4498601999949,None,638.849689900002,None,,,,,51,001,2023-05-16_08h59.38.841,uncolored_shuffled,2021.2.3,59.97422307813654,
C:\Users\subject\Desktop\SVRT Experiments\SVRT Experiment 3\svrt_images\generated_images\results_problem_14,,,,,C:\Users\subject\Desktop\SVRT Experiments\SVRT Experiment 3\svrt_images\generated_images\results_problem_14\sample_1_0007.png,,,,,,,,,,,,,,,,,,,0,4,4,4,0,7,7,7,,,,,,,,,,,,,,f,14,A,A,13,1,Correct!,1.1246616000426002,639.9163038000115,None,639.9163038000115,None,641.0662413000246,None,,,,,51,001,2023-05-16_08h59.38.841,uncolored_shuffled,2021.2.3,59.97422307813654,
C:\Users\subject\Desktop\SVRT Experiments\SVRT Experiment 3\svrt_images\generated_images\results_problem_14,,,,,C:\Users\subject\Desktop\SVRT Experiments\SVRT Experiment 3\svrt_images\generated_images\results_problem_14\sample_0_0016.png,,,,,,,,,,,,,,,,,,,0,4,4,4,0,8,8,8,,,,,,,,,,,,,,j,14,B,B,13,1,Correct!,1.3250113000394776,642.1162680000416,None,642.1162680000416,None,643.4661519000074,None,,,,,51,001,2023-05-16_08h59.38.841,uncolored_shuffled,2021.2.3,59.97422307813654,
C:\Users\subject\Desktop\SVRT Experiments\SVRT Experiment 3\svrt_images\generated_images\results_problem_14,,,,,C:\Users\subject\Desktop\SVRT Experiments\SVRT Experiment 3\svrt_images\generated_images\results_problem_14\sample_1_0000.png,,,,,,,,,,,,,,,,,,,0,4,4,4,0,9,9,9,,,,,,,,,,,,,,f,14,A,A,13,1,Correct!,0.9070145000005141,644.5661886000307,None,644.5661886000307,None,645.4991703000269,None,,,,,51,001,2023-05-16_08h59.38.841,uncolored_shuffled,2021.2.3,59.97422307813654,
C:\Users\subject\Desktop\SVRT Experiments\SVRT Experiment 3\svrt_images\generated_images\results_problem_14,,,,,C:\Users\subject\Desktop\SVRT Experiments\SVRT Experiment 3\svrt_images\generated_images\results_problem_14\sample_0_0014.png,,,,,,,,,,,,,,,,,,,0,4,4,4,0,10,10,10,,,,,,,,,,,,,,j,14,B,B,13,1,Correct!,1.0507273999974132,646.582441000035,None,646.582441000035,None,647.6658939000336,None,,,,,51,001,2023-05-16_08h59.38.841,uncolored_shuffled,2021.2.3,59.97422307813654,
C:\Users\subject\Desktop\SVRT Experiments\SVRT Experiment 3\svrt_images\generated_images\results_problem_14,,,,,C:\Users\subject\Desktop\SVRT Experiments\SVRT Experiment 3\svrt_images\generated_images\results_problem_14\sample_0_0005.png,,,,,,,,,,,,,,,,,,,0,4,4,4,0,11,11,11,,,,,,,,,,,,,,f,14,A,B,13,0,Incorrect!,1.108028499991633,648.7492017000332,None,648.7492017000332,None,649.882437799999,None,,,,,51,001,2023-05-16_08h59.38.841,uncolored_shuffled,2021.2.3,59.97422307813654,
C:\Users\subject\Desktop\SVRT Experiments\SVRT Experiment 3\svrt_images\generated_images\results_problem_14,,,,,C:\Users\subject\Desktop\SVRT Experiments\SVRT Experiment 3\svrt_images\generated_images\results_problem_14\sample_1_0015.png,,,,,,,,,,,,,,,,,,,0,4,4,4,0,12,12,12,,,,,,,,,,,,,,j,14,B,A,13,0,Incorrect!,1.322791500017047,650.9823584000114,None,650.9823584000114,None,652.3322703000158,None,,,,,51,001,2023-05-16_08h59.38.841,uncolored_shuffled,2021.2.3,59.97422307813654,
C:\Users\subject\Desktop\SVRT Experiments\SVRT Experiment 3\svrt_images\generated_images\results_problem_14,,,,,C:\Users\subject\Desktop\SVRT Experiments\SVRT Experiment 3\svrt_images\generated_images\results_problem_14\sample_0_0007.png,,,,,,,,,,,,,,,,,,,0,4,4,4,0,13,13,13,,,,,,,,,,,,,,f,14,A,B,13,0,Incorrect!,1.0809909999952652,653.4322048000176,None,653.4322048000176,None,654.5319552000146,None,,,,,51,001,2023-05-16_08h59.38.841,uncolored_shuffled,2021.2.3,59.97422307813654,
C:\Users\subject\Desktop\SVRT Experiments\SVRT Experiment 3\svrt_images\generated_images\results_problem_14,,,,,C:\Users\subject\Desktop\SVRT Experiments\SVRT Experiment 3\svrt_images\generated_images\results_problem_14\sample_1_0014.png,,,,,,,,,,,,,,,,,,,0,4,4,4,0,14,14,14,,,,,,,,,,,,,,f,14,A,A,13,1,Correct!,0.768696999992244,655.6485626000213,None,655.6485626000213,None,656.4651653000037,None,,,,,51,001,2023-05-16_08h59.38.841,uncolored_shuffled,2021.2.3,59.97422307813654,
C:\Users\subject\Desktop\SVRT Experiments\SVRT Experiment 3\svrt_images\generated_images\results_problem_14,,,,,C:\Users\subject\Desktop\SVRT Experiments\SVRT Experiment 3\svrt_images\generated_images\results_problem_14\sample_0_0011.png,,,,,,,,,,,,,,,,,,,0,4,4,4,0,15,15,15,,,,,,,,,,,,,,f,14,A,B,13,0,Incorrect!,0.7383928999770433,657.598621800018,None,657.598621800018,None,658.3818908000248,None,,,,,51,001,2023-05-16_08h59.38.841,uncolored_shuffled,2021.2.3,59.97422307813654,
C:\Users\subject\Desktop\SVRT Experiments\SVRT Experiment 3\svrt_images\generated_images\results_problem_14,,,,,C:\Users\subject\Desktop\SVRT Experiments\SVRT Experiment 3\svrt_images\generated_images\results_problem_14\sample_0_0008.png,,,,,,,,,,,,,,,,,,,0,4,4,4,0,16,16,16,,,,,,,,,,,,,,f,14,A,B,13,0,Incorrect!,0.7254574000253342,659.5318316000048,None,659.5318316000048,None,660.2818185000215,None,,,,,51,001,2023-05-16_08h59.38.841,uncolored_shuffled,2021.2.3,59.97422307813654,
C:\Users\subject\Desktop\SVRT Experiments\SVRT Experiment 3\svrt_images\generated_images\results_problem_14,,,,,C:\Users\subject\Desktop\SVRT Experiments\SVRT Experiment 3\svrt_images\generated_images\results_problem_14\sample_0_0013.png,,,,,,,,,,,,,,,,,,,0,4,4,4,0,17,17,17,,,,,,,,,,,,,,f,14,A,B,13,0,Incorrect!,0.8401666999561712,661.4650393000338,None,661.4650393000338,None,662.3483277000487,None,,,,,51,001,2023-05-16_08h59.38.841,uncolored_shuffled,2021.2.3,59.97422307813654,
C:\Users\subject\Desktop\SVRT Experiments\SVRT Experiment 3\svrt_images\generated_images\results_problem_14,,,,,C:\Users\subject\Desktop\SVRT Experiments\SVRT Experiment 3\svrt_images\generated_images\results_problem_14\sample_0_0003.png,,,,,,,,,,,,,,,,,,,0,4,4,4,0,18,18,18,,,,,,,,,,,,,,j,14,B,B,13,1,Correct!,0.9752430000226013,663.6019340000348,None,663.6019340000348,None,664.6148505000165,None,,,,,51,001,2023-05-16_08h59.38.841,uncolored_shuffled,2021.2.3,59.97422307813654,
C:\Users\subject\Desktop\SVRT Experiments\SVRT Experiment 3\svrt_images\generated_images\results_problem_14,,,,,C:\Users\subject\Desktop\SVRT Experiments\SVRT Experiment 3\svrt_images\generated_images\results_problem_14\sample_1_0004.png,,,,,,,,,,,,,,,,,,,0,4,4,4,0,19,19,19,,,,,,,,,,,,,,f,14,A,A,13,1,Correct!,0.8924358999938704,665.7647761999979,None,665.7647761999979,None,666.6814104000223,None,,,,,51,001,2023-05-16_08h59.38.841,uncolored_shuffled,2021.2.3,59.97422307813654,
C:\Users\subject\Desktop\SVRT Experiments\SVRT Experiment 3\svrt_images\generated_images\results_problem_14,,,,,C:\Users\subject\Desktop\SVRT Experiments\SVRT Experiment 3\svrt_images\generated_images\results_problem_14\sample_1_0008.png,,,,,,,,,,,,,,,,,,,0,4,4,4,0,20,20,20,,,,,,,,,,,,,,f,14,A,A,13,1,Correct!,0.8892255999962799,667.8479848999996,None,667.8479848999996,None,668.7646004999988,None,,,,,51,001,2023-05-16_08h59.38.841,uncolored_shuffled,2021.2.3,59.97422307813654,
C:\Users\subject\Desktop\SVRT Experiments\SVRT Experiment 3\svrt_images\generated_images\results_problem_14,,,,,C:\Users\subject\Desktop\SVRT Experiments\SVRT Experiment 3\svrt_images\generated_images\results_problem_14\sample_0_0015.png,,,,,,,,,,,,,,,,,,,0,4,4,4,0,21,21,21,,,,,,,,,,,,,,j,14,B,B,13,1,Correct!,0.8220124000217766,669.9311699999962,None,669.9311699999962,None,670.7811721000471,None,,,,,51,001,2023-05-16_08h59.38.841,uncolored_shuffled,2021.2.3,59.97422307813654,
C:\Users\subject\Desktop\SVRT Experiments\SVRT Experiment 3\svrt_images\generated_images\results_problem_14,,,,,C:\Users\subject\Desktop\SVRT Experiments\SVRT Experiment 3\svrt_images\generated_images\results_problem_14\sample_1_0013.png,,,,,,,,,,,,,,,,,,,0,4,4,4,0,22,22,22,,,,,,,,,,,,,,f,14,A,A,13,1,Correct!,0.6122071999707259,671.9810756000225,None,671.9810756000225,None,672.6476853000349,None,,,,,51,001,2023-05-16_08h59.38.841,uncolored_shuffled,2021.2.3,59.97422307813654,
C:\Users\subject\Desktop\SVRT Experiments\SVRT Experiment 3\svrt_images\generated_images\results_problem_14,,,,,C:\Users\subject\Desktop\SVRT Experiments\SVRT Experiment 3\svrt_images\generated_images\results_problem_14\sample_1_0006.png,,,,,,,,,,,,,,,,,,,0,4,4,4,0,23,23,23,,,,,,,,,,,,,,f,14,A,A,13,1,Correct!,0.7302548000006936,673.830962100008,None,673.830962100008,None,674.5975915000308,None,,,,,51,001,2023-05-16_08h59.38.841,uncolored_shuffled,2021.2.3,59.97422307813654,
C:\Users\subject\Desktop\SVRT Experiments\SVRT Experiment 3\svrt_images\generated_images\results_problem_14,,,,,C:\Users\subject\Desktop\SVRT Experiments\SVRT Experiment 3\svrt_images\generated_images\results_problem_14\sample_1_0016.png,,,,,,,,,,,,,,,,,,,0,4,4,4,0,24,24,24,,,,,,,,,,,,,,f,14,A,A,13,1,Correct!,0.6670167000265792,675.8142038000515,None,675.8142038000515,None,676.5308056000504,None,,,,,51,001,2023-05-16_08h59.38.841,uncolored_shuffled,2021.2.3,59.97422307813654,
C:\Users\subject\Desktop\SVRT Experiments\SVRT Experiment 3\svrt_images\generated_images\results_problem_14,,,,,C:\Users\subject\Desktop\SVRT Experiments\SVRT Experiment 3\svrt_images\generated_images\results_problem_14\sample_1_0012.png,,,,,,,,,,,,,,,,,,,0,4,4,4,0,25,25,25,,,,,,,,,,,,,,,,,,,,,,,,,,,,677.5307404000196,677.5307404000196,space,1.0945155000081286,51,001,2023-05-16_08h59.38.841,uncolored_shuffled,2021.2.3,59.97422307813654,
C:\Users\subject\Desktop\SVRT Experiments\SVRT Experiment 3\svrt_images\generated_images\results_problem_12,,,,,C:\Users\subject\Desktop\SVRT Experiments\SVRT Experiment 3\svrt_images\generated_images\results_problem_14\sample_1_0012.png,C:\Users\subject\Desktop\SVRT Experiments\SVRT Experiment 3\svrt_images\generated_images\results_problem_12\sample_1_0002.png,,,,,,,,,,,,,,,,,,0,5,5,5,0,0,0,0,,,,,,,,,,,,,,j,12,B,A,13,0,Incorrect!,1.9931648999918252,678.664014900045,None,678.664014900045,None,680.6805548000266,None,,,,,51,001,2023-05-16_08h59.38.841,uncolored_shuffled,2021.2.3,59.97422307813654,
C:\Users\subject\Desktop\SVRT Experiments\SVRT Experiment 3\svrt_images\generated_images\results_problem_12,,,,,C:\Users\subject\Desktop\SVRT Experiments\SVRT Experiment 3\svrt_images\generated_images\results_problem_14\sample_1_0012.png,C:\Users\subject\Desktop\SVRT Experiments\SVRT Experiment 3\svrt_images\generated_images\results_problem_12\sample_0_0006.png,,,,,,,,,,,,,,,,,,0,5,5,5,0,1,1,1,,,,,,,,,,,,,,f,12,A,B,13,0,Incorrect!,1.741761100012809,681.7474769999972,None,681.7474769999972,None,683.5139177000383,None,,,,,51,001,2023-05-16_08h59.38.841,uncolored_shuffled,2021.2.3,59.97422307813654,
C:\Users\subject\Desktop\SVRT Experiments\SVRT Experiment 3\svrt_images\generated_images\results_problem_12,,,,,C:\Users\subject\Desktop\SVRT Experiments\SVRT Experiment 3\svrt_images\generated_images\results_problem_14\sample_1_0012.png,C:\Users\subject\Desktop\SVRT Experiments\SVRT Experiment 3\svrt_images\generated_images\results_problem_12\sample_1_0003.png,,,,,,,,,,,,,,,,,,0,5,5,5,0,2,2,2,,,,,,,,,,,,,,f,12,A,A,13,1,Correct!,0.9566875000018626,684.5806068000384,None,684.5806068000384,None,685.5638809000375,None,,,,,51,001,2023-05-16_08h59.38.841,uncolored_shuffled,2021.2.3,59.97422307813654,
C:\Users\subject\Desktop\SVRT Experiments\SVRT Experiment 3\svrt_images\generated_images\results_problem_12,,,,,C:\Users\subject\Desktop\SVRT Experiments\SVRT Experiment 3\svrt_images\generated_images\results_problem_14\sample_1_0012.png,C:\Users\subject\Desktop\SVRT Experiments\SVRT Experiment 3\svrt_images\generated_images\results_problem_12\sample_0_0002.png,,,,,,,,,,,,,,,,,,0,5,5,5,0,3,3,3,,,,,,,,,,,,,,j,12,B,B,13,1,Correct!,1.099893999984488,686.5971476000268,None,686.5971476000268,None,687.7137756000157,None,,,,,51,001,2023-05-16_08h59.38.841,uncolored_shuffled,2021.2.3,59.97422307813654,
C:\Users\subject\Desktop\SVRT Experiments\SVRT Experiment 3\svrt_images\generated_images\results_problem_12,,,,,C:\Users\subject\Desktop\SVRT Experiments\SVRT Experiment 3\svrt_images\generated_images\results_problem_14\sample_1_0012.png,C:\Users\subject\Desktop\SVRT Experiments\SVRT Experiment 3\svrt_images\generated_images\results_problem_12\sample_1_0009.png,,,,,,,,,,,,,,,,,,0,5,5,5,0,4,4,4,,,,,,,,,,,,,,j,12,B,A,13,0,Incorrect!,3.652885600051377,688.78038750001,None,688.78038750001,None,692.4631537999958,None,,,,,51,001,2023-05-16_08h59.38.841,uncolored_shuffled,2021.2.3,59.97422307813654,
C:\Users\subject\Desktop\SVRT Experiments\SVRT Experiment 3\svrt_images\generated_images\results_problem_12,,,,,C:\Users\subject\Desktop\SVRT Experiments\SVRT Experiment 3\svrt_images\generated_images\results_problem_14\sample_1_0012.png,C:\Users\subject\Desktop\SVRT Experiments\SVRT Experiment 3\svrt_images\generated_images\results_problem_12\sample_0_0005.png,,,,,,,,,,,,,,,,,,0,5,5,5,0,5,5,5,,,,,,,,,,,,,,f,12,A,B,13,0,Incorrect!,0.8222156999981962,693.5468693000148,None,693.5468693000148,None,694.396746500046,None,,,,,51,001,2023-05-16_08h59.38.841,uncolored_shuffled,2021.2.3,59.97422307813654,
C:\Users\subject\Desktop\SVRT Experiments\SVRT Experiment 3\svrt_images\generated_images\results_problem_12,,,,,C:\Users\subject\Desktop\SVRT Experiments\SVRT Experiment 3\svrt_images\generated_images\results_problem_14\sample_1_0012.png,C:\Users\subject\Desktop\SVRT Experiments\SVRT Experiment 3\svrt_images\generated_images\results_problem_12\sample_1_0013.png,,,,,,,,,,,,,,,,,,0,5,5,5,0,6,6,6,,,,,,,,,,,,,,f,12,A,A,13,1,Correct!,0.6327706000301987,695.8964301000233,None,695.8964301000233,None,696.5472719999962,None,,,,,51,001,2023-05-16_08h59.38.841,uncolored_shuffled,2021.2.3,59.97422307813654,
C:\Users\subject\Desktop\SVRT Experiments\SVRT Experiment 3\svrt_images\generated_images\results_problem_12,,,,,C:\Users\subject\Desktop\SVRT Experiments\SVRT Experiment 3\svrt_images\generated_images\results_problem_14\sample_1_0012.png,C:\Users\subject\Desktop\SVRT Experiments\SVRT Experiment 3\svrt_images\generated_images\results_problem_12\sample_1_0015.png,,,,,,,,,,,,,,,,,,0,5,5,5,0,7,7,7,,,,,,,,,,,,,,j,12,B,A,13,0,Incorrect!,0.4829188999719918,697.6461996000144,None,697.6461996000144,None,698.1462081000209,None,,,,,51,001,2023-05-16_08h59.38.841,uncolored_shuffled,2021.2.3,59.97422307813654,
C:\Users\subject\Desktop\SVRT Experiments\SVRT Experiment 3\svrt_images\generated_images\results_problem_12,,,,,C:\Users\subject\Desktop\SVRT Experiments\SVRT Experiment 3\svrt_images\generated_images\results_problem_14\sample_1_0012.png,C:\Users\subject\Desktop\SVRT Experiments\SVRT Experiment 3\svrt_images\generated_images\results_problem_12\sample_0_0007.png,,,,,,,,,,,,,,,,,,0,5,5,5,0,8,8,8,,,,,,,,,,,,,,j,12,B,B,13,1,Correct!,2.0339245999930426,699.2794422000297,None,699.2794422000297,None,701.34600770002,None,,,,,51,001,2023-05-16_08h59.38.841,uncolored_shuffled,2021.2.3,59.97422307813654,
C:\Users\subject\Desktop\SVRT Experiments\SVRT Experiment 3\svrt_images\generated_images\results_problem_12,,,,,C:\Users\subject\Desktop\SVRT Experiments\SVRT Experiment 3\svrt_images\generated_images\results_problem_14\sample_1_0012.png,C:\Users\subject\Desktop\SVRT Experiments\SVRT Experiment 3\svrt_images\generated_images\results_problem_12\sample_0_0013.png,,,,,,,,,,,,,,,,,,0,5,5,5,0,9,9,9,,,,,,,,,,,,,,j,12,B,B,13,1,Correct!,0.6559315000195056,702.5292339000152,None,702.5292339000152,None,703.2125133000081,None,,,,,51,001,2023-05-16_08h59.38.841,uncolored_shuffled,2021.2.3,59.97422307813654,
C:\Users\subject\Desktop\SVRT Experiments\SVRT Experiment 3\svrt_images\generated_images\results_problem_12,,,,,C:\Users\subject\Desktop\SVRT Experiments\SVRT Experiment 3\svrt_images\generated_images\results_problem_14\sample_1_0012.png,C:\Users\subject\Desktop\SVRT Experiments\SVRT Experiment 3\svrt_images\generated_images\results_problem_12\sample_0_0014.png,,,,,,,,,,,,,,,,,,0,5,5,5,0,10,10,10,,,,,,,,,,,,,,j,12,B,B,13,1,Correct!,0.6168639999814332,704.3124400000088,None,704.3124400000088,None,704.9623968000524,None,,,,,51,001,2023-05-16_08h59.38.841,uncolored_shuffled,2021.2.3,59.97422307813654,
C:\Users\subject\Desktop\SVRT Experiments\SVRT Experiment 3\svrt_images\generated_images\results_problem_12,,,,,C:\Users\subject\Desktop\SVRT Experiments\SVRT Experiment 3\svrt_images\generated_images\results_problem_14\sample_1_0012.png,C:\Users\subject\Desktop\SVRT Experiments\SVRT Experiment 3\svrt_images\generated_images\results_problem_12\sample_1_0006.png,,,,,,,,,,,,,,,,,,0,5,5,5,0,11,11,11,,,,,,,,,,,,,,j,12,B,A,13,0,Incorrect!,0.640280099993106,706.1290345000452,None,706.1290345000452,None,706.795762600028,None,,,,,51,001,2023-05-16_08h59.38.841,uncolored_shuffled,2021.2.3,59.97422307813654,
C:\Users\subject\Desktop\SVRT Experiments\SVRT Experiment 3\svrt_images\generated_images\results_problem_12,,,,,C:\Users\subject\Desktop\SVRT Experiments\SVRT Experiment 3\svrt_images\generated_images\results_problem_14\sample_1_0012.png,C:\Users\subject\Desktop\SVRT Experiments\SVRT Experiment 3\svrt_images\generated_images\results_problem_12\sample_0_0004.png,,,,,,,,,,,,,,,,,,0,5,5,5,0,12,12,12,,,,,,,,,,,,,,f,12,A,B,13,0,Incorrect!,0.6491389999864623,707.9122396000312,None,707.9122396000312,None,708.5788556000334,None,,,,,51,001,2023-05-16_08h59.38.841,uncolored_shuffled,2021.2.3,59.97422307813654,
C:\Users\subject\Desktop\SVRT Experiments\SVRT Experiment 3\svrt_images\generated_images\results_problem_12,,,,,C:\Users\subject\Desktop\SVRT Experiments\SVRT Experiment 3\svrt_images\generated_images\results_problem_14\sample_1_0012.png,C:\Users\subject\Desktop\SVRT Experiments\SVRT Experiment 3\svrt_images\generated_images\results_problem_12\sample_1_0000.png,,,,,,,,,,,,,,,,,,0,5,5,5,0,13,13,13,,,,,,,,,,,,,,j,12,B,A,13,0,Incorrect!,0.7011065999977291,709.8121193000115,None,709.8121193000115,None,710.5454006000073,None,,,,,51,001,2023-05-16_08h59.38.841,uncolored_shuffled,2021.2.3,59.97422307813654,
C:\Users\subject\Desktop\SVRT Experiments\SVRT Experiment 3\svrt_images\generated_images\results_problem_12,,,,,C:\Users\subject\Desktop\SVRT Experiments\SVRT Experiment 3\svrt_images\generated_images\results_problem_14\sample_1_0012.png,C:\Users\subject\Desktop\SVRT Experiments\SVRT Experiment 3\svrt_images\generated_images\results_problem_12\sample_1_0014.png,,,,,,,,,,,,,,,,,,0,5,5,5,0,14,14,14,,,,,,,,,,,,,,j,12,B,A,13,0,Incorrect!,0.4646342000341974,711.7286554000457,None,711.7286554000457,None,712.2119743000367,None,,,,,51,001,2023-05-16_08h59.38.841,uncolored_shuffled,2021.2.3,59.97422307813654,
C:\Users\subject\Desktop\SVRT Experiments\SVRT Experiment 3\svrt_images\generated_images\results_problem_12,,,,,C:\Users\subject\Desktop\SVRT Experiments\SVRT Experiment 3\svrt_images\generated_images\results_problem_14\sample_1_0012.png,C:\Users\subject\Desktop\SVRT Experiments\SVRT Experiment 3\svrt_images\generated_images\results_problem_12\sample_1_0011.png,,,,,,,,,,,,,,,,,,0,5,5,5,0,15,15,15,,,,,,,,,,,,,,f,12,A,A,13,1,Correct!,0.5906978999846615,713.3785822000355,None,713.3785822000355,None,713.9951962000341,None,,,,,51,001,2023-05-16_08h59.38.841,uncolored_shuffled,2021.2.3,59.97422307813654,
C:\Users\subject\Desktop\SVRT Experiments\SVRT Experiment 3\svrt_images\generated_images\results_problem_12,,,,,C:\Users\subject\Desktop\SVRT Experiments\SVRT Experiment 3\svrt_images\generated_images\results_problem_14\sample_1_0012.png,C:\Users\subject\Desktop\SVRT Experiments\SVRT Experiment 3\svrt_images\generated_images\results_problem_12\sample_0_0011.png,,,,,,,,,,,,,,,,,,0,5,5,5,0,16,16,16,,,,,,,,,,,,,,j,12,B,B,13,1,Correct!,1.0801221000147052,715.1451343000517,None,715.1451343000517,None,716.2617170000449,None,,,,,51,001,2023-05-16_08h59.38.841,uncolored_shuffled,2021.2.3,59.97422307813654,
C:\Users\subject\Desktop\SVRT Experiments\SVRT Experiment 3\svrt_images\generated_images\results_problem_12,,,,,C:\Users\subject\Desktop\SVRT Experiments\SVRT Experiment 3\svrt_images\generated_images\results_problem_14\sample_1_0012.png,C:\Users\subject\Desktop\SVRT Experiments\SVRT Experiment 3\svrt_images\generated_images\results_problem_12\sample_0_0012.png,,,,,,,,,,,,,,,,,,0,5,5,5,0,17,17,17,,,,,,,,,,,,,,j,12,B,B,13,1,Correct!,0.7962935999967158,717.4450096000219,None,717.4450096000219,None,718.2615959999966,None,,,,,51,001,2023-05-16_08h59.38.841,uncolored_shuffled,2021.2.3,59.97422307813654,
C:\Users\subject\Desktop\SVRT Experiments\SVRT Experiment 3\svrt_images\generated_images\results_problem_12,,,,,C:\Users\subject\Desktop\SVRT Experiments\SVRT Experiment 3\svrt_images\generated_images\results_problem_14\sample_1_0012.png,C:\Users\subject\Desktop\SVRT Experiments\SVRT Experiment 3\svrt_images\generated_images\results_problem_12\sample_1_0005.png,,,,,,,,,,,,,,,,,,0,5,5,5,0,18,18,18,,,,,,,,,,,,,,f,12,A,A,13,1,Correct!,0.4890988999977708,719.5281953000231,None,719.5281953000231,None,720.0448667000164,None,,,,,51,001,2023-05-16_08h59.38.841,uncolored_shuffled,2021.2.3,59.97422307813654,
C:\Users\subject\Desktop\SVRT Experiments\SVRT Experiment 3\svrt_images\generated_images\results_problem_12,,,,,C:\Users\subject\Desktop\SVRT Experiments\SVRT Experiment 3\svrt_images\generated_images\results_problem_14\sample_1_0012.png,C:\Users\subject\Desktop\SVRT Experiments\SVRT Experiment 3\svrt_images\generated_images\results_problem_12\sample_1_0001.png,,,,,,,,,,,,,,,,,,0,5,5,5,0,19,19,19,,,,,,,,,,,,,,f,12,A,A,13,1,Correct!,0.885088499984704,721.228172400035,None,721.228172400035,None,722.1447589000454,None,,,,,51,001,2023-05-16_08h59.38.841,uncolored_shuffled,2021.2.3,59.97422307813654,
C:\Users\subject\Desktop\SVRT Experiments\SVRT Experiment 3\svrt_images\generated_images\results_problem_12,,,,,C:\Users\subject\Desktop\SVRT Experiments\SVRT Experiment 3\svrt_images\generated_images\results_problem_14\sample_1_0012.png,C:\Users\subject\Desktop\SVRT Experiments\SVRT Experiment 3\svrt_images\generated_images\results_problem_12\sample_0_0009.png,,,,,,,,,,,,,,,,,,0,5,5,5,0,20,20,20,,,,,,,,,,,,,,f,12,A,B,13,0,Incorrect!,0.8152784999692813,723.377993400034,None,723.377993400034,None,724.227905900043,None,,,,,51,001,2023-05-16_08h59.38.841,uncolored_shuffled,2021.2.3,59.97422307813654,
C:\Users\subject\Desktop\SVRT Experiments\SVRT Experiment 3\svrt_images\generated_images\results_problem_12,,,,,C:\Users\subject\Desktop\SVRT Experiments\SVRT Experiment 3\svrt_images\generated_images\results_problem_14\sample_1_0012.png,C:\Users\subject\Desktop\SVRT Experiments\SVRT Experiment 3\svrt_images\generated_images\results_problem_12\sample_0_0008.png,,,,,,,,,,,,,,,,,,0,5,5,5,0,21,21,21,,,,,,,,,,,,,,j,12,B,B,13,1,Correct!,0.651270599977579,725.4778840000508,None,725.4778840000508,None,726.1611360000097,None,,,,,51,001,2023-05-16_08h59.38.841,uncolored_shuffled,2021.2.3,59.97422307813654,
C:\Users\subject\Desktop\SVRT Experiments\SVRT Experiment 3\svrt_images\generated_images\results_problem_12,,,,,C:\Users\subject\Desktop\SVRT Experiments\SVRT Experiment 3\svrt_images\generated_images\results_problem_14\sample_1_0012.png,C:\Users\subject\Desktop\SVRT Experiments\SVRT Experiment 3\svrt_images\generated_images\results_problem_12\sample_1_0004.png,,,,,,,,,,,,,,,,,,0,5,5,5,0,22,22,22,,,,,,,,,,,,,,j,12,B,A,13,0,Incorrect!,0.7475771000026725,727.4777444000356,None,727.4777444000356,None,728.2443621000275,None,,,,,51,001,2023-05-16_08h59.38.841,uncolored_shuffled,2021.2.3,59.97422307813654,
C:\Users\subject\Desktop\SVRT Experiments\SVRT Experiment 3\svrt_images\generated_images\results_problem_12,,,,,C:\Users\subject\Desktop\SVRT Experiments\SVRT Experiment 3\svrt_images\generated_images\results_problem_14\sample_1_0012.png,C:\Users\subject\Desktop\SVRT Experiments\SVRT Experiment 3\svrt_images\generated_images\results_problem_12\sample_1_0008.png,,,,,,,,,,,,,,,,,,0,5,5,5,0,23,23,23,,,,,,,,,,,,,,j,12,B,A,13,0,Incorrect!,1.2602404000354,729.4609996000072,None,729.4609996000072,None,730.7775046000024,None,,,,,51,001,2023-05-16_08h59.38.841,uncolored_shuffled,2021.2.3,59.97422307813654,
C:\Users\subject\Desktop\SVRT Experiments\SVRT Experiment 3\svrt_images\generated_images\results_problem_12,,,,,C:\Users\subject\Desktop\SVRT Experiments\SVRT Experiment 3\svrt_images\generated_images\results_problem_14\sample_1_0012.png,C:\Users\subject\Desktop\SVRT Experiments\SVRT Experiment 3\svrt_images\generated_images\results_problem_12\sample_1_0012.png,,,,,,,,,,,,,,,,,,0,5,5,5,0,24,24,24,,,,,,,,,,,,,,f,12,A,A,13,1,Correct!,0.7738242999766953,732.0274421000504,None,732.0274421000504,None,732.8441173000028,None,,,,,51,001,2023-05-16_08h59.38.841,uncolored_shuffled,2021.2.3,59.97422307813654,
C:\Users\subject\Desktop\SVRT Experiments\SVRT Experiment 3\svrt_images\generated_images\results_problem_12,,,,,C:\Users\subject\Desktop\SVRT Experiments\SVRT Experiment 3\svrt_images\generated_images\results_problem_14\sample_1_0012.png,C:\Users\subject\Desktop\SVRT Experiments\SVRT Experiment 3\svrt_images\generated_images\results_problem_12\sample_1_0016.png,,,,,,,,,,,,,,,,,,0,5,5,5,0,25,25,25,,,,,,,,,,,,,,f,12,A,A,13,1,Correct!,0.7240497999591753,734.0773963000393,None,734.0773963000393,None,734.8439928000444,None,,,,,51,001,2023-05-16_08h59.38.841,uncolored_shuffled,2021.2.3,59.97422307813654,
C:\Users\subject\Desktop\SVRT Experiments\SVRT Experiment 3\svrt_images\generated_images\results_problem_12,,,,,C:\Users\subject\Desktop\SVRT Experiments\SVRT Experiment 3\svrt_images\generated_images\results_problem_14\sample_1_0012.png,C:\Users\subject\Desktop\SVRT Experiments\SVRT Experiment 3\svrt_images\generated_images\results_problem_12\sample_0_0015.png,,,,,,,,,,,,,,,,,,0,5,5,5,0,26,26,26,,,,,,,,,,,,,,f,12,A,B,13,0,Incorrect!,0.738188799994532,736.1271913000382,None,736.1271913000382,None,736.8938042000518,None,,,,,51,001,2023-05-16_08h59.38.841,uncolored_shuffled,2021.2.3,59.97422307813654,
C:\Users\subject\Desktop\SVRT Experiments\SVRT Experiment 3\svrt_images\generated_images\results_problem_12,,,,,C:\Users\subject\Desktop\SVRT Experiments\SVRT Experiment 3\svrt_images\generated_images\results_problem_14\sample_1_0012.png,C:\Users\subject\Desktop\SVRT Experiments\SVRT Experiment 3\svrt_images\generated_images\results_problem_12\sample_0_0010.png,,,,,,,,,,,,,,,,,,0,5,5,5,0,27,27,27,,,,,,,,,,,,,,f,12,A,B,13,0,Incorrect!,0.8489807999576442,738.1604017000063,None,738.1604017000063,None,739.0270183000248,None,,,,,51,001,2023-05-16_08h59.38.841,uncolored_shuffled,2021.2.3,59.97422307813654,
C:\Users\subject\Desktop\SVRT Experiments\SVRT Experiment 3\svrt_images\generated_images\results_problem_12,,,,,C:\Users\subject\Desktop\SVRT Experiments\SVRT Experiment 3\svrt_images\generated_images\results_problem_14\sample_1_0012.png,C:\Users\subject\Desktop\SVRT Experiments\SVRT Experiment 3\svrt_images\generated_images\results_problem_12\sample_1_0007.png,,,,,,,,,,,,,,,,,,0,5,5,5,0,28,28,28,,,,,,,,,,,,,,j,12,B,A,13,0,Incorrect!,0.5064608000102453,740.3269385000458,None,740.3269385000458,None,740.8769511000137,None,,,,,51,001,2023-05-16_08h59.38.841,uncolored_shuffled,2021.2.3,59.97422307813654,
C:\Users\subject\Desktop\SVRT Experiments\SVRT Experiment 3\svrt_images\generated_images\results_problem_12,,,,,C:\Users\subject\Desktop\SVRT Experiments\SVRT Experiment 3\svrt_images\generated_images\results_problem_14\sample_1_0012.png,C:\Users\subject\Desktop\SVRT Experiments\SVRT Experiment 3\svrt_images\generated_images\results_problem_12\sample_0_0000.png,,,,,,,,,,,,,,,,,,0,5,5,5,0,29,29,29,,,,,,,,,,,,,,j,12,B,B,13,1,Correct!,0.5586117000202648,742.2268271000357,None,742.2268271000357,None,742.843468600011,None,,,,,51,001,2023-05-16_08h59.38.841,uncolored_shuffled,2021.2.3,59.97422307813654,
C:\Users\subject\Desktop\SVRT Experiments\SVRT Experiment 3\svrt_images\generated_images\results_problem_12,,,,,C:\Users\subject\Desktop\SVRT Experiments\SVRT Experiment 3\svrt_images\generated_images\results_problem_14\sample_1_0012.png,C:\Users\subject\Desktop\SVRT Experiments\SVRT Experiment 3\svrt_images\generated_images\results_problem_12\sample_0_0016.png,,,,,,,,,,,,,,,,,,0,5,5,5,0,30,30,30,,,,,,,,,,,,,,f,12,A,B,13,0,Incorrect!,0.41864740004530177,744.126716400031,None,744.126716400031,None,744.6100168999983,None,,,,,51,001,2023-05-16_08h59.38.841,uncolored_shuffled,2021.2.3,59.97422307813654,
