folder,results_problem_21,results_problem_17,results_problem_19,results_problem_6,results_problem_14,results_problem_12,results_problem_4,results_problem_7,results_problem_1,results_problem_16,results_problem_10,results_problem_22,results_problem_9,results_problem_8,results_problem_13,results_problem_2,results_problem_3,results_problem_20,results_problem_18,results_problem_23,results_problem_15,results_problem_11,results_problem_5,categories.thisRepN,categories.thisTrialN,categories.thisN,categories.thisIndex,trials.thisRepN,trials.thisTrialN,trials.thisN,trials.thisIndex,consent_text.started,consent_kb.started,consent_kb.keys,consent_kb.rt,Gender.keys,Gender.rt,Age,instructions_text.started,instructions_text.stopped,instructions_kb.keys,instructions_kb.rt,instructions_kb.started,instructions_kb.stopped,trial_kb.keys,current_problem_num,category_resp,answer,seed,accuracy,feedback,trial_kb.rt,trial_kb.started,trial_kb.stopped,trial_image.started,trial_image.stopped,feedback_text.started,feedback_text.stopped,new_problem_kb.started,new_problem_text.started,new_problem_kb.keys,new_problem_kb.rt,Participant #,session,date,expName,psychopyVersion,frameRate,
,,,,,,,,,,,,,,,,,,,,,,,,,,,,,,,,63.10303939995356,63.10303939995356,y,16.648772999993525,,,,,,,,,,,,,,,,,,,,,,,,,,,,52,001,2023-05-16_09h56.22.415,uncolored_sorted,2021.2.3,60.00639669566692,
,,,,,,,,,,,,,,,,,,,,,,,,,,,,,,,,,,,,w,6.247094799997285,,,,,,,,,,,,,,,,,,,,,,,,,,52,001,2023-05-16_09h56.22.415,uncolored_sorted,2021.2.3,60.00639669566692,
,,,,,,,,,,,,,,,,,,,,,,,,,,,,,,,,,,,,,,20,90.7427615999477,None,space,34.78509300004225,90.7427615999477,None,,,,,,,,,,,,,,,,,,,52,001,2023-05-16_09h56.22.415,uncolored_sorted,2021.2.3,60.00639669566692,
C:\Users\subject\Desktop\SVRT Experiments\SVRT Experiment 3\svrt_images\generated_images\results_problem_21,C:\Users\subject\Desktop\SVRT Experiments\SVRT Experiment 3\svrt_images\generated_images\results_problem_21\sample_1_0015.png,,,,,,,,,,,,,,,,,,,,,,,0,0,0,0,0,0,0,0,,,,,,,,,,,,,,j,21,B,A,13,0,Incorrect!,6.090875900001265,125.7407802999951,None,125.7407802999951,None,131.8734887999599,None,,,,,52,001,2023-05-16_09h56.22.415,uncolored_sorted,2021.2.3,60.00639669566692,
C:\Users\subject\Desktop\SVRT Experiments\SVRT Experiment 3\svrt_images\generated_images\results_problem_21,C:\Users\subject\Desktop\SVRT Experiments\SVRT Experiment 3\svrt_images\generated_images\results_problem_21\sample_1_0012.png,,,,,,,,,,,,,,,,,,,,,,,0,0,0,0,0,1,1,1,,,,,,,,,,,,,,f,21,A,A,13,1,Correct!,1.2602443999494426,132.92343259998597,None,132.92343259998597,None,134.2067582999589,None,,,,,52,001,2023-05-16_09h56.22.415,uncolored_sorted,2021.2.3,60.00639669566692,
C:\Users\subject\Desktop\SVRT Experiments\SVRT Experiment 3\svrt_images\generated_images\results_problem_21,C:\Users\subject\Desktop\SVRT Experiments\SVRT Experiment 3\svrt_images\generated_images\results_problem_21\sample_0_0002.png,,,,,,,,,,,,,,,,,,,,,,,0,0,0,0,0,2,2,2,,,,,,,,,,,,,,f,21,A,B,13,0,Incorrect!,4.79988179996144,135.24002799997106,None,135.24002799997106,None,140.07264249998843,None,,,,,52,001,2023-05-16_09h56.22.415,uncolored_sorted,2021.2.3,60.00639669566692,
C:\Users\subject\Desktop\SVRT Experiments\SVRT Experiment 3\svrt_images\generated_images\results_problem_21,C:\Users\subject\Desktop\SVRT Experiments\SVRT Experiment 3\svrt_images\generated_images\results_problem_21\sample_1_0000.png,,,,,,,,,,,,,,,,,,,,,,,0,0,0,0,0,3,3,3,,,,,,,,,,,,,,j,21,B,A,13,0,Incorrect!,3.7651582000544295,141.12256029999116,None,141.12256029999116,None,144.90562419994967,None,,,,,52,001,2023-05-16_09h56.22.415,uncolored_sorted,2021.2.3,60.00639669566692,
C:\Users\subject\Desktop\SVRT Experiments\SVRT Experiment 3\svrt_images\generated_images\results_problem_21,C:\Users\subject\Desktop\SVRT Experiments\SVRT Experiment 3\svrt_images\generated_images\results_problem_21\sample_1_0004.png,,,,,,,,,,,,,,,,,,,,,,,0,0,0,0,0,4,4,4,,,,,,,,,,,,,,f,21,A,A,13,1,Correct!,2.0682426000130363,145.95556229999056,None,145.95556229999056,None,148.05542789999163,None,,,,,52,001,2023-05-16_09h56.22.415,uncolored_sorted,2021.2.3,60.00639669566692,
C:\Users\subject\Desktop\SVRT Experiments\SVRT Experiment 3\svrt_images\generated_images\results_problem_21,C:\Users\subject\Desktop\SVRT Experiments\SVRT Experiment 3\svrt_images\generated_images\results_problem_21\sample_0_0013.png,,,,,,,,,,,,,,,,,,,,,,,0,0,0,0,0,5,5,5,,,,,,,,,,,,,,f,21,A,B,13,0,Incorrect!,2.4538339000428095,149.12203279999085,None,149.12203279999085,None,151.6051090999972,None,,,,,52,001,2023-05-16_09h56.22.415,uncolored_sorted,2021.2.3,60.00639669566692,
C:\Users\subject\Desktop\SVRT Experiments\SVRT Experiment 3\svrt_images\generated_images\results_problem_21,C:\Users\subject\Desktop\SVRT Experiments\SVRT Experiment 3\svrt_images\generated_images\results_problem_21\sample_1_0003.png,,,,,,,,,,,,,,,,,,,,,,,0,0,0,0,0,6,6,6,,,,,,,,,,,,,,j,21,B,A,13,0,Incorrect!,1.7040515000117011,152.67180089995963,None,152.67180089995963,None,154.40490879997378,None,,,,,52,001,2023-05-16_09h56.22.415,uncolored_sorted,2021.2.3,60.00639669566692,
C:\Users\subject\Desktop\SVRT Experiments\SVRT Experiment 3\svrt_images\generated_images\results_problem_21,C:\Users\subject\Desktop\SVRT Experiments\SVRT Experiment 3\svrt_images\generated_images\results_problem_21\sample_1_0002.png,,,,,,,,,,,,,,,,,,,,,,,0,0,0,0,0,7,7,7,,,,,,,,,,,,,,j,21,B,A,13,0,Incorrect!,1.5277066999697126,155.4881849999656,None,155.4881849999656,None,157.03801189997466,None,,,,,52,001,2023-05-16_09h56.22.415,uncolored_sorted,2021.2.3,60.00639669566692,
C:\Users\subject\Desktop\SVRT Experiments\SVRT Experiment 3\svrt_images\generated_images\results_problem_21,C:\Users\subject\Desktop\SVRT Experiments\SVRT Experiment 3\svrt_images\generated_images\results_problem_21\sample_0_0011.png,,,,,,,,,,,,,,,,,,,,,,,0,0,0,0,0,8,8,8,,,,,,,,,,,,,,f,21,A,B,13,0,Incorrect!,0.8784883000189438,158.1212442999822,None,158.1212442999822,None,159.0214444999583,None,,,,,52,001,2023-05-16_09h56.22.415,uncolored_sorted,2021.2.3,60.00639669566692,
C:\Users\subject\Desktop\SVRT Experiments\SVRT Experiment 3\svrt_images\generated_images\results_problem_21,C:\Users\subject\Desktop\SVRT Experiments\SVRT Experiment 3\svrt_images\generated_images\results_problem_21\sample_0_0012.png,,,,,,,,,,,,,,,,,,,,,,,0,0,0,0,0,9,9,9,,,,,,,,,,,,,,j,21,B,B,13,1,Correct!,1.55122260004282,160.10465009999461,None,160.10465009999461,None,161.6878862999729,None,,,,,52,001,2023-05-16_09h56.22.415,uncolored_sorted,2021.2.3,60.00639669566692,
C:\Users\subject\Desktop\SVRT Experiments\SVRT Experiment 3\svrt_images\generated_images\results_problem_21,C:\Users\subject\Desktop\SVRT Experiments\SVRT Experiment 3\svrt_images\generated_images\results_problem_21\sample_0_0009.png,,,,,,,,,,,,,,,,,,,,,,,0,0,0,0,0,10,10,10,,,,,,,,,,,,,,f,21,A,B,13,0,Incorrect!,1.300023699994199,162.78781739994884,None,162.78781739994884,None,164.12088010000298,None,,,,,52,001,2023-05-16_09h56.22.415,uncolored_sorted,2021.2.3,60.00639669566692,
C:\Users\subject\Desktop\SVRT Experiments\SVRT Experiment 3\svrt_images\generated_images\results_problem_21,C:\Users\subject\Desktop\SVRT Experiments\SVRT Experiment 3\svrt_images\generated_images\results_problem_21\sample_1_0010.png,,,,,,,,,,,,,,,,,,,,,,,0,0,0,0,0,11,11,11,,,,,,,,,,,,,,j,21,B,A,13,0,Incorrect!,1.7468929000315256,165.22082149999915,None,165.22082149999915,None,166.98737369995797,None,,,,,52,001,2023-05-16_09h56.22.415,uncolored_sorted,2021.2.3,60.00639669566692,
C:\Users\subject\Desktop\SVRT Experiments\SVRT Experiment 3\svrt_images\generated_images\results_problem_21,C:\Users\subject\Desktop\SVRT Experiments\SVRT Experiment 3\svrt_images\generated_images\results_problem_21\sample_0_0000.png,,,,,,,,,,,,,,,,,,,,,,,0,0,0,0,0,12,12,12,,,,,,,,,,,,,,j,21,B,B,13,1,Correct!,1.5519260000437498,168.1039727999596,None,168.1039727999596,None,169.68739739997545,None,,,,,52,001,2023-05-16_09h56.22.415,uncolored_sorted,2021.2.3,60.00639669566692,
C:\Users\subject\Desktop\SVRT Experiments\SVRT Experiment 3\svrt_images\generated_images\results_problem_21,C:\Users\subject\Desktop\SVRT Experiments\SVRT Experiment 3\svrt_images\generated_images\results_problem_21\sample_1_0009.png,,,,,,,,,,,,,,,,,,,,,,,0,0,0,0,0,13,13,13,,,,,,,,,,,,,,f,21,A,A,13,1,Correct!,1.1878775999648497,170.80398799997056,None,170.80398799997056,None,172.02039530000184,None,,,,,52,001,2023-05-16_09h56.22.415,uncolored_sorted,2021.2.3,60.00639669566692,
C:\Users\subject\Desktop\SVRT Experiments\SVRT Experiment 3\svrt_images\generated_images\results_problem_21,C:\Users\subject\Desktop\SVRT Experiments\SVRT Experiment 3\svrt_images\generated_images\results_problem_21\sample_0_0014.png,,,,,,,,,,,,,,,,,,,,,,,0,0,0,0,0,14,14,14,,,,,,,,,,,,,,f,21,A,B,13,0,Incorrect!,1.6228940999717452,173.13698839995777,None,173.13698839995777,None,174.8037327999482,None,,,,,52,001,2023-05-16_09h56.22.415,uncolored_sorted,2021.2.3,60.00639669566692,
C:\Users\subject\Desktop\SVRT Experiments\SVRT Experiment 3\svrt_images\generated_images\results_problem_21,C:\Users\subject\Desktop\SVRT Experiments\SVRT Experiment 3\svrt_images\generated_images\results_problem_21\sample_0_0004.png,,,,,,,,,,,,,,,,,,,,,,,0,0,0,0,0,15,15,15,,,,,,,,,,,,,,f,21,A,B,13,0,Incorrect!,3.670855499978643,175.93699580000248,None,175.93699580000248,None,179.6534272999852,None,,,,,52,001,2023-05-16_09h56.22.415,uncolored_sorted,2021.2.3,60.00639669566692,
C:\Users\subject\Desktop\SVRT Experiments\SVRT Experiment 3\svrt_images\generated_images\results_problem_21,C:\Users\subject\Desktop\SVRT Experiments\SVRT Experiment 3\svrt_images\generated_images\results_problem_21\sample_0_0006.png,,,,,,,,,,,,,,,,,,,,,,,0,0,0,0,0,16,16,16,,,,,,,,,,,,,,f,21,A,B,13,0,Incorrect!,3.493221100012306,180.78673799999524,None,180.78673799999524,None,184.30314629996428,None,,,,,52,001,2023-05-16_09h56.22.415,uncolored_sorted,2021.2.3,60.00639669566692,
C:\Users\subject\Desktop\SVRT Experiments\SVRT Experiment 3\svrt_images\generated_images\results_problem_21,C:\Users\subject\Desktop\SVRT Experiments\SVRT Experiment 3\svrt_images\generated_images\results_problem_21\sample_1_0001.png,,,,,,,,,,,,,,,,,,,,,,,0,0,0,0,0,17,17,17,,,,,,,,,,,,,,j,21,B,A,13,0,Incorrect!,1.610851100005675,185.45311299996683,None,185.45311299996683,None,187.1029727999703,None,,,,,52,001,2023-05-16_09h56.22.415,uncolored_sorted,2021.2.3,60.00639669566692,
C:\Users\subject\Desktop\SVRT Experiments\SVRT Experiment 3\svrt_images\generated_images\results_problem_21,C:\Users\subject\Desktop\SVRT Experiments\SVRT Experiment 3\svrt_images\generated_images\results_problem_21\sample_1_0014.png,,,,,,,,,,,,,,,,,,,,,,,0,0,0,0,0,18,18,18,,,,,,,,,,,,,,j,21,B,A,13,0,Incorrect!,2.666446099989116,188.2695857999497,None,188.2695857999497,None,190.9527857999783,None,,,,,52,001,2023-05-16_09h56.22.415,uncolored_sorted,2021.2.3,60.00639669566692,
C:\Users\subject\Desktop\SVRT Experiments\SVRT Experiment 3\svrt_images\generated_images\results_problem_21,C:\Users\subject\Desktop\SVRT Experiments\SVRT Experiment 3\svrt_images\generated_images\results_problem_21\sample_1_0011.png,,,,,,,,,,,,,,,,,,,,,,,0,0,0,0,0,19,19,19,,,,,,,,,,,,,,j,21,B,A,13,0,Incorrect!,1.6806157999671996,192.11935349996202,None,192.11935349996202,None,193.8359072000021,None,,,,,52,001,2023-05-16_09h56.22.415,uncolored_sorted,2021.2.3,60.00639669566692,
C:\Users\subject\Desktop\SVRT Experiments\SVRT Experiment 3\svrt_images\generated_images\results_problem_21,C:\Users\subject\Desktop\SVRT Experiments\SVRT Experiment 3\svrt_images\generated_images\results_problem_21\sample_0_0008.png,,,,,,,,,,,,,,,,,,,,,,,0,0,0,0,0,20,20,20,,,,,,,,,,,,,,f,21,A,B,13,0,Incorrect!,7.356868300004862,195.01917249994585,None,195.01917249994585,None,202.40206979995128,None,,,,,52,001,2023-05-16_09h56.22.415,uncolored_sorted,2021.2.3,60.00639669566692,
C:\Users\subject\Desktop\SVRT Experiments\SVRT Experiment 3\svrt_images\generated_images\results_problem_21,C:\Users\subject\Desktop\SVRT Experiments\SVRT Experiment 3\svrt_images\generated_images\results_problem_21\sample_0_0007.png,,,,,,,,,,,,,,,,,,,,,,,0,0,0,0,0,21,21,21,,,,,,,,,,,,,,f,21,A,B,13,0,Incorrect!,1.0306045999750495,203.58529959997395,None,203.58529959997395,None,204.63522269995883,None,,,,,52,001,2023-05-16_09h56.22.415,uncolored_sorted,2021.2.3,60.00639669566692,
C:\Users\subject\Desktop\SVRT Experiments\SVRT Experiment 3\svrt_images\generated_images\results_problem_21,C:\Users\subject\Desktop\SVRT Experiments\SVRT Experiment 3\svrt_images\generated_images\results_problem_21\sample_1_0007.png,,,,,,,,,,,,,,,,,,,,,,,0,0,0,0,0,22,22,22,,,,,,,,,,,,,,j,21,B,A,13,0,Incorrect!,2.2048006000113674,205.83516509999754,None,205.83516509999754,None,208.10167849995196,None,,,,,52,001,2023-05-16_09h56.22.415,uncolored_sorted,2021.2.3,60.00639669566692,
C:\Users\subject\Desktop\SVRT Experiments\SVRT Experiment 3\svrt_images\generated_images\results_problem_21,C:\Users\subject\Desktop\SVRT Experiments\SVRT Experiment 3\svrt_images\generated_images\results_problem_21\sample_1_0006.png,,,,,,,,,,,,,,,,,,,,,,,0,0,0,0,0,23,23,23,,,,,,,,,,,,,,f,21,A,A,13,1,Correct!,0.722200000018347,209.30161809996935,None,209.30161809996935,None,210.06823279999662,None,,,,,52,001,2023-05-16_09h56.22.415,uncolored_sorted,2021.2.3,60.00639669566692,
C:\Users\subject\Desktop\SVRT Experiments\SVRT Experiment 3\svrt_images\generated_images\results_problem_21,C:\Users\subject\Desktop\SVRT Experiments\SVRT Experiment 3\svrt_images\generated_images\results_problem_21\sample_0_0005.png,,,,,,,,,,,,,,,,,,,,,,,0,0,0,0,0,24,24,24,,,,,,,,,,,,,,j,21,B,B,13,1,Correct!,1.5073256000177935,211.28466789994854,None,211.28466789994854,None,212.85144209995633,None,,,,,52,001,2023-05-16_09h56.22.415,uncolored_sorted,2021.2.3,60.00639669566692,
C:\Users\subject\Desktop\SVRT Experiments\SVRT Experiment 3\svrt_images\generated_images\results_problem_21,C:\Users\subject\Desktop\SVRT Experiments\SVRT Experiment 3\svrt_images\generated_images\results_problem_21\sample_1_0008.png,,,,,,,,,,,,,,,,,,,,,,,0,0,0,0,0,25,25,25,,,,,,,,,,,,,,f,21,A,A,13,1,Correct!,1.9390938999713399,214.08467989997007,None,214.08467989997007,None,216.05119849997573,None,,,,,52,001,2023-05-16_09h56.22.415,uncolored_sorted,2021.2.3,60.00639669566692,
C:\Users\subject\Desktop\SVRT Experiments\SVRT Experiment 3\svrt_images\generated_images\results_problem_21,C:\Users\subject\Desktop\SVRT Experiments\SVRT Experiment 3\svrt_images\generated_images\results_problem_21\sample_0_0016.png,,,,,,,,,,,,,,,,,,,,,,,0,0,0,0,0,26,26,26,,,,,,,,,,,,,,f,21,A,B,13,0,Incorrect!,1.6835717000067234,217.28445979999378,None,217.28445979999378,None,219.00101589999394,None,,,,,52,001,2023-05-16_09h56.22.415,uncolored_sorted,2021.2.3,60.00639669566692,
C:\Users\subject\Desktop\SVRT Experiments\SVRT Experiment 3\svrt_images\generated_images\results_problem_21,C:\Users\subject\Desktop\SVRT Experiments\SVRT Experiment 3\svrt_images\generated_images\results_problem_21\sample_0_0010.png,,,,,,,,,,,,,,,,,,,,,,,0,0,0,0,0,27,27,27,,,,,,,,,,,,,,f,21,A,B,13,0,Incorrect!,0.8610584000125527,220.25093879998894,None,220.25093879998894,None,221.16754749999382,None,,,,,52,001,2023-05-16_09h56.22.415,uncolored_sorted,2021.2.3,60.00639669566692,
C:\Users\subject\Desktop\SVRT Experiments\SVRT Experiment 3\svrt_images\generated_images\results_problem_21,C:\Users\subject\Desktop\SVRT Experiments\SVRT Experiment 3\svrt_images\generated_images\results_problem_21\sample_1_0005.png,,,,,,,,,,,,,,,,,,,,,,,0,0,0,0,0,28,28,28,,,,,,,,,,,,,,f,21,A,A,13,1,Correct!,0.5665643999818712,222.41745949996402,None,222.41745949996402,None,223.03410949994577,None,,,,,52,001,2023-05-16_09h56.22.415,uncolored_sorted,2021.2.3,60.00639669566692,
C:\Users\subject\Desktop\SVRT Experiments\SVRT Experiment 3\svrt_images\generated_images\results_problem_21,C:\Users\subject\Desktop\SVRT Experiments\SVRT Experiment 3\svrt_images\generated_images\results_problem_21\sample_1_0016.png,,,,,,,,,,,,,,,,,,,,,,,0,0,0,0,0,29,29,29,,,,,,,,,,,,,,j,21,B,A,13,0,Incorrect!,0.4759889999986626,224.2840452999808,None,224.2840452999808,None,224.8340156999766,None,,,,,52,001,2023-05-16_09h56.22.415,uncolored_sorted,2021.2.3,60.00639669566692,
C:\Users\subject\Desktop\SVRT Experiments\SVRT Experiment 3\svrt_images\generated_images\results_problem_21,C:\Users\subject\Desktop\SVRT Experiments\SVRT Experiment 3\svrt_images\generated_images\results_problem_21\sample_0_0001.png,,,,,,,,,,,,,,,,,,,,,,,0,0,0,0,0,30,30,30,,,,,,,,,,,,,,f,21,A,B,13,0,Incorrect!,1.2021024999557994,226.13392479997128,None,226.13392479997128,None,227.41716749995248,None,,,,,52,001,2023-05-16_09h56.22.415,uncolored_sorted,2021.2.3,60.00639669566692,
C:\Users\subject\Desktop\SVRT Experiments\SVRT Experiment 3\svrt_images\generated_images\results_problem_21,C:\Users\subject\Desktop\SVRT Experiments\SVRT Experiment 3\svrt_images\generated_images\results_problem_21\sample_0_0003.png,,,,,,,,,,,,,,,,,,,,,,,0,0,0,0,0,31,31,31,,,,,,,,,,,,,,j,21,B,B,13,1,Correct!,0.49156549997860566,228.70044519996736,None,228.70044519996736,None,229.25038569996832,None,,,,,52,001,2023-05-16_09h56.22.415,uncolored_sorted,2021.2.3,60.00639669566692,
C:\Users\subject\Desktop\SVRT Experiments\SVRT Experiment 3\svrt_images\generated_images\results_problem_21,C:\Users\subject\Desktop\SVRT Experiments\SVRT Experiment 3\svrt_images\generated_images\results_problem_21\sample_0_0015.png,,,,,,,,,,,,,,,,,,,,,,,0,0,0,0,0,32,32,32,,,,,,,,,,,,,,j,21,B,B,13,1,Correct!,0.8503413999569602,230.53364539996255,None,230.53364539996255,None,231.45027039997512,None,,,,,52,001,2023-05-16_09h56.22.415,uncolored_sorted,2021.2.3,60.00639669566692,
C:\Users\subject\Desktop\SVRT Experiments\SVRT Experiment 3\svrt_images\generated_images\results_problem_21,C:\Users\subject\Desktop\SVRT Experiments\SVRT Experiment 3\svrt_images\generated_images\results_problem_21\sample_1_0013.png,,,,,,,,,,,,,,,,,,,,,,,0,0,0,0,0,33,33,33,,,,,,,,,,,,,,f,21,A,A,13,1,Correct!,0.7777901999652386,232.75020059995586,None,232.75020059995586,None,233.58346319996053,None,,,,,52,001,2023-05-16_09h56.22.415,uncolored_sorted,2021.2.3,60.00639669566692,
C:\Users\subject\Desktop\SVRT Experiments\SVRT Experiment 3\svrt_images\generated_images\results_problem_21,,,,,,,,,,,,,,,,,,,,,,,,0,0,0,0,,,,,,,,,,,,,,,,,,,,,,,,,,,,,,,,234.5834050999838,234.5834050999838,space,2.304651999962516,52,001,2023-05-16_09h56.22.415,uncolored_sorted,2021.2.3,60.00639669566692,
C:\Users\subject\Desktop\SVRT Experiments\SVRT Experiment 3\svrt_images\generated_images\results_problem_17,,C:\Users\subject\Desktop\SVRT Experiments\SVRT Experiment 3\svrt_images\generated_images\results_problem_17\sample_0_0006.png,,,,,,,,,,,,,,,,,,,,,,0,1,1,1,0,0,0,0,,,,,,,,,,,,,,f,17,A,B,13,0,Incorrect!,5.441993699991144,236.94994749996113,None,236.94994749996113,None,242.4165490999585,None,,,,,52,001,2023-05-16_09h56.22.415,uncolored_sorted,2021.2.3,60.00639669566692,
C:\Users\subject\Desktop\SVRT Experiments\SVRT Experiment 3\svrt_images\generated_images\results_problem_17,,C:\Users\subject\Desktop\SVRT Experiments\SVRT Experiment 3\svrt_images\generated_images\results_problem_17\sample_1_0011.png,,,,,,,,,,,,,,,,,,,,,,0,1,1,1,0,1,1,1,,,,,,,,,,,,,,j,17,B,A,13,0,Incorrect!,1.1182534000254236,243.44981579994783,None,243.44981579994783,None,244.59980659995927,None,,,,,52,001,2023-05-16_09h56.22.415,uncolored_sorted,2021.2.3,60.00639669566692,
C:\Users\subject\Desktop\SVRT Experiments\SVRT Experiment 3\svrt_images\generated_images\results_problem_17,,C:\Users\subject\Desktop\SVRT Experiments\SVRT Experiment 3\svrt_images\generated_images\results_problem_17\sample_1_0012.png,,,,,,,,,,,,,,,,,,,,,,0,1,1,1,0,2,2,2,,,,,,,,,,,,,,j,17,B,A,13,0,Incorrect!,2.9669733999762684,245.63308429997414,None,245.63308429997414,None,248.63294639997184,None,,,,,52,001,2023-05-16_09h56.22.415,uncolored_sorted,2021.2.3,60.00639669566692,
C:\Users\subject\Desktop\SVRT Experiments\SVRT Experiment 3\svrt_images\generated_images\results_problem_17,,C:\Users\subject\Desktop\SVRT Experiments\SVRT Experiment 3\svrt_images\generated_images\results_problem_17\sample_0_0015.png,,,,,,,,,,,,,,,,,,,,,,0,1,1,1,0,3,3,3,,,,,,,,,,,,,,j,17,B,B,13,1,Correct!,1.0769901999738067,249.68293249997078,None,249.68293249997078,None,250.78286449995358,None,,,,,52,001,2023-05-16_09h56.22.415,uncolored_sorted,2021.2.3,60.00639669566692,
C:\Users\subject\Desktop\SVRT Experiments\SVRT Experiment 3\svrt_images\generated_images\results_problem_17,,C:\Users\subject\Desktop\SVRT Experiments\SVRT Experiment 3\svrt_images\generated_images\results_problem_17\sample_0_0002.png,,,,,,,,,,,,,,,,,,,,,,0,1,1,1,0,4,4,4,,,,,,,,,,,,,,f,17,A,B,13,0,Incorrect!,0.49634279997553676,251.81575259997044,None,251.81575259997044,None,252.33238919998985,None,,,,,52,001,2023-05-16_09h56.22.415,uncolored_sorted,2021.2.3,60.00639669566692,
C:\Users\subject\Desktop\SVRT Experiments\SVRT Experiment 3\svrt_images\generated_images\results_problem_17,,C:\Users\subject\Desktop\SVRT Experiments\SVRT Experiment 3\svrt_images\generated_images\results_problem_17\sample_0_0013.png,,,,,,,,,,,,,,,,,,,,,,0,1,1,1,0,5,5,5,,,,,,,,,,,,,,f,17,A,B,13,0,Incorrect!,1.0731061999686062,253.3827110999846,None,253.3827110999846,None,254.48252089996822,None,,,,,52,001,2023-05-16_09h56.22.415,uncolored_sorted,2021.2.3,60.00639669566692,
C:\Users\subject\Desktop\SVRT Experiments\SVRT Experiment 3\svrt_images\generated_images\results_problem_17,,C:\Users\subject\Desktop\SVRT Experiments\SVRT Experiment 3\svrt_images\generated_images\results_problem_17\sample_0_0000.png,,,,,,,,,,,,,,,,,,,,,,0,1,1,1,0,6,6,6,,,,,,,,,,,,,,j,17,B,B,13,1,Correct!,2.906338400032837,255.5657721000025,None,255.5657721000025,None,258.49858049995964,None,,,,,52,001,2023-05-16_09h56.22.415,uncolored_sorted,2021.2.3,60.00639669566692,
C:\Users\subject\Desktop\SVRT Experiments\SVRT Experiment 3\svrt_images\generated_images\results_problem_17,,C:\Users\subject\Desktop\SVRT Experiments\SVRT Experiment 3\svrt_images\generated_images\results_problem_17\sample_1_0002.png,,,,,,,,,,,,,,,,,,,,,,0,1,1,1,0,7,7,7,,,,,,,,,,,,,,f,17,A,A,13,1,Correct!,2.0581496000522748,259.5818309999886,None,259.5818309999886,None,261.66494099999545,None,,,,,52,001,2023-05-16_09h56.22.415,uncolored_sorted,2021.2.3,60.00639669566692,
C:\Users\subject\Desktop\SVRT Experiments\SVRT Experiment 3\svrt_images\generated_images\results_problem_17,,C:\Users\subject\Desktop\SVRT Experiments\SVRT Experiment 3\svrt_images\generated_images\results_problem_17\sample_1_0009.png,,,,,,,,,,,,,,,,,,,,,,0,1,1,1,0,8,8,8,,,,,,,,,,,,,,f,17,A,A,13,1,Correct!,0.9725603999686427,262.7315424999688,None,262.7315424999688,None,263.73166939994553,None,,,,,52,001,2023-05-16_09h56.22.415,uncolored_sorted,2021.2.3,60.00639669566692,
C:\Users\subject\Desktop\SVRT Experiments\SVRT Experiment 3\svrt_images\generated_images\results_problem_17,,C:\Users\subject\Desktop\SVRT Experiments\SVRT Experiment 3\svrt_images\generated_images\results_problem_17\sample_0_0004.png,,,,,,,,,,,,,,,,,,,,,,0,1,1,1,0,9,9,9,,,,,,,,,,,,,,j,17,B,B,13,1,Correct!,1.033150499977637,264.8149441999849,None,264.8149441999849,None,265.88153299997794,None,,,,,52,001,2023-05-16_09h56.22.415,uncolored_sorted,2021.2.3,60.00639669566692,
C:\Users\subject\Desktop\SVRT Experiments\SVRT Experiment 3\svrt_images\generated_images\results_problem_17,,C:\Users\subject\Desktop\SVRT Experiments\SVRT Experiment 3\svrt_images\generated_images\results_problem_17\sample_0_0003.png,,,,,,,,,,,,,,,,,,,,,,0,1,1,1,0,10,10,10,,,,,,,,,,,,,,f,17,A,B,13,0,Incorrect!,1.1072826000163332,266.964829799952,None,266.964829799952,None,268.0980678999913,None,,,,,52,001,2023-05-16_09h56.22.415,uncolored_sorted,2021.2.3,60.00639669566692,
C:\Users\subject\Desktop\SVRT Experiments\SVRT Experiment 3\svrt_images\generated_images\results_problem_17,,C:\Users\subject\Desktop\SVRT Experiments\SVRT Experiment 3\svrt_images\generated_images\results_problem_17\sample_1_0014.png,,,,,,,,,,,,,,,,,,,,,,0,1,1,1,0,11,11,11,,,,,,,,,,,,,,f,17,A,A,13,1,Correct!,2.0266796000069007,269.18135229998734,None,269.18135229998734,None,271.23103209998226,None,,,,,52,001,2023-05-16_09h56.22.415,uncolored_sorted,2021.2.3,60.00639669566692,
C:\Users\subject\Desktop\SVRT Experiments\SVRT Experiment 3\svrt_images\generated_images\results_problem_17,,C:\Users\subject\Desktop\SVRT Experiments\SVRT Experiment 3\svrt_images\generated_images\results_problem_17\sample_0_0009.png,,,,,,,,,,,,,,,,,,,,,,0,1,1,1,0,12,12,12,,,,,,,,,,,,,,f,17,A,B,13,0,Incorrect!,1.357646599994041,272.31431429996155,None,272.31431429996155,None,273.69774389994564,None,,,,,52,001,2023-05-16_09h56.22.415,uncolored_sorted,2021.2.3,60.00639669566692,
C:\Users\subject\Desktop\SVRT Experiments\SVRT Experiment 3\svrt_images\generated_images\results_problem_17,,C:\Users\subject\Desktop\SVRT Experiments\SVRT Experiment 3\svrt_images\generated_images\results_problem_17\sample_0_0005.png,,,,,,,,,,,,,,,,,,,,,,0,1,1,1,0,13,13,13,,,,,,,,,,,,,,f,17,A,B,13,0,Incorrect!,3.418285100022331,274.7976544999983,None,274.7976544999983,None,278.2472691999865,None,,,,,52,001,2023-05-16_09h56.22.415,uncolored_sorted,2021.2.3,60.00639669566692,
C:\Users\subject\Desktop\SVRT Experiments\SVRT Experiment 3\svrt_images\generated_images\results_problem_17,,C:\Users\subject\Desktop\SVRT Experiments\SVRT Experiment 3\svrt_images\generated_images\results_problem_17\sample_1_0005.png,,,,,,,,,,,,,,,,,,,,,,0,1,1,1,0,14,14,14,,,,,,,,,,,,,,j,17,B,A,13,0,Incorrect!,1.379611800017301,279.38053689996013,None,279.38053689996013,None,280.79728649999015,None,,,,,52,001,2023-05-16_09h56.22.415,uncolored_sorted,2021.2.3,60.00639669566692,
C:\Users\subject\Desktop\SVRT Experiments\SVRT Experiment 3\svrt_images\generated_images\results_problem_17,,C:\Users\subject\Desktop\SVRT Experiments\SVRT Experiment 3\svrt_images\generated_images\results_problem_17\sample_0_0011.png,,,,,,,,,,,,,,,,,,,,,,0,1,1,1,0,15,15,15,,,,,,,,,,,,,,j,17,B,B,13,1,Correct!,0.8615187999675982,281.9305632999749,None,281.9305632999749,None,282.8138427999802,None,,,,,52,001,2023-05-16_09h56.22.415,uncolored_sorted,2021.2.3,60.00639669566692,
C:\Users\subject\Desktop\SVRT Experiments\SVRT Experiment 3\svrt_images\generated_images\results_problem_17,,C:\Users\subject\Desktop\SVRT Experiments\SVRT Experiment 3\svrt_images\generated_images\results_problem_17\sample_1_0016.png,,,,,,,,,,,,,,,,,,,,,,0,1,1,1,0,16,16,16,,,,,,,,,,,,,,j,17,B,A,13,0,Incorrect!,0.7489748999942094,283.9471119999653,None,283.9471119999653,None,284.7303960999707,None,,,,,52,001,2023-05-16_09h56.22.415,uncolored_sorted,2021.2.3,60.00639669566692,
C:\Users\subject\Desktop\SVRT Experiments\SVRT Experiment 3\svrt_images\generated_images\results_problem_17,,C:\Users\subject\Desktop\SVRT Experiments\SVRT Experiment 3\svrt_images\generated_images\results_problem_17\sample_1_0001.png,,,,,,,,,,,,,,,,,,,,,,0,1,1,1,0,17,17,17,,,,,,,,,,,,,,f,17,A,A,13,1,Correct!,0.5438006999902427,285.8803297999548,None,285.8803297999548,None,286.46364159998484,None,,,,,52,001,2023-05-16_09h56.22.415,uncolored_sorted,2021.2.3,60.00639669566692,
C:\Users\subject\Desktop\SVRT Experiments\SVRT Experiment 3\svrt_images\generated_images\results_problem_17,,C:\Users\subject\Desktop\SVRT Experiments\SVRT Experiment 3\svrt_images\generated_images\results_problem_17\sample_1_0003.png,,,,,,,,,,,,,,,,,,,,,,0,1,1,1,0,18,18,18,,,,,,,,,,,,,,j,17,B,A,13,0,Incorrect!,1.945845099980943,287.63022819999605,None,287.63022819999605,None,289.6134226999711,None,,,,,52,001,2023-05-16_09h56.22.415,uncolored_sorted,2021.2.3,60.00639669566692,
C:\Users\subject\Desktop\SVRT Experiments\SVRT Experiment 3\svrt_images\generated_images\results_problem_17,,C:\Users\subject\Desktop\SVRT Experiments\SVRT Experiment 3\svrt_images\generated_images\results_problem_17\sample_0_0010.png,,,,,,,,,,,,,,,,,,,,,,0,1,1,1,0,19,19,19,,,,,,,,,,,,,,f,17,A,B,13,0,Incorrect!,0.4600532000185922,290.78003329999046,None,290.78003329999046,None,291.2633543999982,None,,,,,52,001,2023-05-16_09h56.22.415,uncolored_sorted,2021.2.3,60.00639669566692,
C:\Users\subject\Desktop\SVRT Experiments\SVRT Experiment 3\svrt_images\generated_images\results_problem_17,,C:\Users\subject\Desktop\SVRT Experiments\SVRT Experiment 3\svrt_images\generated_images\results_problem_17\sample_0_0016.png,,,,,,,,,,,,,,,,,,,,,,0,1,1,1,0,20,20,20,,,,,,,,,,,,,,f,17,A,B,13,0,Incorrect!,0.8573809000081383,292.44661069998983,None,292.44661069998983,None,293.3298786999658,None,,,,,52,001,2023-05-16_09h56.22.415,uncolored_sorted,2021.2.3,60.00639669566692,
C:\Users\subject\Desktop\SVRT Experiments\SVRT Experiment 3\svrt_images\generated_images\results_problem_17,,C:\Users\subject\Desktop\SVRT Experiments\SVRT Experiment 3\svrt_images\generated_images\results_problem_17\sample_1_0008.png,,,,,,,,,,,,,,,,,,,,,,0,1,1,1,0,21,21,21,,,,,,,,,,,,,,f,17,A,A,13,1,Correct!,0.5188339999876916,294.5132231999887,None,294.5132231999887,None,295.07977159996517,None,,,,,52,001,2023-05-16_09h56.22.415,uncolored_sorted,2021.2.3,60.00639669566692,
C:\Users\subject\Desktop\SVRT Experiments\SVRT Experiment 3\svrt_images\generated_images\results_problem_17,,C:\Users\subject\Desktop\SVRT Experiments\SVRT Experiment 3\svrt_images\generated_images\results_problem_17\sample_0_0007.png,,,,,,,,,,,,,,,,,,,,,,0,1,1,1,0,22,22,22,,,,,,,,,,,,,,j,17,B,B,13,1,Correct!,1.6797201000154018,296.2963755999808,None,296.2963755999808,None,298.0129616999766,None,,,,,52,001,2023-05-16_09h56.22.415,uncolored_sorted,2021.2.3,60.00639669566692,
C:\Users\subject\Desktop\SVRT Experiments\SVRT Experiment 3\svrt_images\generated_images\results_problem_17,,C:\Users\subject\Desktop\SVRT Experiments\SVRT Experiment 3\svrt_images\generated_images\results_problem_17\sample_1_0013.png,,,,,,,,,,,,,,,,,,,,,,0,1,1,1,0,23,23,23,,,,,,,,,,,,,,f,17,A,A,13,1,Correct!,1.1312595999916084,299.21287190000294,None,299.21287190000294,None,300.3794780999888,None,,,,,52,001,2023-05-16_09h56.22.415,uncolored_sorted,2021.2.3,60.00639669566692,
C:\Users\subject\Desktop\SVRT Experiments\SVRT Experiment 3\svrt_images\generated_images\results_problem_17,,C:\Users\subject\Desktop\SVRT Experiments\SVRT Experiment 3\svrt_images\generated_images\results_problem_17\sample_1_0006.png,,,,,,,,,,,,,,,,,,,,,,0,1,1,1,0,24,24,24,,,,,,,,,,,,,,j,17,B,A,13,0,Incorrect!,0.9560119999805465,301.59607709996635,None,301.59607709996635,None,302.6126693999977,None,,,,,52,001,2023-05-16_09h56.22.415,uncolored_sorted,2021.2.3,60.00639669566692,
C:\Users\subject\Desktop\SVRT Experiments\SVRT Experiment 3\svrt_images\generated_images\results_problem_17,,C:\Users\subject\Desktop\SVRT Experiments\SVRT Experiment 3\svrt_images\generated_images\results_problem_17\sample_1_0007.png,,,,,,,,,,,,,,,,,,,,,,0,1,1,1,0,25,25,25,,,,,,,,,,,,,,j,17,B,A,13,0,Incorrect!,2.1627563000074588,303.8292602999718,None,303.8292602999718,None,306.045833399985,None,,,,,52,001,2023-05-16_09h56.22.415,uncolored_sorted,2021.2.3,60.00639669566692,
C:\Users\subject\Desktop\SVRT Experiments\SVRT Experiment 3\svrt_images\generated_images\results_problem_17,,C:\Users\subject\Desktop\SVRT Experiments\SVRT Experiment 3\svrt_images\generated_images\results_problem_17\sample_1_0015.png,,,,,,,,,,,,,,,,,,,,,,0,1,1,1,0,26,26,26,,,,,,,,,,,,,,f,17,A,A,13,1,Correct!,0.7449510999722406,307.2790598999709,None,307.2790598999709,None,308.0456698999624,None,,,,,52,001,2023-05-16_09h56.22.415,uncolored_sorted,2021.2.3,60.00639669566692,
C:\Users\subject\Desktop\SVRT Experiments\SVRT Experiment 3\svrt_images\generated_images\results_problem_17,,C:\Users\subject\Desktop\SVRT Experiments\SVRT Experiment 3\svrt_images\generated_images\results_problem_17\sample_0_0012.png,,,,,,,,,,,,,,,,,,,,,,0,1,1,1,0,27,27,27,,,,,,,,,,,,,,f,17,A,B,13,0,Incorrect!,0.6012559000519104,309.2788994999719,None,309.2788994999719,None,309.91221349994885,None,,,,,52,001,2023-05-16_09h56.22.415,uncolored_sorted,2021.2.3,60.00639669566692,
C:\Users\subject\Desktop\SVRT Experiments\SVRT Experiment 3\svrt_images\generated_images\results_problem_17,,C:\Users\subject\Desktop\SVRT Experiments\SVRT Experiment 3\svrt_images\generated_images\results_problem_17\sample_0_0014.png,,,,,,,,,,,,,,,,,,,,,,0,1,1,1,0,28,28,28,,,,,,,,,,,,,,f,17,A,B,13,0,Incorrect!,0.8938365000067279,311.162160399952,None,311.162160399952,None,312.1120789999841,None,,,,,52,001,2023-05-16_09h56.22.415,uncolored_sorted,2021.2.3,60.00639669566692,
C:\Users\subject\Desktop\SVRT Experiments\SVRT Experiment 3\svrt_images\generated_images\results_problem_17,,C:\Users\subject\Desktop\SVRT Experiments\SVRT Experiment 3\svrt_images\generated_images\results_problem_17\sample_1_0000.png,,,,,,,,,,,,,,,,,,,,,,0,1,1,1,0,29,29,29,,,,,,,,,,,,,,j,17,B,A,13,0,Incorrect!,0.4215222000493668,313.3786722999648,None,313.3786722999648,None,313.8619921999634,None,,,,,52,001,2023-05-16_09h56.22.415,uncolored_sorted,2021.2.3,60.00639669566692,
C:\Users\subject\Desktop\SVRT Experiments\SVRT Experiment 3\svrt_images\generated_images\results_problem_17,,C:\Users\subject\Desktop\SVRT Experiments\SVRT Experiment 3\svrt_images\generated_images\results_problem_17\sample_1_0010.png,,,,,,,,,,,,,,,,,,,,,,0,1,1,1,0,30,30,30,,,,,,,,,,,,,,j,17,B,A,13,0,Incorrect!,0.4794880000408739,315.1286042999709,None,315.1286042999709,None,315.6785350999562,None,,,,,52,001,2023-05-16_09h56.22.415,uncolored_sorted,2021.2.3,60.00639669566692,
C:\Users\subject\Desktop\SVRT Experiments\SVRT Experiment 3\svrt_images\generated_images\results_problem_17,,C:\Users\subject\Desktop\SVRT Experiments\SVRT Experiment 3\svrt_images\generated_images\results_problem_17\sample_0_0001.png,,,,,,,,,,,,,,,,,,,,,,0,1,1,1,0,31,31,31,,,,,,,,,,,,,,f,17,A,B,13,0,Incorrect!,0.6302685999544337,316.9617883999599,None,316.9617883999599,None,317.64509329997236,None,,,,,52,001,2023-05-16_09h56.22.415,uncolored_sorted,2021.2.3,60.00639669566692,
C:\Users\subject\Desktop\SVRT Experiments\SVRT Experiment 3\svrt_images\generated_images\results_problem_17,,C:\Users\subject\Desktop\SVRT Experiments\SVRT Experiment 3\svrt_images\generated_images\results_problem_17\sample_0_0008.png,,,,,,,,,,,,,,,,,,,,,,0,1,1,1,0,32,32,32,,,,,,,,,,,,,,j,17,B,B,13,1,Correct!,0.42306480003753677,318.9450283999904,None,318.9450283999904,None,319.44498609995935,None,,,,,52,001,2023-05-16_09h56.22.415,uncolored_sorted,2021.2.3,60.00639669566692,
C:\Users\subject\Desktop\SVRT Experiments\SVRT Experiment 3\svrt_images\generated_images\results_problem_17,,C:\Users\subject\Desktop\SVRT Experiments\SVRT Experiment 3\svrt_images\generated_images\results_problem_17\sample_1_0004.png,,,,,,,,,,,,,,,,,,,,,,0,1,1,1,0,33,33,33,,,,,,,,,,,,,,f,17,A,A,13,1,Correct!,0.591136299946811,320.7449130999739,None,320.7449130999739,None,321.41152859997237,None,,,,,52,001,2023-05-16_09h56.22.415,uncolored_sorted,2021.2.3,60.00639669566692,
C:\Users\subject\Desktop\SVRT Experiments\SVRT Experiment 3\svrt_images\generated_images\results_problem_17,,,,,,,,,,,,,,,,,,,,,,,,0,1,1,1,,,,,,,,,,,,,,,,,,,,,,,,,,,,,,,,322.41144559998065,322.41144559998065,space,1.9485356999794021,52,001,2023-05-16_09h56.22.415,uncolored_sorted,2021.2.3,60.00639669566692,
C:\Users\subject\Desktop\SVRT Experiments\SVRT Experiment 3\svrt_images\generated_images\results_problem_19,,,C:\Users\subject\Desktop\SVRT Experiments\SVRT Experiment 3\svrt_images\generated_images\results_problem_19\sample_1_0012.png,,,,,,,,,,,,,,,,,,,,,0,2,2,2,0,0,0,0,,,,,,,,,,,,,,f,19,A,A,13,1,Correct!,5.772573800000828,324.411363399995,None,324.411363399995,None,330.21108099998673,None,,,,,52,001,2023-05-16_09h56.22.415,uncolored_sorted,2021.2.3,60.00639669566692,
C:\Users\subject\Desktop\SVRT Experiments\SVRT Experiment 3\svrt_images\generated_images\results_problem_19,,,C:\Users\subject\Desktop\SVRT Experiments\SVRT Experiment 3\svrt_images\generated_images\results_problem_19\sample_1_0007.png,,,,,,,,,,,,,,,,,,,,,0,2,2,2,0,1,1,1,,,,,,,,,,,,,,j,19,B,A,13,0,Incorrect!,1.9318678999552503,331.24428719998104,None,331.24428719998104,None,333.1941675999551,None,,,,,52,001,2023-05-16_09h56.22.415,uncolored_sorted,2021.2.3,60.00639669566692,
C:\Users\subject\Desktop\SVRT Experiments\SVRT Experiment 3\svrt_images\generated_images\results_problem_19,,,C:\Users\subject\Desktop\SVRT Experiments\SVRT Experiment 3\svrt_images\generated_images\results_problem_19\sample_1_0010.png,,,,,,,,,,,,,,,,,,,,,0,2,2,2,0,2,2,2,,,,,,,,,,,,,,j,19,B,A,13,0,Incorrect!,0.4524408000288531,334.22744819999207,None,334.22744819999207,None,334.7108295999933,None,,,,,52,001,2023-05-16_09h56.22.415,uncolored_sorted,2021.2.3,60.00639669566692,
C:\Users\subject\Desktop\SVRT Experiments\SVRT Experiment 3\svrt_images\generated_images\results_problem_19,,,C:\Users\subject\Desktop\SVRT Experiments\SVRT Experiment 3\svrt_images\generated_images\results_problem_19\sample_1_0009.png,,,,,,,,,,,,,,,,,,,,,0,2,2,2,0,3,3,3,,,,,,,,,,,,,,f,19,A,A,13,1,Correct!,0.4882416000473313,335.7440208999906,None,335.7440208999906,None,336.26066069997614,None,,,,,52,001,2023-05-16_09h56.22.415,uncolored_sorted,2021.2.3,60.00639669566692,
C:\Users\subject\Desktop\SVRT Experiments\SVRT Experiment 3\svrt_images\generated_images\results_problem_19,,,C:\Users\subject\Desktop\SVRT Experiments\SVRT Experiment 3\svrt_images\generated_images\results_problem_19\sample_1_0015.png,,,,,,,,,,,,,,,,,,,,,0,2,2,2,0,4,4,4,,,,,,,,,,,,,,f,19,A,A,13,1,Correct!,1.3853964000009,337.3106109999935,None,337.3106109999935,None,338.7271782999742,None,,,,,52,001,2023-05-16_09h56.22.415,uncolored_sorted,2021.2.3,60.00639669566692,
C:\Users\subject\Desktop\SVRT Experiments\SVRT Experiment 3\svrt_images\generated_images\results_problem_19,,,C:\Users\subject\Desktop\SVRT Experiments\SVRT Experiment 3\svrt_images\generated_images\results_problem_19\sample_1_0004.png,,,,,,,,,,,,,,,,,,,,,0,2,2,2,0,5,5,5,,,,,,,,,,,,,,f,19,A,A,13,1,Correct!,0.6743050000513904,339.8937909999513,None,339.8937909999513,None,340.59371679998003,None,,,,,52,001,2023-05-16_09h56.22.415,uncolored_sorted,2021.2.3,60.00639669566692,
C:\Users\subject\Desktop\SVRT Experiments\SVRT Experiment 3\svrt_images\generated_images\results_problem_19,,,C:\Users\subject\Desktop\SVRT Experiments\SVRT Experiment 3\svrt_images\generated_images\results_problem_19\sample_1_0000.png,,,,,,,,,,,,,,,,,,,,,0,2,2,2,0,6,6,6,,,,,,,,,,,,,,f,19,A,A,13,1,Correct!,0.6911981999874115,342.24495319998823,None,342.24495319998823,None,342.9602613999741,None,,,,,52,001,2023-05-16_09h56.22.415,uncolored_sorted,2021.2.3,60.00639669566692,
C:\Users\subject\Desktop\SVRT Experiments\SVRT Experiment 3\svrt_images\generated_images\results_problem_19,,,C:\Users\subject\Desktop\SVRT Experiments\SVRT Experiment 3\svrt_images\generated_images\results_problem_19\sample_1_0016.png,,,,,,,,,,,,,,,,,,,,,0,2,2,2,0,7,7,7,,,,,,,,,,,,,,f,19,A,A,13,1,Correct!,0.5253766999812797,344.0268604999874,None,344.0268604999874,None,344.5768232999835,None,,,,,52,001,2023-05-16_09h56.22.415,uncolored_sorted,2021.2.3,60.00639669566692,
C:\Users\subject\Desktop\SVRT Experiments\SVRT Experiment 3\svrt_images\generated_images\results_problem_19,,,C:\Users\subject\Desktop\SVRT Experiments\SVRT Experiment 3\svrt_images\generated_images\results_problem_19\sample_0_0011.png,,,,,,,,,,,,,,,,,,,,,0,2,2,2,0,8,8,8,,,,,,,,,,,,,,f,19,A,B,13,0,Incorrect!,0.4432960000121966,345.67677069996716,None,345.67677069996716,None,346.143409399956,None,,,,,52,001,2023-05-16_09h56.22.415,uncolored_sorted,2021.2.3,60.00639669566692,
C:\Users\subject\Desktop\SVRT Experiments\SVRT Experiment 3\svrt_images\generated_images\results_problem_19,,,C:\Users\subject\Desktop\SVRT Experiments\SVRT Experiment 3\svrt_images\generated_images\results_problem_19\sample_0_0016.png,,,,,,,,,,,,,,,,,,,,,0,2,2,2,0,9,9,9,,,,,,,,,,,,,,j,19,B,B,13,1,Correct!,0.509426899952814,347.22669769998174,None,347.22669769998174,None,347.76000299997395,None,,,,,52,001,2023-05-16_09h56.22.415,uncolored_sorted,2021.2.3,60.00639669566692,
C:\Users\subject\Desktop\SVRT Experiments\SVRT Experiment 3\svrt_images\generated_images\results_problem_19,,,C:\Users\subject\Desktop\SVRT Experiments\SVRT Experiment 3\svrt_images\generated_images\results_problem_19\sample_0_0014.png,,,,,,,,,,,,,,,,,,,,,0,2,2,2,0,10,10,10,,,,,,,,,,,,,,j,19,B,B,13,1,Correct!,0.3007713999832049,348.84325749997515,None,348.84325749997515,None,349.1765778999543,None,,,,,52,001,2023-05-16_09h56.22.415,uncolored_sorted,2021.2.3,60.00639669566692,
C:\Users\subject\Desktop\SVRT Experiments\SVRT Experiment 3\svrt_images\generated_images\results_problem_19,,,C:\Users\subject\Desktop\SVRT Experiments\SVRT Experiment 3\svrt_images\generated_images\results_problem_19\sample_1_0013.png,,,,,,,,,,,,,,,,,,,,,0,2,2,2,0,11,11,11,,,,,,,,,,,,,,j,19,B,A,13,0,Incorrect!,0.3067506000516005,350.2931637999718,None,350.2931637999718,None,350.62650379998377,None,,,,,52,001,2023-05-16_09h56.22.415,uncolored_sorted,2021.2.3,60.00639669566692,
C:\Users\subject\Desktop\SVRT Experiments\SVRT Experiment 3\svrt_images\generated_images\results_problem_19,,,C:\Users\subject\Desktop\SVRT Experiments\SVRT Experiment 3\svrt_images\generated_images\results_problem_19\sample_0_0005.png,,,,,,,,,,,,,,,,,,,,,0,2,2,2,0,12,12,12,,,,,,,,,,,,,,f,19,A,B,13,0,Incorrect!,1.3696841999772005,351.72643019998213,None,351.72643019998213,None,353.12614579999354,None,,,,,52,001,2023-05-16_09h56.22.415,uncolored_sorted,2021.2.3,60.00639669566692,
C:\Users\subject\Desktop\SVRT Experiments\SVRT Experiment 3\svrt_images\generated_images\results_problem_19,,,C:\Users\subject\Desktop\SVRT Experiments\SVRT Experiment 3\svrt_images\generated_images\results_problem_19\sample_1_0006.png,,,,,,,,,,,,,,,,,,,,,0,2,2,2,0,13,13,13,,,,,,,,,,,,,,f,19,A,A,13,1,Correct!,0.38945080002304167,354.24275659996783,None,354.24275659996783,None,354.6593587999814,None,,,,,52,001,2023-05-16_09h56.22.415,uncolored_sorted,2021.2.3,60.00639669566692,
C:\Users\subject\Desktop\SVRT Experiments\SVRT Experiment 3\svrt_images\generated_images\results_problem_19,,,C:\Users\subject\Desktop\SVRT Experiments\SVRT Experiment 3\svrt_images\generated_images\results_problem_19\sample_1_0005.png,,,,,,,,,,,,,,,,,,,,,0,2,2,2,0,14,14,14,,,,,,,,,,,,,,j,19,B,A,13,0,Incorrect!,0.34328269999241456,355.7928630999522,None,355.7928630999522,None,356.1761605999782,None,,,,,52,001,2023-05-16_09h56.22.415,uncolored_sorted,2021.2.3,60.00639669566692,
C:\Users\subject\Desktop\SVRT Experiments\SVRT Experiment 3\svrt_images\generated_images\results_problem_19,,,C:\Users\subject\Desktop\SVRT Experiments\SVRT Experiment 3\svrt_images\generated_images\results_problem_19\sample_0_0000.png,,,,,,,,,,,,,,,,,,,,,0,2,2,2,0,15,15,15,,,,,,,,,,,,,,f,19,A,B,13,0,Incorrect!,1.01809799997136,357.32608889997937,None,357.32608889997937,None,358.3760343999602,None,,,,,52,001,2023-05-16_09h56.22.415,uncolored_sorted,2021.2.3,60.00639669566692,
C:\Users\subject\Desktop\SVRT Experiments\SVRT Experiment 3\svrt_images\generated_images\results_problem_19,,,C:\Users\subject\Desktop\SVRT Experiments\SVRT Experiment 3\svrt_images\generated_images\results_problem_19\sample_1_0002.png,,,,,,,,,,,,,,,,,,,,,0,2,2,2,0,16,16,16,,,,,,,,,,,,,,f,19,A,A,13,1,Correct!,0.6268729000003077,359.50929689995246,None,359.50929689995246,None,360.15925139997853,None,,,,,52,001,2023-05-16_09h56.22.415,uncolored_sorted,2021.2.3,60.00639669566692,
C:\Users\subject\Desktop\SVRT Experiments\SVRT Experiment 3\svrt_images\generated_images\results_problem_19,,,C:\Users\subject\Desktop\SVRT Experiments\SVRT Experiment 3\svrt_images\generated_images\results_problem_19\sample_0_0008.png,,,,,,,,,,,,,,,,,,,,,0,2,2,2,0,17,17,17,,,,,,,,,,,,,,j,19,B,B,13,1,Correct!,0.4589746999554336,361.3092004999635,None,361.3092004999635,None,361.7925006999867,None,,,,,52,001,2023-05-16_09h56.22.415,uncolored_sorted,2021.2.3,60.00639669566692,
C:\Users\subject\Desktop\SVRT Experiments\SVRT Experiment 3\svrt_images\generated_images\results_problem_19,,,C:\Users\subject\Desktop\SVRT Experiments\SVRT Experiment 3\svrt_images\generated_images\results_problem_19\sample_1_0003.png,,,,,,,,,,,,,,,,,,,,,0,2,2,2,0,18,18,18,,,,,,,,,,,,,,f,19,A,A,13,1,Correct!,0.3937640999793075,362.94244590000017,None,362.94244590000017,None,363.3590639999602,None,,,,,52,001,2023-05-16_09h56.22.415,uncolored_sorted,2021.2.3,60.00639669566692,
C:\Users\subject\Desktop\SVRT Experiments\SVRT Experiment 3\svrt_images\generated_images\results_problem_19,,,C:\Users\subject\Desktop\SVRT Experiments\SVRT Experiment 3\svrt_images\generated_images\results_problem_19\sample_1_0011.png,,,,,,,,,,,,,,,,,,,,,0,2,2,2,0,19,19,19,,,,,,,,,,,,,,j,19,B,A,13,0,Incorrect!,0.3932179999537766,364.55901019996963,None,364.55901019996963,None,364.9756317999563,None,,,,,52,001,2023-05-16_09h56.22.415,uncolored_sorted,2021.2.3,60.00639669566692,
C:\Users\subject\Desktop\SVRT Experiments\SVRT Experiment 3\svrt_images\generated_images\results_problem_19,,,C:\Users\subject\Desktop\SVRT Experiments\SVRT Experiment 3\svrt_images\generated_images\results_problem_19\sample_1_0001.png,,,,,,,,,,,,,,,,,,,,,0,2,2,2,0,20,20,20,,,,,,,,,,,,,,f,19,A,A,13,1,Correct!,0.7772668999969028,366.1589106999454,None,366.1589106999454,None,366.97551039996324,None,,,,,52,001,2023-05-16_09h56.22.415,uncolored_sorted,2021.2.3,60.00639669566692,
C:\Users\subject\Desktop\SVRT Experiments\SVRT Experiment 3\svrt_images\generated_images\results_problem_19,,,C:\Users\subject\Desktop\SVRT Experiments\SVRT Experiment 3\svrt_images\generated_images\results_problem_19\sample_0_0003.png,,,,,,,,,,,,,,,,,,,,,0,2,2,2,0,21,21,21,,,,,,,,,,,,,,f,19,A,B,13,0,Incorrect!,0.6335273999720812,368.1587758999667,None,368.1587758999667,None,368.825415099971,None,,,,,52,001,2023-05-16_09h56.22.415,uncolored_sorted,2021.2.3,60.00639669566692,
C:\Users\subject\Desktop\SVRT Experiments\SVRT Experiment 3\svrt_images\generated_images\results_problem_19,,,C:\Users\subject\Desktop\SVRT Experiments\SVRT Experiment 3\svrt_images\generated_images\results_problem_19\sample_0_0013.png,,,,,,,,,,,,,,,,,,,,,0,2,2,2,0,22,22,22,,,,,,,,,,,,,,f,19,A,B,13,0,Incorrect!,0.4622203999897465,370.0420158999623,None,370.0420158999623,None,370.55862779996824,None,,,,,52,001,2023-05-16_09h56.22.415,uncolored_sorted,2021.2.3,60.00639669566692,
C:\Users\subject\Desktop\SVRT Experiments\SVRT Experiment 3\svrt_images\generated_images\results_problem_19,,,C:\Users\subject\Desktop\SVRT Experiments\SVRT Experiment 3\svrt_images\generated_images\results_problem_19\sample_0_0009.png,,,,,,,,,,,,,,,,,,,,,0,2,2,2,0,23,23,23,,,,,,,,,,,,,,f,19,A,B,13,0,Incorrect!,0.45763980003539473,371.75856629997725,None,371.75856629997725,None,372.2752141999663,None,,,,,52,001,2023-05-16_09h56.22.415,uncolored_sorted,2021.2.3,60.00639669566692,
C:\Users\subject\Desktop\SVRT Experiments\SVRT Experiment 3\svrt_images\generated_images\results_problem_19,,,C:\Users\subject\Desktop\SVRT Experiments\SVRT Experiment 3\svrt_images\generated_images\results_problem_19\sample_1_0014.png,,,,,,,,,,,,,,,,,,,,,0,2,2,2,0,24,24,24,,,,,,,,,,,,,,j,19,B,A,13,0,Incorrect!,0.3562495999503881,373.4917995999567,None,373.4917995999567,None,373.9084380999557,None,,,,,52,001,2023-05-16_09h56.22.415,uncolored_sorted,2021.2.3,60.00639669566692,
C:\Users\subject\Desktop\SVRT Experiments\SVRT Experiment 3\svrt_images\generated_images\results_problem_19,,,C:\Users\subject\Desktop\SVRT Experiments\SVRT Experiment 3\svrt_images\generated_images\results_problem_19\sample_0_0002.png,,,,,,,,,,,,,,,,,,,,,0,2,2,2,0,25,25,25,,,,,,,,,,,,,,j,19,B,B,13,1,Correct!,0.3549767000367865,375.125051799987,None,375.125051799987,None,375.54169129999354,None,,,,,52,001,2023-05-16_09h56.22.415,uncolored_sorted,2021.2.3,60.00639669566692,
C:\Users\subject\Desktop\SVRT Experiments\SVRT Experiment 3\svrt_images\generated_images\results_problem_19,,,C:\Users\subject\Desktop\SVRT Experiments\SVRT Experiment 3\svrt_images\generated_images\results_problem_19\sample_0_0001.png,,,,,,,,,,,,,,,,,,,,,0,2,2,2,0,26,26,26,,,,,,,,,,,,,,f,19,A,B,13,0,Incorrect!,0.28913799999281764,376.774995499989,None,376.774995499989,None,377.10830739996163,None,,,,,52,001,2023-05-16_09h56.22.415,uncolored_sorted,2021.2.3,60.00639669566692,
C:\Users\subject\Desktop\SVRT Experiments\SVRT Experiment 3\svrt_images\generated_images\results_problem_19,,,C:\Users\subject\Desktop\SVRT Experiments\SVRT Experiment 3\svrt_images\generated_images\results_problem_19\sample_0_0012.png,,,,,,,,,,,,,,,,,,,,,0,2,2,2,0,27,27,27,,,,,,,,,,,,,,j,19,B,B,13,1,Correct!,0.6266715999809094,378.34152019995963,None,378.34152019995963,None,379.0248402999714,None,,,,,52,001,2023-05-16_09h56.22.415,uncolored_sorted,2021.2.3,60.00639669566692,
C:\Users\subject\Desktop\SVRT Experiments\SVRT Experiment 3\svrt_images\generated_images\results_problem_19,,,C:\Users\subject\Desktop\SVRT Experiments\SVRT Experiment 3\svrt_images\generated_images\results_problem_19\sample_1_0008.png,,,,,,,,,,,,,,,,,,,,,0,2,2,2,0,28,28,28,,,,,,,,,,,,,,j,19,B,A,13,0,Incorrect!,0.3880547999870032,380.30815379996784,None,380.30815379996784,None,380.72479009995004,None,,,,,52,001,2023-05-16_09h56.22.415,uncolored_sorted,2021.2.3,60.00639669566692,
C:\Users\subject\Desktop\SVRT Experiments\SVRT Experiment 3\svrt_images\generated_images\results_problem_19,,,C:\Users\subject\Desktop\SVRT Experiments\SVRT Experiment 3\svrt_images\generated_images\results_problem_19\sample_0_0007.png,,,,,,,,,,,,,,,,,,,,,0,2,2,2,0,29,29,29,,,,,,,,,,,,,,f,19,A,B,13,0,Incorrect!,0.7515271999873221,382.02469269995345,None,382.02469269995345,None,382.84124179999344,None,,,,,52,001,2023-05-16_09h56.22.415,uncolored_sorted,2021.2.3,60.00639669566692,
C:\Users\subject\Desktop\SVRT Experiments\SVRT Experiment 3\svrt_images\generated_images\results_problem_19,,,C:\Users\subject\Desktop\SVRT Experiments\SVRT Experiment 3\svrt_images\generated_images\results_problem_19\sample_0_0004.png,,,,,,,,,,,,,,,,,,,,,0,2,2,2,0,30,30,30,,,,,,,,,,,,,,f,19,A,B,13,0,Incorrect!,2.5076741999946535,384.124514599971,None,384.124514599971,None,386.6909849999938,None,,,,,52,001,2023-05-16_09h56.22.415,uncolored_sorted,2021.2.3,60.00639669566692,
C:\Users\subject\Desktop\SVRT Experiments\SVRT Experiment 3\svrt_images\generated_images\results_problem_19,,,C:\Users\subject\Desktop\SVRT Experiments\SVRT Experiment 3\svrt_images\generated_images\results_problem_19\sample_0_0006.png,,,,,,,,,,,,,,,,,,,,,0,2,2,2,0,31,31,31,,,,,,,,,,,,,,f,19,A,B,13,0,Incorrect!,0.5452753999852575,387.99093869997887,None,387.99093869997887,None,388.6075695999898,None,,,,,52,001,2023-05-16_09h56.22.415,uncolored_sorted,2021.2.3,60.00639669566692,
C:\Users\subject\Desktop\SVRT Experiments\SVRT Experiment 3\svrt_images\generated_images\results_problem_19,,,C:\Users\subject\Desktop\SVRT Experiments\SVRT Experiment 3\svrt_images\generated_images\results_problem_19\sample_0_0010.png,,,,,,,,,,,,,,,,,,,,,0,2,2,2,0,32,32,32,,,,,,,,,,,,,,j,19,B,B,13,1,Correct!,0.4047471999656409,389.9074913999648,None,389.9074913999648,None,390.39082199998666,None,,,,,52,001,2023-05-16_09h56.22.415,uncolored_sorted,2021.2.3,60.00639669566692,
C:\Users\subject\Desktop\SVRT Experiments\SVRT Experiment 3\svrt_images\generated_images\results_problem_19,,,C:\Users\subject\Desktop\SVRT Experiments\SVRT Experiment 3\svrt_images\generated_images\results_problem_19\sample_0_0015.png,,,,,,,,,,,,,,,,,,,,,0,2,2,2,0,33,33,33,,,,,,,,,,,,,,j,19,B,B,13,1,Correct!,0.33365550002781674,391.6907223999733,None,391.6907223999733,None,392.1240203999914,None,,,,,52,001,2023-05-16_09h56.22.415,uncolored_sorted,2021.2.3,60.00639669566692,
C:\Users\subject\Desktop\SVRT Experiments\SVRT Experiment 3\svrt_images\generated_images\results_problem_19,,,,,,,,,,,,,,,,,,,,,,,,0,2,2,2,,,,,,,,,,,,,,,,,,,,,,,,,,,,,,,,393.1239688999485,393.1239688999485,space,1.6681345000397414,52,001,2023-05-16_09h56.22.415,uncolored_sorted,2021.2.3,60.00639669566692,
C:\Users\subject\Desktop\SVRT Experiments\SVRT Experiment 3\svrt_images\generated_images\results_problem_6,,,,C:\Users\subject\Desktop\SVRT Experiments\SVRT Experiment 3\svrt_images\generated_images\results_problem_6\sample_1_0012.png,,,,,,,,,,,,,,,,,,,,0,3,3,3,0,0,0,0,,,,,,,,,,,,,,f,6,A,A,13,1,Correct!,2.763512199977413,394.9406941999914,None,394.9406941999914,None,397.7238911999739,None,,,,,52,001,2023-05-16_09h56.22.415,uncolored_sorted,2021.2.3,60.00639669566692,
C:\Users\subject\Desktop\SVRT Experiments\SVRT Experiment 3\svrt_images\generated_images\results_problem_6,,,,C:\Users\subject\Desktop\SVRT Experiments\SVRT Experiment 3\svrt_images\generated_images\results_problem_6\sample_1_0005.png,,,,,,,,,,,,,,,,,,,,0,3,3,3,0,1,1,1,,,,,,,,,,,,,,f,6,A,A,13,1,Correct!,0.5470138000091538,398.7572717999574,None,398.7572717999574,None,399.3238665999961,None,,,,,52,001,2023-05-16_09h56.22.415,uncolored_sorted,2021.2.3,60.00639669566692,
C:\Users\subject\Desktop\SVRT Experiments\SVRT Experiment 3\svrt_images\generated_images\results_problem_6,,,,C:\Users\subject\Desktop\SVRT Experiments\SVRT Experiment 3\svrt_images\generated_images\results_problem_6\sample_0_0005.png,,,,,,,,,,,,,,,,,,,,0,3,3,3,0,2,2,2,,,,,,,,,,,,,,f,6,A,B,13,0,Incorrect!,1.2990198999759741,400.35713689995464,None,400.35713689995464,None,401.6737603999791,None,,,,,52,001,2023-05-16_09h56.22.415,uncolored_sorted,2021.2.3,60.00639669566692,
C:\Users\subject\Desktop\SVRT Experiments\SVRT Experiment 3\svrt_images\generated_images\results_problem_6,,,,C:\Users\subject\Desktop\SVRT Experiments\SVRT Experiment 3\svrt_images\generated_images\results_problem_6\sample_0_0011.png,,,,,,,,,,,,,,,,,,,,0,3,3,3,0,3,3,3,,,,,,,,,,,,,,j,6,B,B,13,1,Correct!,1.045210300013423,402.707040499954,None,402.707040499954,None,403.7737114999909,None,,,,,52,001,2023-05-16_09h56.22.415,uncolored_sorted,2021.2.3,60.00639669566692,
C:\Users\subject\Desktop\SVRT Experiments\SVRT Experiment 3\svrt_images\generated_images\results_problem_6,,,,C:\Users\subject\Desktop\SVRT Experiments\SVRT Experiment 3\svrt_images\generated_images\results_problem_6\sample_0_0008.png,,,,,,,,,,,,,,,,,,,,0,3,3,3,0,4,4,4,,,,,,,,,,,,,,f,6,A,B,13,0,Incorrect!,0.48069429997121915,404.8236433999846,None,404.8236433999846,None,405.32359869999345,None,,,,,52,001,2023-05-16_09h56.22.415,uncolored_sorted,2021.2.3,60.00639669566692,
C:\Users\subject\Desktop\SVRT Experiments\SVRT Experiment 3\svrt_images\generated_images\results_problem_6,,,,C:\Users\subject\Desktop\SVRT Experiments\SVRT Experiment 3\svrt_images\generated_images\results_problem_6\sample_0_0014.png,,,,,,,,,,,,,,,,,,,,0,3,3,3,0,5,5,5,,,,,,,,,,,,,,j,6,B,B,13,1,Correct!,1.3630063000018708,406.37323329999344,None,406.37323329999344,None,407.7567888999474,None,,,,,52,001,2023-05-16_09h56.22.415,uncolored_sorted,2021.2.3,60.00639669566692,
C:\Users\subject\Desktop\SVRT Experiments\SVRT Experiment 3\svrt_images\generated_images\results_problem_6,,,,C:\Users\subject\Desktop\SVRT Experiments\SVRT Experiment 3\svrt_images\generated_images\results_problem_6\sample_1_0000.png,,,,,,,,,,,,,,,,,,,,0,3,3,3,0,6,6,6,,,,,,,,,,,,,,f,6,A,A,13,1,Correct!,0.4178447999875061,408.8063653999707,None,408.8063653999707,None,409.2563281999901,None,,,,,52,001,2023-05-16_09h56.22.415,uncolored_sorted,2021.2.3,60.00639669566692,
C:\Users\subject\Desktop\SVRT Experiments\SVRT Experiment 3\svrt_images\generated_images\results_problem_6,,,,C:\Users\subject\Desktop\SVRT Experiments\SVRT Experiment 3\svrt_images\generated_images\results_problem_6\sample_1_0008.png,,,,,,,,,,,,,,,,,,,,0,3,3,3,0,7,7,7,,,,,,,,,,,,,,j,6,B,A,13,0,Incorrect!,1.4769791000289842,410.3232642999501,None,410.3232642999501,None,411.82287479995284,None,,,,,52,001,2023-05-16_09h56.22.415,uncolored_sorted,2021.2.3,60.00639669566692,
C:\Users\subject\Desktop\SVRT Experiments\SVRT Experiment 3\svrt_images\generated_images\results_problem_6,,,,C:\Users\subject\Desktop\SVRT Experiments\SVRT Experiment 3\svrt_images\generated_images\results_problem_6\sample_0_0013.png,,,,,,,,,,,,,,,,,,,,0,3,3,3,0,8,8,8,,,,,,,,,,,,,,f,6,A,B,13,0,Incorrect!,0.5421623000293039,412.90615049999906,None,412.90615049999906,None,413.47277979995124,None,,,,,52,001,2023-05-16_09h56.22.415,uncolored_sorted,2021.2.3,60.00639669566692,
C:\Users\subject\Desktop\SVRT Experiments\SVRT Experiment 3\svrt_images\generated_images\results_problem_6,,,,C:\Users\subject\Desktop\SVRT Experiments\SVRT Experiment 3\svrt_images\generated_images\results_problem_6\sample_0_0016.png,,,,,,,,,,,,,,,,,,,,0,3,3,3,0,9,9,9,,,,,,,,,,,,,,j,6,B,B,13,1,Correct!,0.796223999990616,414.55605699995067,None,414.55605699995067,None,415.3726690999465,None,,,,,52,001,2023-05-16_09h56.22.415,uncolored_sorted,2021.2.3,60.00639669566692,
C:\Users\subject\Desktop\SVRT Experiments\SVRT Experiment 3\svrt_images\generated_images\results_problem_6,,,,C:\Users\subject\Desktop\SVRT Experiments\SVRT Experiment 3\svrt_images\generated_images\results_problem_6\sample_0_0012.png,,,,,,,,,,,,,,,,,,,,0,3,3,3,0,10,10,10,,,,,,,,,,,,,,f,6,A,B,13,0,Incorrect!,0.8476900000241585,416.47259709995706,None,416.47259709995706,None,417.3392144999816,None,,,,,52,001,2023-05-16_09h56.22.415,uncolored_sorted,2021.2.3,60.00639669566692,
C:\Users\subject\Desktop\SVRT Experiments\SVRT Experiment 3\svrt_images\generated_images\results_problem_6,,,,C:\Users\subject\Desktop\SVRT Experiments\SVRT Experiment 3\svrt_images\generated_images\results_problem_6\sample_1_0007.png,,,,,,,,,,,,,,,,,,,,0,3,3,3,0,11,11,11,,,,,,,,,,,,,,j,6,B,A,13,0,Incorrect!,0.6249942000140436,418.43915469996864,None,418.43915469996864,None,419.0890980999684,None,,,,,52,001,2023-05-16_09h56.22.415,uncolored_sorted,2021.2.3,60.00639669566692,
C:\Users\subject\Desktop\SVRT Experiments\SVRT Experiment 3\svrt_images\generated_images\results_problem_6,,,,C:\Users\subject\Desktop\SVRT Experiments\SVRT Experiment 3\svrt_images\generated_images\results_problem_6\sample_1_0004.png,,,,,,,,,,,,,,,,,,,,0,3,3,3,0,12,12,12,,,,,,,,,,,,,,f,6,A,A,13,1,Correct!,0.69920319999801,420.18904759996803,None,420.18904759996803,None,420.9056783999549,None,,,,,52,001,2023-05-16_09h56.22.415,uncolored_sorted,2021.2.3,60.00639669566692,
C:\Users\subject\Desktop\SVRT Experiments\SVRT Experiment 3\svrt_images\generated_images\results_problem_6,,,,C:\Users\subject\Desktop\SVRT Experiments\SVRT Experiment 3\svrt_images\generated_images\results_problem_6\sample_1_0003.png,,,,,,,,,,,,,,,,,,,,0,3,3,3,0,13,13,13,,,,,,,,,,,,,,f,6,A,A,13,1,Correct!,0.5786059999954887,422.0056125999545,None,422.0056125999545,None,422.60557489999337,None,,,,,52,001,2023-05-16_09h56.22.415,uncolored_sorted,2021.2.3,60.00639669566692,
C:\Users\subject\Desktop\SVRT Experiments\SVRT Experiment 3\svrt_images\generated_images\results_problem_6,,,,C:\Users\subject\Desktop\SVRT Experiments\SVRT Experiment 3\svrt_images\generated_images\results_problem_6\sample_1_0001.png,,,,,,,,,,,,,,,,,,,,0,3,3,3,0,14,14,14,,,,,,,,,,,,,,j,6,B,A,13,0,Incorrect!,0.3501943000010215,423.72221369994804,None,423.72221369994804,None,424.10551849997137,None,,,,,52,001,2023-05-16_09h56.22.415,uncolored_sorted,2021.2.3,60.00639669566692,
C:\Users\subject\Desktop\SVRT Experiments\SVRT Experiment 3\svrt_images\generated_images\results_problem_6,,,,C:\Users\subject\Desktop\SVRT Experiments\SVRT Experiment 3\svrt_images\generated_images\results_problem_6\sample_1_0010.png,,,,,,,,,,,,,,,,,,,,0,3,3,3,0,15,15,15,,,,,,,,,,,,,,j,6,B,A,13,0,Incorrect!,1.1695080999634229,425.2387893999694,None,425.2387893999694,None,426.455355699989,None,,,,,52,001,2023-05-16_09h56.22.415,uncolored_sorted,2021.2.3,60.00639669566692,
C:\Users\subject\Desktop\SVRT Experiments\SVRT Experiment 3\svrt_images\generated_images\results_problem_6,,,,C:\Users\subject\Desktop\SVRT Experiments\SVRT Experiment 3\svrt_images\generated_images\results_problem_6\sample_1_0006.png,,,,,,,,,,,,,,,,,,,,0,3,3,3,0,16,16,16,,,,,,,,,,,,,,j,6,B,A,13,0,Incorrect!,0.8677140999934636,427.58862339996267,None,427.58862339996267,None,428.5051995999529,None,,,,,52,001,2023-05-16_09h56.22.415,uncolored_sorted,2021.2.3,60.00639669566692,
C:\Users\subject\Desktop\SVRT Experiments\SVRT Experiment 3\svrt_images\generated_images\results_problem_6,,,,C:\Users\subject\Desktop\SVRT Experiments\SVRT Experiment 3\svrt_images\generated_images\results_problem_6\sample_1_0014.png,,,,,,,,,,,,,,,,,,,,0,3,3,3,0,17,17,17,,,,,,,,,,,,,,j,6,B,A,13,0,Incorrect!,0.6410544000100344,429.655148299993,None,429.655148299993,None,430.33850879996317,None,,,,,52,001,2023-05-16_09h56.22.415,uncolored_sorted,2021.2.3,60.00639669566692,
C:\Users\subject\Desktop\SVRT Experiments\SVRT Experiment 3\svrt_images\generated_images\results_problem_6,,,,C:\Users\subject\Desktop\SVRT Experiments\SVRT Experiment 3\svrt_images\generated_images\results_problem_6\sample_0_0001.png,,,,,,,,,,,,,,,,,,,,0,3,3,3,0,18,18,18,,,,,,,,,,,,,,f,6,A,B,13,0,Incorrect!,0.4398856000043452,431.48839699995006,None,431.48839699995006,None,431.97170840000035,None,,,,,52,001,2023-05-16_09h56.22.415,uncolored_sorted,2021.2.3,60.00639669566692,
C:\Users\subject\Desktop\SVRT Experiments\SVRT Experiment 3\svrt_images\generated_images\results_problem_6,,,,C:\Users\subject\Desktop\SVRT Experiments\SVRT Experiment 3\svrt_images\generated_images\results_problem_6\sample_1_0002.png,,,,,,,,,,,,,,,,,,,,0,3,3,3,0,19,19,19,,,,,,,,,,,,,,j,6,B,A,13,0,Incorrect!,0.45403299998724833,433.13829479995184,None,433.13829479995184,None,433.6215932999621,None,,,,,52,001,2023-05-16_09h56.22.415,uncolored_sorted,2021.2.3,60.00639669566692,
C:\Users\subject\Desktop\SVRT Experiments\SVRT Experiment 3\svrt_images\generated_images\results_problem_6,,,,C:\Users\subject\Desktop\SVRT Experiments\SVRT Experiment 3\svrt_images\generated_images\results_problem_6\sample_1_0015.png,,,,,,,,,,,,,,,,,,,,0,3,3,3,0,20,20,20,,,,,,,,,,,,,,f,6,A,A,13,1,Correct!,0.3392619000514969,434.8048675999744,None,434.8048675999744,None,435.188124599983,None,,,,,52,001,2023-05-16_09h56.22.415,uncolored_sorted,2021.2.3,60.00639669566692,
C:\Users\subject\Desktop\SVRT Experiments\SVRT Experiment 3\svrt_images\generated_images\results_problem_6,,,,C:\Users\subject\Desktop\SVRT Experiments\SVRT Experiment 3\svrt_images\generated_images\results_problem_6\sample_1_0011.png,,,,,,,,,,,,,,,,,,,,0,3,3,3,0,21,21,21,,,,,,,,,,,,,,j,6,B,A,13,0,Incorrect!,0.8048402999993414,436.3714391999529,None,436.3714391999529,None,437.221384799981,None,,,,,52,001,2023-05-16_09h56.22.415,uncolored_sorted,2021.2.3,60.00639669566692,
C:\Users\subject\Desktop\SVRT Experiments\SVRT Experiment 3\svrt_images\generated_images\results_problem_6,,,,C:\Users\subject\Desktop\SVRT Experiments\SVRT Experiment 3\svrt_images\generated_images\results_problem_6\sample_1_0013.png,,,,,,,,,,,,,,,,,,,,0,3,3,3,0,22,22,22,,,,,,,,,,,,,,f,6,A,A,13,1,Correct!,0.48373999999603257,438.4046509999898,None,438.4046509999898,None,438.954605899984,None,,,,,52,001,2023-05-16_09h56.22.415,uncolored_sorted,2021.2.3,60.00639669566692,
C:\Users\subject\Desktop\SVRT Experiments\SVRT Experiment 3\svrt_images\generated_images\results_problem_6,,,,C:\Users\subject\Desktop\SVRT Experiments\SVRT Experiment 3\svrt_images\generated_images\results_problem_6\sample_1_0016.png,,,,,,,,,,,,,,,,,,,,0,3,3,3,0,23,23,23,,,,,,,,,,,,,,j,6,B,A,13,0,Incorrect!,0.7666505000088364,440.1377101999824,None,440.1377101999824,None,440.9545006999979,None,,,,,52,001,2023-05-16_09h56.22.415,uncolored_sorted,2021.2.3,60.00639669566692,
C:\Users\subject\Desktop\SVRT Experiments\SVRT Experiment 3\svrt_images\generated_images\results_problem_6,,,,C:\Users\subject\Desktop\SVRT Experiments\SVRT Experiment 3\svrt_images\generated_images\results_problem_6\sample_0_0000.png,,,,,,,,,,,,,,,,,,,,0,3,3,3,0,24,24,24,,,,,,,,,,,,,,j,6,B,B,13,1,Correct!,0.9578130000154488,442.15442899998743,None,442.15442899998743,None,443.17104099999415,None,,,,,52,001,2023-05-16_09h56.22.415,uncolored_sorted,2021.2.3,60.00639669566692,
C:\Users\subject\Desktop\SVRT Experiments\SVRT Experiment 3\svrt_images\generated_images\results_problem_6,,,,C:\Users\subject\Desktop\SVRT Experiments\SVRT Experiment 3\svrt_images\generated_images\results_problem_6\sample_0_0004.png,,,,,,,,,,,,,,,,,,,,0,3,3,3,0,25,25,25,,,,,,,,,,,,,,j,6,B,B,13,1,Correct!,1.1726432000286877,444.3876853999682,None,444.3876853999682,None,445.60421329998644,None,,,,,52,001,2023-05-16_09h56.22.415,uncolored_sorted,2021.2.3,60.00639669566692,
C:\Users\subject\Desktop\SVRT Experiments\SVRT Experiment 3\svrt_images\generated_images\results_problem_6,,,,C:\Users\subject\Desktop\SVRT Experiments\SVRT Experiment 3\svrt_images\generated_images\results_problem_6\sample_0_0002.png,,,,,,,,,,,,,,,,,,,,0,3,3,3,0,26,26,26,,,,,,,,,,,,,,j,6,B,B,13,1,Correct!,0.5455233000102453,446.8708093999885,None,446.8708093999885,None,447.4374521999853,None,,,,,52,001,2023-05-16_09h56.22.415,uncolored_sorted,2021.2.3,60.00639669566692,
C:\Users\subject\Desktop\SVRT Experiments\SVRT Experiment 3\svrt_images\generated_images\results_problem_6,,,,C:\Users\subject\Desktop\SVRT Experiments\SVRT Experiment 3\svrt_images\generated_images\results_problem_6\sample_1_0009.png,,,,,,,,,,,,,,,,,,,,0,3,3,3,0,27,27,27,,,,,,,,,,,,,,j,6,B,A,13,0,Incorrect!,0.4088175999931991,448.68739479995565,None,448.68739479995565,None,449.15402949997224,None,,,,,52,001,2023-05-16_09h56.22.415,uncolored_sorted,2021.2.3,60.00639669566692,
C:\Users\subject\Desktop\SVRT Experiments\SVRT Experiment 3\svrt_images\generated_images\results_problem_6,,,,C:\Users\subject\Desktop\SVRT Experiments\SVRT Experiment 3\svrt_images\generated_images\results_problem_6\sample_0_0003.png,,,,,,,,,,,,,,,,,,,,0,3,3,3,0,28,28,28,,,,,,,,,,,,,,f,6,A,B,13,0,Incorrect!,0.43635340000037104,450.4039602999692,None,450.4039602999692,None,450.88729429995874,None,,,,,52,001,2023-05-16_09h56.22.415,uncolored_sorted,2021.2.3,60.00639669566692,
C:\Users\subject\Desktop\SVRT Experiments\SVRT Experiment 3\svrt_images\generated_images\results_problem_6,,,,C:\Users\subject\Desktop\SVRT Experiments\SVRT Experiment 3\svrt_images\generated_images\results_problem_6\sample_0_0010.png,,,,,,,,,,,,,,,,,,,,0,3,3,3,0,29,29,29,,,,,,,,,,,,,,f,6,A,B,13,0,Incorrect!,0.31848399998852983,452.15388609998627,None,452.15388609998627,None,452.5038195999805,None,,,,,52,001,2023-05-16_09h56.22.415,uncolored_sorted,2021.2.3,60.00639669566692,
C:\Users\subject\Desktop\SVRT Experiments\SVRT Experiment 3\svrt_images\generated_images\results_problem_6,,,,C:\Users\subject\Desktop\SVRT Experiments\SVRT Experiment 3\svrt_images\generated_images\results_problem_6\sample_0_0015.png,,,,,,,,,,,,,,,,,,,,0,3,3,3,0,30,30,30,,,,,,,,,,,,,,j,6,B,B,13,1,Correct!,0.33370999997714534,453.77042709995294,None,453.77042709995294,None,454.1870820999611,None,,,,,52,001,2023-05-16_09h56.22.415,uncolored_sorted,2021.2.3,60.00639669566692,
C:\Users\subject\Desktop\SVRT Experiments\SVRT Experiment 3\svrt_images\generated_images\results_problem_6,,,,C:\Users\subject\Desktop\SVRT Experiments\SVRT Experiment 3\svrt_images\generated_images\results_problem_6\sample_0_0007.png,,,,,,,,,,,,,,,,,,,,0,3,3,3,0,31,31,31,,,,,,,,,,,,,,j,6,B,B,13,1,Correct!,0.37799180002184585,455.4703160999925,None,455.4703160999925,None,455.886944399972,None,,,,,52,001,2023-05-16_09h56.22.415,uncolored_sorted,2021.2.3,60.00639669566692,
C:\Users\subject\Desktop\SVRT Experiments\SVRT Experiment 3\svrt_images\generated_images\results_problem_6,,,,C:\Users\subject\Desktop\SVRT Experiments\SVRT Experiment 3\svrt_images\generated_images\results_problem_6\sample_0_0006.png,,,,,,,,,,,,,,,,,,,,0,3,3,3,0,32,32,32,,,,,,,,,,,,,,j,6,B,B,13,1,Correct!,0.30946550000226125,457.1868932999787,None,457.1868932999787,None,457.57018379995134,None,,,,,52,001,2023-05-16_09h56.22.415,uncolored_sorted,2021.2.3,60.00639669566692,
C:\Users\subject\Desktop\SVRT Experiments\SVRT Experiment 3\svrt_images\generated_images\results_problem_6,,,,C:\Users\subject\Desktop\SVRT Experiments\SVRT Experiment 3\svrt_images\generated_images\results_problem_6\sample_0_0009.png,,,,,,,,,,,,,,,,,,,,0,3,3,3,0,33,33,33,,,,,,,,,,,,,,j,6,B,B,13,1,Correct!,0.5135549000115134,458.8867888999521,None,458.8867888999521,None,459.47006989998044,None,,,,,52,001,2023-05-16_09h56.22.415,uncolored_sorted,2021.2.3,60.00639669566692,
C:\Users\subject\Desktop\SVRT Experiments\SVRT Experiment 3\svrt_images\generated_images\results_problem_6,,,,,,,,,,,,,,,,,,,,,,,,0,3,3,3,,,,,,,,,,,,,,,,,,,,,,,,,,,,,,,,460.4700260999962,460.4700260999962,space,1.4263431000290439,52,001,2023-05-16_09h56.22.415,uncolored_sorted,2021.2.3,60.00639669566692,
C:\Users\subject\Desktop\SVRT Experiments\SVRT Experiment 3\svrt_images\generated_images\results_problem_14,,,,,C:\Users\subject\Desktop\SVRT Experiments\SVRT Experiment 3\svrt_images\generated_images\results_problem_14\sample_0_0016.png,,,,,,,,,,,,,,,,,,,0,4,4,4,0,0,0,0,,,,,,,,,,,,,,f,14,A,B,13,0,Incorrect!,2.087782100017648,461.9366016999702,None,461.9366016999702,None,464.05315029999474,None,,,,,52,001,2023-05-16_09h56.22.415,uncolored_sorted,2021.2.3,60.00639669566692,
C:\Users\subject\Desktop\SVRT Experiments\SVRT Experiment 3\svrt_images\generated_images\results_problem_14,,,,,C:\Users\subject\Desktop\SVRT Experiments\SVRT Experiment 3\svrt_images\generated_images\results_problem_14\sample_0_0007.png,,,,,,,,,,,,,,,,,,,0,4,4,4,0,1,1,1,,,,,,,,,,,,,,j,14,B,B,13,1,Correct!,0.6665805999655277,465.069749999966,None,465.069749999966,None,465.7530374999624,None,,,,,52,001,2023-05-16_09h56.22.415,uncolored_sorted,2021.2.3,60.00639669566692,
C:\Users\subject\Desktop\SVRT Experiments\SVRT Experiment 3\svrt_images\generated_images\results_problem_14,,,,,C:\Users\subject\Desktop\SVRT Experiments\SVRT Experiment 3\svrt_images\generated_images\results_problem_14\sample_0_0000.png,,,,,,,,,,,,,,,,,,,0,4,4,4,0,2,2,2,,,,,,,,,,,,,,j,14,B,B,13,1,Correct!,0.5984902999480255,466.7696662999806,None,466.7696662999806,None,467.3862721999758,None,,,,,52,001,2023-05-16_09h56.22.415,uncolored_sorted,2021.2.3,60.00639669566692,
C:\Users\subject\Desktop\SVRT Experiments\SVRT Experiment 3\svrt_images\generated_images\results_problem_14,,,,,C:\Users\subject\Desktop\SVRT Experiments\SVRT Experiment 3\svrt_images\generated_images\results_problem_14\sample_1_0007.png,,,,,,,,,,,,,,,,,,,0,4,4,4,0,3,3,3,,,,,,,,,,,,,,j,14,B,A,13,0,Incorrect!,0.3566759000532329,468.41956469998695,None,468.41956469998695,None,468.8028765999479,None,,,,,52,001,2023-05-16_09h56.22.415,uncolored_sorted,2021.2.3,60.00639669566692,
C:\Users\subject\Desktop\SVRT Experiments\SVRT Experiment 3\svrt_images\generated_images\results_problem_14,,,,,C:\Users\subject\Desktop\SVRT Experiments\SVRT Experiment 3\svrt_images\generated_images\results_problem_14\sample_0_0002.png,,,,,,,,,,,,,,,,,,,0,4,4,4,0,4,4,4,,,,,,,,,,,,,,f,14,A,B,13,0,Incorrect!,0.364014099992346,469.83617129997583,None,469.83617129997583,None,470.219445499999,None,,,,,52,001,2023-05-16_09h56.22.415,uncolored_sorted,2021.2.3,60.00639669566692,
C:\Users\subject\Desktop\SVRT Experiments\SVRT Experiment 3\svrt_images\generated_images\results_problem_14,,,,,C:\Users\subject\Desktop\SVRT Experiments\SVRT Experiment 3\svrt_images\generated_images\results_problem_14\sample_0_0004.png,,,,,,,,,,,,,,,,,,,0,4,4,4,0,5,5,5,,,,,,,,,,,,,,j,14,B,B,13,1,Correct!,1.0756381999817677,471.25272549997317,None,471.25272549997317,None,472.3534172999789,None,,,,,52,001,2023-05-16_09h56.22.415,uncolored_sorted,2021.2.3,60.00639669566692,
C:\Users\subject\Desktop\SVRT Experiments\SVRT Experiment 3\svrt_images\generated_images\results_problem_14,,,,,C:\Users\subject\Desktop\SVRT Experiments\SVRT Experiment 3\svrt_images\generated_images\results_problem_14\sample_1_0016.png,,,,,,,,,,,,,,,,,,,0,4,4,4,0,6,6,6,,,,,,,,,,,,,,j,14,B,A,13,0,Incorrect!,0.3497304999618791,473.4026093999855,None,473.4026093999855,None,473.76923929998884,None,,,,,52,001,2023-05-16_09h56.22.415,uncolored_sorted,2021.2.3,60.00639669566692,
C:\Users\subject\Desktop\SVRT Experiments\SVRT Experiment 3\svrt_images\generated_images\results_problem_14,,,,,C:\Users\subject\Desktop\SVRT Experiments\SVRT Experiment 3\svrt_images\generated_images\results_problem_14\sample_1_0012.png,,,,,,,,,,,,,,,,,,,0,4,4,4,0,7,7,7,,,,,,,,,,,,,,f,14,A,A,13,1,Correct!,0.4052172999945469,474.81920889997855,None,474.81920889997855,None,475.25250149995554,None,,,,,52,001,2023-05-16_09h56.22.415,uncolored_sorted,2021.2.3,60.00639669566692,
C:\Users\subject\Desktop\SVRT Experiments\SVRT Experiment 3\svrt_images\generated_images\results_problem_14,,,,,C:\Users\subject\Desktop\SVRT Experiments\SVRT Experiment 3\svrt_images\generated_images\results_problem_14\sample_1_0003.png,,,,,,,,,,,,,,,,,,,0,4,4,4,0,8,8,8,,,,,,,,,,,,,,f,14,A,A,13,1,Correct!,0.2818350000306964,476.30249849997927,None,476.30249849997927,None,476.6024201999535,None,,,,,52,001,2023-05-16_09h56.22.415,uncolored_sorted,2021.2.3,60.00639669566692,
C:\Users\subject\Desktop\SVRT Experiments\SVRT Experiment 3\svrt_images\generated_images\results_problem_14,,,,,C:\Users\subject\Desktop\SVRT Experiments\SVRT Experiment 3\svrt_images\generated_images\results_problem_14\sample_1_0013.png,,,,,,,,,,,,,,,,,,,0,4,4,4,0,9,9,9,,,,,,,,,,,,,,f,14,A,A,13,1,Correct!,0.2906947999726981,477.6856971999514,None,477.6856971999514,None,478.0023375999881,None,,,,,52,001,2023-05-16_09h56.22.415,uncolored_sorted,2021.2.3,60.00639669566692,
C:\Users\subject\Desktop\SVRT Experiments\SVRT Experiment 3\svrt_images\generated_images\results_problem_14,,,,,C:\Users\subject\Desktop\SVRT Experiments\SVRT Experiment 3\svrt_images\generated_images\results_problem_14\sample_1_0009.png,,,,,,,,,,,,,,,,,,,0,4,4,4,0,10,10,10,,,,,,,,,,,,,,f,14,A,A,13,1,Correct!,0.3628002999466844,479.08556119998684,None,479.08556119998684,None,479.46890949999215,None,,,,,52,001,2023-05-16_09h56.22.415,uncolored_sorted,2021.2.3,60.00639669566692,
C:\Users\subject\Desktop\SVRT Experiments\SVRT Experiment 3\svrt_images\generated_images\results_problem_14,,,,,C:\Users\subject\Desktop\SVRT Experiments\SVRT Experiment 3\svrt_images\generated_images\results_problem_14\sample_0_0003.png,,,,,,,,,,,,,,,,,,,0,4,4,4,0,11,11,11,,,,,,,,,,,,,,f,14,A,B,13,0,Incorrect!,0.5920588999870233,480.5522103999974,None,480.5522103999974,None,481.16881209996063,None,,,,,52,001,2023-05-16_09h56.22.415,uncolored_sorted,2021.2.3,60.00639669566692,
C:\Users\subject\Desktop\SVRT Experiments\SVRT Experiment 3\svrt_images\generated_images\results_problem_14,,,,,C:\Users\subject\Desktop\SVRT Experiments\SVRT Experiment 3\svrt_images\generated_images\results_problem_14\sample_0_0005.png,,,,,,,,,,,,,,,,,,,0,4,4,4,0,12,12,12,,,,,,,,,,,,,,j,14,B,B,13,1,Correct!,0.42840720003005117,482.25209319998976,None,482.25209319998976,None,482.70206489996053,None,,,,,52,001,2023-05-16_09h56.22.415,uncolored_sorted,2021.2.3,60.00639669566692,
C:\Users\subject\Desktop\SVRT Experiments\SVRT Experiment 3\svrt_images\generated_images\results_problem_14,,,,,C:\Users\subject\Desktop\SVRT Experiments\SVRT Experiment 3\svrt_images\generated_images\results_problem_14\sample_1_0008.png,,,,,,,,,,,,,,,,,,,0,4,4,4,0,13,13,13,,,,,,,,,,,,,,j,14,B,A,13,0,Incorrect!,0.3824029000243172,483.8019917999627,None,483.8019917999627,None,484.20197249995545,None,,,,,52,001,2023-05-16_09h56.22.415,uncolored_sorted,2021.2.3,60.00639669566692,
C:\Users\subject\Desktop\SVRT Experiments\SVRT Experiment 3\svrt_images\generated_images\results_problem_14,,,,,C:\Users\subject\Desktop\SVRT Experiments\SVRT Experiment 3\svrt_images\generated_images\results_problem_14\sample_0_0006.png,,,,,,,,,,,,,,,,,,,0,4,4,4,0,14,14,14,,,,,,,,,,,,,,f,14,A,B,13,0,Incorrect!,0.49848389998078346,485.3019182999851,None,485.3019182999851,None,485.818547999952,None,,,,,52,001,2023-05-16_09h56.22.415,uncolored_sorted,2021.2.3,60.00639669566692,
C:\Users\subject\Desktop\SVRT Experiments\SVRT Experiment 3\svrt_images\generated_images\results_problem_14,,,,,C:\Users\subject\Desktop\SVRT Experiments\SVRT Experiment 3\svrt_images\generated_images\results_problem_14\sample_1_0004.png,,,,,,,,,,,,,,,,,,,0,4,4,4,0,15,15,15,,,,,,,,,,,,,,j,14,B,A,13,0,Incorrect!,0.2798326999763958,487.07257629995,None,487.07257629995,None,487.38512149994494,None,,,,,52,001,2023-05-16_09h56.22.415,uncolored_sorted,2021.2.3,60.00639669566692,
C:\Users\subject\Desktop\SVRT Experiments\SVRT Experiment 3\svrt_images\generated_images\results_problem_14,,,,,C:\Users\subject\Desktop\SVRT Experiments\SVRT Experiment 3\svrt_images\generated_images\results_problem_14\sample_0_0008.png,,,,,,,,,,,,,,,,,,,0,4,4,4,0,16,16,16,,,,,,,,,,,,,,j,14,B,B,13,1,Correct!,2.2586226999992505,488.50173259997973,None,488.50173259997973,None,490.7849479999859,None,,,,,52,001,2023-05-16_09h56.22.415,uncolored_sorted,2021.2.3,60.00639669566692,
C:\Users\subject\Desktop\SVRT Experiments\SVRT Experiment 3\svrt_images\generated_images\results_problem_14,,,,,C:\Users\subject\Desktop\SVRT Experiments\SVRT Experiment 3\svrt_images\generated_images\results_problem_14\sample_0_0014.png,,,,,,,,,,,,,,,,,,,0,4,4,4,0,17,17,17,,,,,,,,,,,,,,j,14,B,B,13,1,Correct!,0.7133464000071399,491.9349132999778,None,491.9349132999778,None,492.68480519996956,None,,,,,52,001,2023-05-16_09h56.22.415,uncolored_sorted,2021.2.3,60.00639669566692,
C:\Users\subject\Desktop\SVRT Experiments\SVRT Experiment 3\svrt_images\generated_images\results_problem_14,,,,,C:\Users\subject\Desktop\SVRT Experiments\SVRT Experiment 3\svrt_images\generated_images\results_problem_14\sample_1_0015.png,,,,,,,,,,,,,,,,,,,0,4,4,4,0,18,18,18,,,,,,,,,,,,,,j,14,B,A,13,0,Incorrect!,1.1175871000159532,493.83477439999115,None,493.83477439999115,None,494.9847847999772,None,,,,,52,001,2023-05-16_09h56.22.415,uncolored_sorted,2021.2.3,60.00639669566692,
C:\Users\subject\Desktop\SVRT Experiments\SVRT Experiment 3\svrt_images\generated_images\results_problem_14,,,,,C:\Users\subject\Desktop\SVRT Experiments\SVRT Experiment 3\svrt_images\generated_images\results_problem_14\sample_1_0001.png,,,,,,,,,,,,,,,,,,,0,4,4,4,0,19,19,19,,,,,,,,,,,,,,f,14,A,A,13,1,Correct!,0.49778029997833073,496.1346439999761,None,496.1346439999761,None,496.6512793999864,None,,,,,52,001,2023-05-16_09h56.22.415,uncolored_sorted,2021.2.3,60.00639669566692,
C:\Users\subject\Desktop\SVRT Experiments\SVRT Experiment 3\svrt_images\generated_images\results_problem_14,,,,,C:\Users\subject\Desktop\SVRT Experiments\SVRT Experiment 3\svrt_images\generated_images\results_problem_14\sample_1_0005.png,,,,,,,,,,,,,,,,,,,0,4,4,4,0,20,20,20,,,,,,,,,,,,,,f,14,A,A,13,1,Correct!,0.31854499998735264,497.81787129997974,None,497.81787129997974,None,498.1678393999464,None,,,,,52,001,2023-05-16_09h56.22.415,uncolored_sorted,2021.2.3,60.00639669566692,
C:\Users\subject\Desktop\SVRT Experiments\SVRT Experiment 3\svrt_images\generated_images\results_problem_14,,,,,C:\Users\subject\Desktop\SVRT Experiments\SVRT Experiment 3\svrt_images\generated_images\results_problem_14\sample_1_0011.png,,,,,,,,,,,,,,,,,,,0,4,4,4,0,21,21,21,,,,,,,,,,,,,,f,14,A,A,13,1,Correct!,0.41792149998946115,499.3344545,None,499.3344545,None,499.8010844999808,None,,,,,52,001,2023-05-16_09h56.22.415,uncolored_sorted,2021.2.3,60.00639669566692,
C:\Users\subject\Desktop\SVRT Experiments\SVRT Experiment 3\svrt_images\generated_images\results_problem_14,,,,,C:\Users\subject\Desktop\SVRT Experiments\SVRT Experiment 3\svrt_images\generated_images\results_problem_14\sample_0_0013.png,,,,,,,,,,,,,,,,,,,0,4,4,4,0,22,22,22,,,,,,,,,,,,,,f,14,A,B,13,0,Incorrect!,0.5122126000351273,500.98418239998864,None,500.98418239998864,None,501.55099379998865,None,,,,,52,001,2023-05-16_09h56.22.415,uncolored_sorted,2021.2.3,60.00639669566692,
C:\Users\subject\Desktop\SVRT Experiments\SVRT Experiment 3\svrt_images\generated_images\results_problem_14,,,,,C:\Users\subject\Desktop\SVRT Experiments\SVRT Experiment 3\svrt_images\generated_images\results_problem_14\sample_1_0006.png,,,,,,,,,,,,,,,,,,,0,4,4,4,0,23,23,23,,,,,,,,,,,,,,j,14,B,A,13,0,Incorrect!,0.28143510001245886,502.75091889995383,None,502.75091889995383,None,503.06756339996355,None,,,,,52,001,2023-05-16_09h56.22.415,uncolored_sorted,2021.2.3,60.00639669566692,
C:\Users\subject\Desktop\SVRT Experiments\SVRT Experiment 3\svrt_images\generated_images\results_problem_14,,,,,C:\Users\subject\Desktop\SVRT Experiments\SVRT Experiment 3\svrt_images\generated_images\results_problem_14\sample_1_0002.png,,,,,,,,,,,,,,,,,,,0,4,4,4,0,24,24,24,,,,,,,,,,,,,,j,14,B,A,13,0,Incorrect!,0.26896779995877296,504.2674874999793,None,504.2674874999793,None,504.5841732999543,None,,,,,52,001,2023-05-16_09h56.22.415,uncolored_sorted,2021.2.3,60.00639669566692,
C:\Users\subject\Desktop\SVRT Experiments\SVRT Experiment 3\svrt_images\generated_images\results_problem_14,,,,,C:\Users\subject\Desktop\SVRT Experiments\SVRT Experiment 3\svrt_images\generated_images\results_problem_14\sample_1_0014.png,,,,,,,,,,,,,,,,,,,0,4,4,4,0,25,25,25,,,,,,,,,,,,,,f,14,A,A,13,1,Correct!,0.2716229999787174,505.8007423999952,None,505.8007423999952,None,506.1173815999646,None,,,,,52,001,2023-05-16_09h56.22.415,uncolored_sorted,2021.2.3,60.00639669566692,
C:\Users\subject\Desktop\SVRT Experiments\SVRT Experiment 3\svrt_images\generated_images\results_problem_14,,,,,C:\Users\subject\Desktop\SVRT Experiments\SVRT Experiment 3\svrt_images\generated_images\results_problem_14\sample_0_0011.png,,,,,,,,,,,,,,,,,,,0,4,4,4,0,26,26,26,,,,,,,,,,,,,,f,14,A,B,13,0,Incorrect!,0.5457045999937691,507.35065269999905,None,507.35065269999905,None,507.933940399962,None,,,,,52,001,2023-05-16_09h56.22.415,uncolored_sorted,2021.2.3,60.00639669566692,
C:\Users\subject\Desktop\SVRT Experiments\SVRT Experiment 3\svrt_images\generated_images\results_problem_14,,,,,C:\Users\subject\Desktop\SVRT Experiments\SVRT Experiment 3\svrt_images\generated_images\results_problem_14\sample_0_0009.png,,,,,,,,,,,,,,,,,,,0,4,4,4,0,27,27,27,,,,,,,,,,,,,,j,14,B,B,13,1,Correct!,0.36051780002890155,509.183902699966,None,509.183902699966,None,509.60051249997923,None,,,,,52,001,2023-05-16_09h56.22.415,uncolored_sorted,2021.2.3,60.00639669566692,
C:\Users\subject\Desktop\SVRT Experiments\SVRT Experiment 3\svrt_images\generated_images\results_problem_14,,,,,C:\Users\subject\Desktop\SVRT Experiments\SVRT Experiment 3\svrt_images\generated_images\results_problem_14\sample_1_0000.png,,,,,,,,,,,,,,,,,,,0,4,4,4,0,28,28,28,,,,,,,,,,,,,,j,14,B,A,13,0,Incorrect!,0.34195519995409995,510.85044979996746,None,510.85044979996746,None,511.26707969995914,None,,,,,52,001,2023-05-16_09h56.22.415,uncolored_sorted,2021.2.3,60.00639669566692,
C:\Users\subject\Desktop\SVRT Experiments\SVRT Experiment 3\svrt_images\generated_images\results_problem_14,,,,,C:\Users\subject\Desktop\SVRT Experiments\SVRT Experiment 3\svrt_images\generated_images\results_problem_14\sample_0_0001.png,,,,,,,,,,,,,,,,,,,0,4,4,4,0,29,29,29,,,,,,,,,,,,,,j,14,B,B,13,1,Correct!,0.33957390004070476,512.5168296999764,None,512.5168296999764,None,512.9336570999585,None,,,,,52,001,2023-05-16_09h56.22.415,uncolored_sorted,2021.2.3,60.00639669566692,
C:\Users\subject\Desktop\SVRT Experiments\SVRT Experiment 3\svrt_images\generated_images\results_problem_14,,,,,C:\Users\subject\Desktop\SVRT Experiments\SVRT Experiment 3\svrt_images\generated_images\results_problem_14\sample_0_0010.png,,,,,,,,,,,,,,,,,,,0,4,4,4,0,30,30,30,,,,,,,,,,,,,,j,14,B,B,13,1,Correct!,0.4481515000225045,514.2002501999959,None,514.2002501999959,None,514.6835417999537,None,,,,,52,001,2023-05-16_09h56.22.415,uncolored_sorted,2021.2.3,60.00639669566692,
C:\Users\subject\Desktop\SVRT Experiments\SVRT Experiment 3\svrt_images\generated_images\results_problem_14,,,,,C:\Users\subject\Desktop\SVRT Experiments\SVRT Experiment 3\svrt_images\generated_images\results_problem_14\sample_1_0010.png,,,,,,,,,,,,,,,,,,,0,4,4,4,0,31,31,31,,,,,,,,,,,,,,j,14,B,A,13,0,Incorrect!,0.26548549998551607,515.9668090999476,None,515.9668090999476,None,516.2501114999759,None,,,,,52,001,2023-05-16_09h56.22.415,uncolored_sorted,2021.2.3,60.00639669566692,
C:\Users\subject\Desktop\SVRT Experiments\SVRT Experiment 3\svrt_images\generated_images\results_problem_14,,,,,C:\Users\subject\Desktop\SVRT Experiments\SVRT Experiment 3\svrt_images\generated_images\results_problem_14\sample_0_0012.png,,,,,,,,,,,,,,,,,,,0,4,4,4,0,32,32,32,,,,,,,,,,,,,,f,14,A,B,13,0,Incorrect!,0.29908319999231026,517.5333933999646,None,517.5333933999646,None,517.8833669999731,None,,,,,52,001,2023-05-16_09h56.22.415,uncolored_sorted,2021.2.3,60.00639669566692,
C:\Users\subject\Desktop\SVRT Experiments\SVRT Experiment 3\svrt_images\generated_images\results_problem_14,,,,,C:\Users\subject\Desktop\SVRT Experiments\SVRT Experiment 3\svrt_images\generated_images\results_problem_14\sample_0_0015.png,,,,,,,,,,,,,,,,,,,0,4,4,4,0,33,33,33,,,,,,,,,,,,,,j,14,B,B,13,1,Correct!,0.2811566999880597,519.1832855999819,None,519.1832855999819,None,519.5332687999471,None,,,,,52,001,2023-05-16_09h56.22.415,uncolored_sorted,2021.2.3,60.00639669566692,
C:\Users\subject\Desktop\SVRT Experiments\SVRT Experiment 3\svrt_images\generated_images\results_problem_14,,,,,,,,,,,,,,,,,,,,,,,,0,4,4,4,,,,,,,,,,,,,,,,,,,,,,,,,,,,,,,,520.5332080999506,520.5332080999506,space,1.1870430000126362,52,001,2023-05-16_09h56.22.415,uncolored_sorted,2021.2.3,60.00639669566692,
C:\Users\subject\Desktop\SVRT Experiments\SVRT Experiment 3\svrt_images\generated_images\results_problem_12,,,,,,C:\Users\subject\Desktop\SVRT Experiments\SVRT Experiment 3\svrt_images\generated_images\results_problem_12\sample_1_0014.png,,,,,,,,,,,,,,,,,,0,5,5,5,0,0,0,0,,,,,,,,,,,,,,j,12,B,A,13,0,Incorrect!,1.77868769998895,522.1337390999543,None,522.1337390999543,None,523.93312219996,None,,,,,52,001,2023-05-16_09h56.22.415,uncolored_sorted,2021.2.3,60.00639669566692,
C:\Users\subject\Desktop\SVRT Experiments\SVRT Experiment 3\svrt_images\generated_images\results_problem_12,,,,,,C:\Users\subject\Desktop\SVRT Experiments\SVRT Experiment 3\svrt_images\generated_images\results_problem_12\sample_0_0006.png,,,,,,,,,,,,,,,,,,0,5,5,5,0,1,1,1,,,,,,,,,,,,,,f,12,A,B,13,0,Incorrect!,0.4489371000090614,524.9835077999742,None,524.9835077999742,None,525.4501105999807,None,,,,,52,001,2023-05-16_09h56.22.415,uncolored_sorted,2021.2.3,60.00639669566692,
C:\Users\subject\Desktop\SVRT Experiments\SVRT Experiment 3\svrt_images\generated_images\results_problem_12,,,,,,C:\Users\subject\Desktop\SVRT Experiments\SVRT Experiment 3\svrt_images\generated_images\results_problem_12\sample_0_0000.png,,,,,,,,,,,,,,,,,,0,5,5,5,0,2,2,2,,,,,,,,,,,,,,j,12,B,B,13,1,Correct!,0.821668500022497,526.4667532999883,None,526.4667532999883,None,527.3166334999842,None,,,,,52,001,2023-05-16_09h56.22.415,uncolored_sorted,2021.2.3,60.00639669566692,
C:\Users\subject\Desktop\SVRT Experiments\SVRT Experiment 3\svrt_images\generated_images\results_problem_12,,,,,,C:\Users\subject\Desktop\SVRT Experiments\SVRT Experiment 3\svrt_images\generated_images\results_problem_12\sample_0_0008.png,,,,,,,,,,,,,,,,,,0,5,5,5,0,3,3,3,,,,,,,,,,,,,,j,12,B,B,13,1,Correct!,1.1298964999732561,528.3665715999668,None,528.3665715999668,None,529.5164470999734,None,,,,,52,001,2023-05-16_09h56.22.415,uncolored_sorted,2021.2.3,60.00639669566692,
C:\Users\subject\Desktop\SVRT Experiments\SVRT Experiment 3\svrt_images\generated_images\results_problem_12,,,,,,C:\Users\subject\Desktop\SVRT Experiments\SVRT Experiment 3\svrt_images\generated_images\results_problem_12\sample_0_0016.png,,,,,,,,,,,,,,,,,,0,5,5,5,0,4,4,4,,,,,,,,,,,,,,f,12,A,B,13,0,Incorrect!,0.3059277000138536,530.5663921999512,None,530.5663921999512,None,530.899711999984,None,,,,,52,001,2023-05-16_09h56.22.415,uncolored_sorted,2021.2.3,60.00639669566692,
C:\Users\subject\Desktop\SVRT Experiments\SVRT Experiment 3\svrt_images\generated_images\results_problem_12,,,,,,C:\Users\subject\Desktop\SVRT Experiments\SVRT Experiment 3\svrt_images\generated_images\results_problem_12\sample_1_0016.png,,,,,,,,,,,,,,,,,,0,5,5,5,0,5,5,5,,,,,,,,,,,,,,j,12,B,A,13,0,Incorrect!,0.31415210000704974,531.9663346000016,None,531.9663346000016,None,532.2995825999533,None,,,,,52,001,2023-05-16_09h56.22.415,uncolored_sorted,2021.2.3,60.00639669566692,
C:\Users\subject\Desktop\SVRT Experiments\SVRT Experiment 3\svrt_images\generated_images\results_problem_12,,,,,,C:\Users\subject\Desktop\SVRT Experiments\SVRT Experiment 3\svrt_images\generated_images\results_problem_12\sample_0_0014.png,,,,,,,,,,,,,,,,,,0,5,5,5,0,6,6,6,,,,,,,,,,,,,,f,12,A,B,13,0,Incorrect!,0.8342959000146948,533.3661840999848,None,533.3661840999848,None,534.2326529999846,None,,,,,52,001,2023-05-16_09h56.22.415,uncolored_sorted,2021.2.3,60.00639669566692,
C:\Users\subject\Desktop\SVRT Experiments\SVRT Experiment 3\svrt_images\generated_images\results_problem_12,,,,,,C:\Users\subject\Desktop\SVRT Experiments\SVRT Experiment 3\svrt_images\generated_images\results_problem_12\sample_0_0007.png,,,,,,,,,,,,,,,,,,0,5,5,5,0,7,7,7,,,,,,,,,,,,,,f,12,A,B,13,0,Incorrect!,0.5332444999949075,535.2992566999746,None,535.2992566999746,None,535.8491657999693,None,,,,,52,001,2023-05-16_09h56.22.415,uncolored_sorted,2021.2.3,60.00639669566692,
C:\Users\subject\Desktop\SVRT Experiments\SVRT Experiment 3\svrt_images\generated_images\results_problem_12,,,,,,C:\Users\subject\Desktop\SVRT Experiments\SVRT Experiment 3\svrt_images\generated_images\results_problem_12\sample_0_0012.png,,,,,,,,,,,,,,,,,,0,5,5,5,0,8,8,8,,,,,,,,,,,,,,j,12,B,B,13,1,Correct!,0.5159224000526592,536.9324149999884,None,536.9324149999884,None,537.4655593999778,None,,,,,52,001,2023-05-16_09h56.22.415,uncolored_sorted,2021.2.3,60.00639669566692,
C:\Users\subject\Desktop\SVRT Experiments\SVRT Experiment 3\svrt_images\generated_images\results_problem_12,,,,,,C:\Users\subject\Desktop\SVRT Experiments\SVRT Experiment 3\svrt_images\generated_images\results_problem_12\sample_1_0007.png,,,,,,,,,,,,,,,,,,0,5,5,5,0,9,9,9,,,,,,,,,,,,,,j,12,B,A,13,0,Incorrect!,0.4681239000055939,538.5321777999634,None,538.5321777999634,None,539.0321404999704,None,,,,,52,001,2023-05-16_09h56.22.415,uncolored_sorted,2021.2.3,60.00639669566692,
C:\Users\subject\Desktop\SVRT Experiments\SVRT Experiment 3\svrt_images\generated_images\results_problem_12,,,,,,C:\Users\subject\Desktop\SVRT Experiments\SVRT Experiment 3\svrt_images\generated_images\results_problem_12\sample_0_0013.png,,,,,,,,,,,,,,,,,,0,5,5,5,0,10,10,10,,,,,,,,,,,,,,f,12,A,B,13,0,Incorrect!,0.4049997999682091,540.1154413999757,None,540.1154413999757,None,540.5487194999587,None,,,,,52,001,2023-05-16_09h56.22.415,uncolored_sorted,2021.2.3,60.00639669566692,
C:\Users\subject\Desktop\SVRT Experiments\SVRT Experiment 3\svrt_images\generated_images\results_problem_12,,,,,,C:\Users\subject\Desktop\SVRT Experiments\SVRT Experiment 3\svrt_images\generated_images\results_problem_12\sample_1_0004.png,,,,,,,,,,,,,,,,,,0,5,5,5,0,11,11,11,,,,,,,,,,,,,,j,12,B,A,13,0,Incorrect!,0.3756338999955915,541.6486639999785,None,541.6486639999785,None,542.0486851999885,None,,,,,52,001,2023-05-16_09h56.22.415,uncolored_sorted,2021.2.3,60.00639669566692,
C:\Users\subject\Desktop\SVRT Experiments\SVRT Experiment 3\svrt_images\generated_images\results_problem_12,,,,,,C:\Users\subject\Desktop\SVRT Experiments\SVRT Experiment 3\svrt_images\generated_images\results_problem_12\sample_0_0015.png,,,,,,,,,,,,,,,,,,0,5,5,5,0,12,12,12,,,,,,,,,,,,,,f,12,A,B,13,0,Incorrect!,0.619201100023929,543.1652603999828,None,543.1652603999828,None,543.8151925999555,None,,,,,52,001,2023-05-16_09h56.22.415,uncolored_sorted,2021.2.3,60.00639669566692,
C:\Users\subject\Desktop\SVRT Experiments\SVRT Experiment 3\svrt_images\generated_images\results_problem_12,,,,,,C:\Users\subject\Desktop\SVRT Experiments\SVRT Experiment 3\svrt_images\generated_images\results_problem_12\sample_0_0005.png,,,,,,,,,,,,,,,,,,0,5,5,5,0,13,13,13,,,,,,,,,,,,,,j,12,B,B,13,1,Correct!,0.7726135999546386,544.9318404999794,None,544.9318404999794,None,545.731739699957,None,,,,,52,001,2023-05-16_09h56.22.415,uncolored_sorted,2021.2.3,60.00639669566692,
C:\Users\subject\Desktop\SVRT Experiments\SVRT Experiment 3\svrt_images\generated_images\results_problem_12,,,,,,C:\Users\subject\Desktop\SVRT Experiments\SVRT Experiment 3\svrt_images\generated_images\results_problem_12\sample_0_0002.png,,,,,,,,,,,,,,,,,,0,5,5,5,0,14,14,14,,,,,,,,,,,,,,f,12,A,B,13,0,Incorrect!,0.36075490002986044,546.831680000003,None,546.831680000003,None,547.2150244999793,None,,,,,52,001,2023-05-16_09h56.22.415,uncolored_sorted,2021.2.3,60.00639669566692,
C:\Users\subject\Desktop\SVRT Experiments\SVRT Experiment 3\svrt_images\generated_images\results_problem_12,,,,,,C:\Users\subject\Desktop\SVRT Experiments\SVRT Experiment 3\svrt_images\generated_images\results_problem_12\sample_1_0015.png,,,,,,,,,,,,,,,,,,0,5,5,5,0,15,15,15,,,,,,,,,,,,,,j,12,B,A,13,0,Incorrect!,0.3961217000032775,548.3482768999529,None,548.3482768999529,None,548.7648714999668,None,,,,,52,001,2023-05-16_09h56.22.415,uncolored_sorted,2021.2.3,60.00639669566692,
C:\Users\subject\Desktop\SVRT Experiments\SVRT Experiment 3\svrt_images\generated_images\results_problem_12,,,,,,C:\Users\subject\Desktop\SVRT Experiments\SVRT Experiment 3\svrt_images\generated_images\results_problem_12\sample_1_0010.png,,,,,,,,,,,,,,,,,,0,5,5,5,0,16,16,16,,,,,,,,,,,,,,f,12,A,A,13,1,Correct!,0.5263328999863006,549.8981723999605,None,549.8981723999605,None,550.4481205999618,None,,,,,52,001,2023-05-16_09h56.22.415,uncolored_sorted,2021.2.3,60.00639669566692,
C:\Users\subject\Desktop\SVRT Experiments\SVRT Experiment 3\svrt_images\generated_images\results_problem_12,,,,,,C:\Users\subject\Desktop\SVRT Experiments\SVRT Experiment 3\svrt_images\generated_images\results_problem_12\sample_1_0003.png,,,,,,,,,,,,,,,,,,0,5,5,5,0,17,17,17,,,,,,,,,,,,,,f,12,A,A,13,1,Correct!,1.3064211999881081,551.5980946999625,None,551.5980946999625,None,552.9479502999457,None,,,,,52,001,2023-05-16_09h56.22.415,uncolored_sorted,2021.2.3,60.00639669566692,
C:\Users\subject\Desktop\SVRT Experiments\SVRT Experiment 3\svrt_images\generated_images\results_problem_12,,,,,,C:\Users\subject\Desktop\SVRT Experiments\SVRT Experiment 3\svrt_images\generated_images\results_problem_12\sample_1_0008.png,,,,,,,,,,,,,,,,,,0,5,5,5,0,18,18,18,,,,,,,,,,,,,,f,12,A,A,13,1,Correct!,0.4063497000024654,554.0980032999651,None,554.0980032999651,None,554.5479024999659,None,,,,,52,001,2023-05-16_09h56.22.415,uncolored_sorted,2021.2.3,60.00639669566692,
C:\Users\subject\Desktop\SVRT Experiments\SVRT Experiment 3\svrt_images\generated_images\results_problem_12,,,,,,C:\Users\subject\Desktop\SVRT Experiments\SVRT Experiment 3\svrt_images\generated_images\results_problem_12\sample_0_0003.png,,,,,,,,,,,,,,,,,,0,5,5,5,0,19,19,19,,,,,,,,,,,,,,f,12,A,B,13,0,Incorrect!,0.406529700034298,555.6978252999834,None,555.6978252999834,None,556.1478145999718,None,,,,,52,001,2023-05-16_09h56.22.415,uncolored_sorted,2021.2.3,60.00639669566692,
C:\Users\subject\Desktop\SVRT Experiments\SVRT Experiment 3\svrt_images\generated_images\results_problem_12,,,,,,C:\Users\subject\Desktop\SVRT Experiments\SVRT Experiment 3\svrt_images\generated_images\results_problem_12\sample_1_0005.png,,,,,,,,,,,,,,,,,,0,5,5,5,0,20,20,20,,,,,,,,,,,,,,j,12,B,A,13,0,Incorrect!,0.326112299982924,557.3144053999567,None,557.3144053999567,None,557.6644173999666,None,,,,,52,001,2023-05-16_09h56.22.415,uncolored_sorted,2021.2.3,60.00639669566692,
C:\Users\subject\Desktop\SVRT Experiments\SVRT Experiment 3\svrt_images\generated_images\results_problem_12,,,,,,C:\Users\subject\Desktop\SVRT Experiments\SVRT Experiment 3\svrt_images\generated_images\results_problem_12\sample_1_0012.png,,,,,,,,,,,,,,,,,,0,5,5,5,0,21,21,21,,,,,,,,,,,,,,f,12,A,A,13,1,Correct!,0.37528520001797006,558.881010299956,None,558.881010299956,None,559.2809883999871,None,,,,,52,001,2023-05-16_09h56.22.415,uncolored_sorted,2021.2.3,60.00639669566692,
C:\Users\subject\Desktop\SVRT Experiments\SVRT Experiment 3\svrt_images\generated_images\results_problem_12,,,,,,C:\Users\subject\Desktop\SVRT Experiments\SVRT Experiment 3\svrt_images\generated_images\results_problem_12\sample_1_0000.png,,,,,,,,,,,,,,,,,,0,5,5,5,0,22,22,22,,,,,,,,,,,,,,j,12,B,A,13,0,Incorrect!,0.263649600034114,560.4808867999818,None,560.4808867999818,None,560.7975224999827,None,,,,,52,001,2023-05-16_09h56.22.415,uncolored_sorted,2021.2.3,60.00639669566692,
C:\Users\subject\Desktop\SVRT Experiments\SVRT Experiment 3\svrt_images\generated_images\results_problem_12,,,,,,C:\Users\subject\Desktop\SVRT Experiments\SVRT Experiment 3\svrt_images\generated_images\results_problem_12\sample_0_0004.png,,,,,,,,,,,,,,,,,,0,5,5,5,0,23,23,23,,,,,,,,,,,,,,f,12,A,B,13,0,Incorrect!,0.34637459996156394,562.014127100003,None,562.014127100003,None,562.3807683999767,None,,,,,52,001,2023-05-16_09h56.22.415,uncolored_sorted,2021.2.3,60.00639669566692,
C:\Users\subject\Desktop\SVRT Experiments\SVRT Experiment 3\svrt_images\generated_images\results_problem_12,,,,,,C:\Users\subject\Desktop\SVRT Experiments\SVRT Experiment 3\svrt_images\generated_images\results_problem_12\sample_1_0011.png,,,,,,,,,,,,,,,,,,0,5,5,5,0,24,24,24,,,,,,,,,,,,,,j,12,B,A,13,0,Incorrect!,0.25114369997754693,563.5973827999551,None,563.5973827999551,None,563.9140245000017,None,,,,,52,001,2023-05-16_09h56.22.415,uncolored_sorted,2021.2.3,60.00639669566692,
C:\Users\subject\Desktop\SVRT Experiments\SVRT Experiment 3\svrt_images\generated_images\results_problem_12,,,,,,C:\Users\subject\Desktop\SVRT Experiments\SVRT Experiment 3\svrt_images\generated_images\results_problem_12\sample_0_0001.png,,,,,,,,,,,,,,,,,,0,5,5,5,0,25,25,25,,,,,,,,,,,,,,j,12,B,B,13,1,Correct!,0.25323269999353215,565.1472888999851,None,565.1472888999851,None,565.46395939996,None,,,,,52,001,2023-05-16_09h56.22.415,uncolored_sorted,2021.2.3,60.00639669566692,
C:\Users\subject\Desktop\SVRT Experiments\SVRT Experiment 3\svrt_images\generated_images\results_problem_12,,,,,,C:\Users\subject\Desktop\SVRT Experiments\SVRT Experiment 3\svrt_images\generated_images\results_problem_12\sample_1_0001.png,,,,,,,,,,,,,,,,,,0,5,5,5,0,26,26,26,,,,,,,,,,,,,,f,12,A,A,13,1,Correct!,0.5273142000078224,566.6971976999776,None,566.6971976999776,None,567.2638206999982,None,,,,,52,001,2023-05-16_09h56.22.415,uncolored_sorted,2021.2.3,60.00639669566692,
C:\Users\subject\Desktop\SVRT Experiments\SVRT Experiment 3\svrt_images\generated_images\results_problem_12,,,,,,C:\Users\subject\Desktop\SVRT Experiments\SVRT Experiment 3\svrt_images\generated_images\results_problem_12\sample_1_0013.png,,,,,,,,,,,,,,,,,,0,5,5,5,0,27,27,27,,,,,,,,,,,,,,j,12,B,A,13,0,Incorrect!,0.27873449999606237,568.513756899978,None,568.513756899978,None,568.8470774999587,None,,,,,52,001,2023-05-16_09h56.22.415,uncolored_sorted,2021.2.3,60.00639669566692,
C:\Users\subject\Desktop\SVRT Experiments\SVRT Experiment 3\svrt_images\generated_images\results_problem_12,,,,,,C:\Users\subject\Desktop\SVRT Experiments\SVRT Experiment 3\svrt_images\generated_images\results_problem_12\sample_1_0009.png,,,,,,,,,,,,,,,,,,0,5,5,5,0,28,28,28,,,,,,,,,,,,,,f,12,A,A,13,1,Correct!,0.37554380000801757,570.0970293999999,None,570.0970293999999,None,570.5136368999956,None,,,,,52,001,2023-05-16_09h56.22.415,uncolored_sorted,2021.2.3,60.00639669566692,
C:\Users\subject\Desktop\SVRT Experiments\SVRT Experiment 3\svrt_images\generated_images\results_problem_12,,,,,,C:\Users\subject\Desktop\SVRT Experiments\SVRT Experiment 3\svrt_images\generated_images\results_problem_12\sample_0_0010.png,,,,,,,,,,,,,,,,,,0,5,5,5,0,29,29,29,,,,,,,,,,,,,,j,12,B,B,13,1,Correct!,0.25952199997846037,571.7969390999642,None,571.7969390999642,None,572.0802088999772,None,,,,,52,001,2023-05-16_09h56.22.415,uncolored_sorted,2021.2.3,60.00639669566692,
C:\Users\subject\Desktop\SVRT Experiments\SVRT Experiment 3\svrt_images\generated_images\results_problem_12,,,,,,C:\Users\subject\Desktop\SVRT Experiments\SVRT Experiment 3\svrt_images\generated_images\results_problem_12\sample_0_0011.png,,,,,,,,,,,,,,,,,,0,5,5,5,0,30,30,30,,,,,,,,,,,,,,f,12,A,B,13,0,Incorrect!,0.293016700015869,573.3634620999801,None,573.3634620999801,None,573.7134542999556,None,,,,,52,001,2023-05-16_09h56.22.415,uncolored_sorted,2021.2.3,60.00639669566692,
