folder,results_problem_13,results_problem_7,results_problem_2,results_problem_17,results_problem_4,results_problem_19,results_problem_10,results_problem_11,results_problem_22,results_problem_5,results_problem_20,results_problem_12,results_problem_18,results_problem_21,results_problem_6,results_problem_8,results_problem_14,results_problem_16,results_problem_9,results_problem_1,results_problem_23,results_problem_3,results_problem_15,categories.thisRepN,categories.thisTrialN,categories.thisN,categories.thisIndex,trials.thisRepN,trials.thisTrialN,trials.thisN,trials.thisIndex,consent_text.started,consent_kb.started,consent_kb.keys,consent_kb.rt,Gender.keys,Gender.rt,Age,instructions_text.started,instructions_text.stopped,instructions_kb.keys,instructions_kb.rt,instructions_kb.started,instructions_kb.stopped,trial_kb.keys,current_problem_num,category_resp,answer,seed,accuracy,feedback,trial_kb.rt,trial_kb.started,trial_kb.stopped,trial_image.started,trial_image.stopped,feedback_text.started,feedback_text.stopped,new_problem_kb.started,new_problem_text.started,new_problem_kb.keys,new_problem_kb.rt,Participant #,session,date,expName,psychopyVersion,frameRate,
,,,,,,,,,,,,,,,,,,,,,,,,,,,,,,,,18.328518999973312,18.328518999973312,y,21.265052300004754,,,,,,,,,,,,,,,,,,,,,,,,,,,,67,001,2023-05-18_09h54.41.640,uncolored_shuffled,2021.2.3,59.99912401310403,
,,,,,,,,,,,,,,,,,,,,,,,,,,,,,,,,,,,,w,6.7467549000284635,,,,,,,,,,,,,,,,,,,,,,,,,,67,001,2023-05-18_09h54.41.640,uncolored_shuffled,2021.2.3,59.99912401310403,
,,,,,,,,,,,,,,,,,,,,,,,,,,,,,,,,,,,,,,18,55.647257999982685,None,space,10.026470899989363,55.647257999982685,None,,,,,,,,,,,,,,,,,,,67,001,2023-05-18_09h54.41.640,uncolored_shuffled,2021.2.3,59.99912401310403,
C:\Users\subject\Desktop\SVRT Experiments\SVRT Experiment 3\svrt_images\generated_images\results_problem_13,C:\Users\subject\Desktop\SVRT Experiments\SVRT Experiment 3\svrt_images\generated_images\results_problem_13\sample_0_0006.png,,,,,,,,,,,,,,,,,,,,,,,0,0,0,0,0,0,0,0,,,,,,,,,,,,,,f,13,A,B,17,0,Incorrect!,23.56045869999798,65.71331349998945,None,65.71331349998945,None,89.31190029997379,None,,,,,67,001,2023-05-18_09h54.41.640,uncolored_shuffled,2021.2.3,59.99912401310403,
C:\Users\subject\Desktop\SVRT Experiments\SVRT Experiment 3\svrt_images\generated_images\results_problem_13,C:\Users\subject\Desktop\SVRT Experiments\SVRT Experiment 3\svrt_images\generated_images\results_problem_13\sample_1_0005.png,,,,,,,,,,,,,,,,,,,,,,,0,0,0,0,0,1,1,1,,,,,,,,,,,,,,j,13,B,A,17,0,Incorrect!,4.337159599992447,90.32850519998465,None,90.32850519998465,None,94.69489559996873,None,,,,,67,001,2023-05-18_09h54.41.640,uncolored_shuffled,2021.2.3,59.99912401310403,
C:\Users\subject\Desktop\SVRT Experiments\SVRT Experiment 3\svrt_images\generated_images\results_problem_13,C:\Users\subject\Desktop\SVRT Experiments\SVRT Experiment 3\svrt_images\generated_images\results_problem_13\sample_0_0002.png,,,,,,,,,,,,,,,,,,,,,,,0,0,0,0,0,2,2,2,,,,,,,,,,,,,,f,13,A,B,17,0,Incorrect!,4.56880770000862,95.74490439996589,None,95.74490439996589,None,100.34454329998698,None,,,,,67,001,2023-05-18_09h54.41.640,uncolored_shuffled,2021.2.3,59.99912401310403,
C:\Users\subject\Desktop\SVRT Experiments\SVRT Experiment 3\svrt_images\generated_images\results_problem_13,C:\Users\subject\Desktop\SVRT Experiments\SVRT Experiment 3\svrt_images\generated_images\results_problem_13\sample_0_0000.png,,,,,,,,,,,,,,,,,,,,,,,0,0,0,0,0,3,3,3,,,,,,,,,,,,,,j,13,B,B,17,1,Correct!,3.3665969999856316,101.41115639999043,None,101.41115639999043,None,104.81048200000077,None,,,,,67,001,2023-05-18_09h54.41.640,uncolored_shuffled,2021.2.3,59.99912401310403,
C:\Users\subject\Desktop\SVRT Experiments\SVRT Experiment 3\svrt_images\generated_images\results_problem_13,C:\Users\subject\Desktop\SVRT Experiments\SVRT Experiment 3\svrt_images\generated_images\results_problem_13\sample_1_0016.png,,,,,,,,,,,,,,,,,,,,,,,0,0,0,0,0,4,4,4,,,,,,,,,,,,,,j,13,B,A,17,0,Incorrect!,2.0853943999973126,105.86044979997678,None,105.86044979997678,None,107.97695689997636,None,,,,,67,001,2023-05-18_09h54.41.640,uncolored_shuffled,2021.2.3,59.99912401310403,
C:\Users\subject\Desktop\SVRT Experiments\SVRT Experiment 3\svrt_images\generated_images\results_problem_13,C:\Users\subject\Desktop\SVRT Experiments\SVRT Experiment 3\svrt_images\generated_images\results_problem_13\sample_1_0006.png,,,,,,,,,,,,,,,,,,,,,,,0,0,0,0,0,5,5,5,,,,,,,,,,,,,,f,13,A,A,17,1,Correct!,4.214165099954698,109.04357849998632,None,109.04357849998632,None,113.27662640000926,None,,,,,67,001,2023-05-18_09h54.41.640,uncolored_shuffled,2021.2.3,59.99912401310403,
C:\Users\subject\Desktop\SVRT Experiments\SVRT Experiment 3\svrt_images\generated_images\results_problem_13,C:\Users\subject\Desktop\SVRT Experiments\SVRT Experiment 3\svrt_images\generated_images\results_problem_13\sample_1_0001.png,,,,,,,,,,,,,,,,,,,,,,,0,0,0,0,0,6,6,6,,,,,,,,,,,,,,f,13,A,A,17,1,Correct!,1.9544530999846756,114.34318369999528,None,114.34318369999528,None,116.32634869997855,None,,,,,67,001,2023-05-18_09h54.41.640,uncolored_shuffled,2021.2.3,59.99912401310403,
C:\Users\subject\Desktop\SVRT Experiments\SVRT Experiment 3\svrt_images\generated_images\results_problem_13,C:\Users\subject\Desktop\SVRT Experiments\SVRT Experiment 3\svrt_images\generated_images\results_problem_13\sample_0_0003.png,,,,,,,,,,,,,,,,,,,,,,,0,0,0,0,0,7,7,7,,,,,,,,,,,,,,f,13,A,B,17,0,Incorrect!,1.1768310999614187,117.39294769999105,None,117.39294769999105,None,118.5927720000036,None,,,,,67,001,2023-05-18_09h54.41.640,uncolored_shuffled,2021.2.3,59.99912401310403,
C:\Users\subject\Desktop\SVRT Experiments\SVRT Experiment 3\svrt_images\generated_images\results_problem_13,C:\Users\subject\Desktop\SVRT Experiments\SVRT Experiment 3\svrt_images\generated_images\results_problem_13\sample_0_0001.png,,,,,,,,,,,,,,,,,,,,,,,0,0,0,0,0,8,8,8,,,,,,,,,,,,,,j,13,B,B,17,1,Correct!,0.7978028000216,119.67604429996572,None,119.67604429996572,None,120.49266749998787,None,,,,,67,001,2023-05-18_09h54.41.640,uncolored_shuffled,2021.2.3,59.99912401310403,
C:\Users\subject\Desktop\SVRT Experiments\SVRT Experiment 3\svrt_images\generated_images\results_problem_13,C:\Users\subject\Desktop\SVRT Experiments\SVRT Experiment 3\svrt_images\generated_images\results_problem_13\sample_1_0012.png,,,,,,,,,,,,,,,,,,,,,,,0,0,0,0,0,9,9,9,,,,,,,,,,,,,,j,13,B,A,17,0,Incorrect!,0.8170306000392884,121.59279460000107,None,121.59279460000107,None,122.44272960000671,None,,,,,67,001,2023-05-18_09h54.41.640,uncolored_shuffled,2021.2.3,59.99912401310403,
C:\Users\subject\Desktop\SVRT Experiments\SVRT Experiment 3\svrt_images\generated_images\results_problem_13,C:\Users\subject\Desktop\SVRT Experiments\SVRT Experiment 3\svrt_images\generated_images\results_problem_13\sample_0_0005.png,,,,,,,,,,,,,,,,,,,,,,,0,0,0,0,0,10,10,10,,,,,,,,,,,,,,j,13,B,B,17,1,Correct!,0.530977200018242,123.54266249999637,None,123.54266249999637,None,124.09265469998354,None,,,,,67,001,2023-05-18_09h54.41.640,uncolored_shuffled,2021.2.3,59.99912401310403,
C:\Users\subject\Desktop\SVRT Experiments\SVRT Experiment 3\svrt_images\generated_images\results_problem_13,C:\Users\subject\Desktop\SVRT Experiments\SVRT Experiment 3\svrt_images\generated_images\results_problem_13\sample_0_0007.png,,,,,,,,,,,,,,,,,,,,,,,0,0,0,0,0,11,11,11,,,,,,,,,,,,,,j,13,B,B,17,1,Correct!,0.6564616999821737,125.20922389999032,None,125.20922389999032,None,125.89253559999634,None,,,,,67,001,2023-05-18_09h54.41.640,uncolored_shuffled,2021.2.3,59.99912401310403,
C:\Users\subject\Desktop\SVRT Experiments\SVRT Experiment 3\svrt_images\generated_images\results_problem_13,C:\Users\subject\Desktop\SVRT Experiments\SVRT Experiment 3\svrt_images\generated_images\results_problem_13\sample_1_0010.png,,,,,,,,,,,,,,,,,,,,,,,0,0,0,0,0,12,12,12,,,,,,,,,,,,,,f,13,A,A,17,1,Correct!,0.5532585000037216,126.99244579998776,None,126.99244579998776,None,127.57573440001579,None,,,,,67,001,2023-05-18_09h54.41.640,uncolored_shuffled,2021.2.3,59.99912401310403,
C:\Users\subject\Desktop\SVRT Experiments\SVRT Experiment 3\svrt_images\generated_images\results_problem_13,C:\Users\subject\Desktop\SVRT Experiments\SVRT Experiment 3\svrt_images\generated_images\results_problem_13\sample_0_0009.png,,,,,,,,,,,,,,,,,,,,,,,0,0,0,0,0,13,13,13,,,,,,,,,,,,,,j,13,B,B,17,1,Correct!,1.1414405000396073,128.69233930000337,None,128.69233930000337,None,129.85874090000289,None,,,,,67,001,2023-05-18_09h54.41.640,uncolored_shuffled,2021.2.3,59.99912401310403,
C:\Users\subject\Desktop\SVRT Experiments\SVRT Experiment 3\svrt_images\generated_images\results_problem_13,C:\Users\subject\Desktop\SVRT Experiments\SVRT Experiment 3\svrt_images\generated_images\results_problem_13\sample_0_0008.png,,,,,,,,,,,,,,,,,,,,,,,0,0,0,0,0,14,14,14,,,,,,,,,,,,,,j,13,B,B,17,1,Correct!,1.1302785000298172,130.9755184999667,None,130.9755184999667,None,132.12545629998203,None,,,,,67,001,2023-05-18_09h54.41.640,uncolored_shuffled,2021.2.3,59.99912401310403,
C:\Users\subject\Desktop\SVRT Experiments\SVRT Experiment 3\svrt_images\generated_images\results_problem_13,C:\Users\subject\Desktop\SVRT Experiments\SVRT Experiment 3\svrt_images\generated_images\results_problem_13\sample_1_0002.png,,,,,,,,,,,,,,,,,,,,,,,0,0,0,0,0,15,15,15,,,,,,,,,,,,,,f,13,A,A,17,1,Correct!,1.5189213000121526,133.25872360001085,None,133.25872360001085,None,134.80861659999937,None,,,,,67,001,2023-05-18_09h54.41.640,uncolored_shuffled,2021.2.3,59.99912401310403,
C:\Users\subject\Desktop\SVRT Experiments\SVRT Experiment 3\svrt_images\generated_images\results_problem_13,C:\Users\subject\Desktop\SVRT Experiments\SVRT Experiment 3\svrt_images\generated_images\results_problem_13\sample_0_0004.png,,,,,,,,,,,,,,,,,,,,,,,0,0,0,0,0,16,16,16,,,,,,,,,,,,,,j,13,B,B,17,1,Correct!,0.7246147000114433,135.92522789997747,None,135.92522789997747,None,136.67517389997374,None,,,,,67,001,2023-05-18_09h54.41.640,uncolored_shuffled,2021.2.3,59.99912401310403,
C:\Users\subject\Desktop\SVRT Experiments\SVRT Experiment 3\svrt_images\generated_images\results_problem_13,C:\Users\subject\Desktop\SVRT Experiments\SVRT Experiment 3\svrt_images\generated_images\results_problem_13\sample_1_0014.png,,,,,,,,,,,,,,,,,,,,,,,0,0,0,0,0,17,17,17,,,,,,,,,,,,,,,,,,,,,,,,,,,,137.67511020001257,137.67511020001257,space,2.5107091999961995,67,001,2023-05-18_09h54.41.640,uncolored_shuffled,2021.2.3,59.99912401310403,
C:\Users\subject\Desktop\SVRT Experiments\SVRT Experiment 3\svrt_images\generated_images\results_problem_7,C:\Users\subject\Desktop\SVRT Experiments\SVRT Experiment 3\svrt_images\generated_images\results_problem_13\sample_1_0014.png,C:\Users\subject\Desktop\SVRT Experiments\SVRT Experiment 3\svrt_images\generated_images\results_problem_7\sample_1_0013.png,,,,,,,,,,,,,,,,,,,,,,0,1,1,1,0,0,0,0,,,,,,,,,,,,,,j,7,B,A,17,0,Incorrect!,5.081356499984395,140.20829109998886,None,140.20829109998886,None,145.30798509996384,None,,,,,67,001,2023-05-18_09h54.41.640,uncolored_shuffled,2021.2.3,59.99912401310403,
C:\Users\subject\Desktop\SVRT Experiments\SVRT Experiment 3\svrt_images\generated_images\results_problem_7,C:\Users\subject\Desktop\SVRT Experiments\SVRT Experiment 3\svrt_images\generated_images\results_problem_13\sample_1_0014.png,C:\Users\subject\Desktop\SVRT Experiments\SVRT Experiment 3\svrt_images\generated_images\results_problem_7\sample_1_0004.png,,,,,,,,,,,,,,,,,,,,,,0,1,1,1,0,1,1,1,,,,,,,,,,,,,,j,7,B,A,17,0,Incorrect!,1.1092282999888994,146.3245920999907,None,146.3245920999907,None,147.4578536999761,None,,,,,67,001,2023-05-18_09h54.41.640,uncolored_shuffled,2021.2.3,59.99912401310403,
C:\Users\subject\Desktop\SVRT Experiments\SVRT Experiment 3\svrt_images\generated_images\results_problem_7,C:\Users\subject\Desktop\SVRT Experiments\SVRT Experiment 3\svrt_images\generated_images\results_problem_13\sample_1_0014.png,C:\Users\subject\Desktop\SVRT Experiments\SVRT Experiment 3\svrt_images\generated_images\results_problem_7\sample_0_0002.png,,,,,,,,,,,,,,,,,,,,,,0,1,1,1,0,2,2,2,,,,,,,,,,,,,,f,7,A,B,17,0,Incorrect!,1.9992460999637842,148.47449699998833,None,148.47449699998833,None,150.49100909999106,None,,,,,67,001,2023-05-18_09h54.41.640,uncolored_shuffled,2021.2.3,59.99912401310403,
C:\Users\subject\Desktop\SVRT Experiments\SVRT Experiment 3\svrt_images\generated_images\results_problem_7,C:\Users\subject\Desktop\SVRT Experiments\SVRT Experiment 3\svrt_images\generated_images\results_problem_13\sample_1_0014.png,C:\Users\subject\Desktop\SVRT Experiments\SVRT Experiment 3\svrt_images\generated_images\results_problem_7\sample_0_0012.png,,,,,,,,,,,,,,,,,,,,,,0,1,1,1,0,3,3,3,,,,,,,,,,,,,,f,7,A,B,17,0,Incorrect!,0.726075500017032,151.50762990000658,None,151.50762990000658,None,152.25757199997315,None,,,,,67,001,2023-05-18_09h54.41.640,uncolored_shuffled,2021.2.3,59.99912401310403,
C:\Users\subject\Desktop\SVRT Experiments\SVRT Experiment 3\svrt_images\generated_images\results_problem_7,C:\Users\subject\Desktop\SVRT Experiments\SVRT Experiment 3\svrt_images\generated_images\results_problem_13\sample_1_0014.png,C:\Users\subject\Desktop\SVRT Experiments\SVRT Experiment 3\svrt_images\generated_images\results_problem_7\sample_0_0010.png,,,,,,,,,,,,,,,,,,,,,,0,1,1,1,0,4,4,4,,,,,,,,,,,,,,f,7,A,B,17,0,Incorrect!,1.0548253000015393,153.29083229997195,None,153.29083229997195,None,154.37409589998424,None,,,,,67,001,2023-05-18_09h54.41.640,uncolored_shuffled,2021.2.3,59.99912401310403,
C:\Users\subject\Desktop\SVRT Experiments\SVRT Experiment 3\svrt_images\generated_images\results_problem_7,C:\Users\subject\Desktop\SVRT Experiments\SVRT Experiment 3\svrt_images\generated_images\results_problem_13\sample_1_0014.png,C:\Users\subject\Desktop\SVRT Experiments\SVRT Experiment 3\svrt_images\generated_images\results_problem_7\sample_0_0016.png,,,,,,,,,,,,,,,,,,,,,,0,1,1,1,0,5,5,5,,,,,,,,,,,,,,j,7,B,B,17,1,Correct!,1.0017659000004642,155.42404859996168,None,155.42404859996168,None,156.457309099962,None,,,,,67,001,2023-05-18_09h54.41.640,uncolored_shuffled,2021.2.3,59.99912401310403,
C:\Users\subject\Desktop\SVRT Experiments\SVRT Experiment 3\svrt_images\generated_images\results_problem_7,C:\Users\subject\Desktop\SVRT Experiments\SVRT Experiment 3\svrt_images\generated_images\results_problem_13\sample_1_0014.png,C:\Users\subject\Desktop\SVRT Experiments\SVRT Experiment 3\svrt_images\generated_images\results_problem_7\sample_0_0004.png,,,,,,,,,,,,,,,,,,,,,,0,1,1,1,0,6,6,6,,,,,,,,,,,,,,f,7,A,B,17,0,Incorrect!,0.822615200013388,157.507239700004,None,157.507239700004,None,158.35718429996632,None,,,,,67,001,2023-05-18_09h54.41.640,uncolored_shuffled,2021.2.3,59.99912401310403,
C:\Users\subject\Desktop\SVRT Experiments\SVRT Experiment 3\svrt_images\generated_images\results_problem_7,C:\Users\subject\Desktop\SVRT Experiments\SVRT Experiment 3\svrt_images\generated_images\results_problem_13\sample_1_0014.png,C:\Users\subject\Desktop\SVRT Experiments\SVRT Experiment 3\svrt_images\generated_images\results_problem_7\sample_1_0007.png,,,,,,,,,,,,,,,,,,,,,,0,1,1,1,0,7,7,7,,,,,,,,,,,,,,f,7,A,A,17,1,Correct!,0.7939897999749519,159.42381939996267,None,159.42381939996267,None,160.24037419998785,None,,,,,67,001,2023-05-18_09h54.41.640,uncolored_shuffled,2021.2.3,59.99912401310403,
C:\Users\subject\Desktop\SVRT Experiments\SVRT Experiment 3\svrt_images\generated_images\results_problem_7,C:\Users\subject\Desktop\SVRT Experiments\SVRT Experiment 3\svrt_images\generated_images\results_problem_13\sample_1_0014.png,C:\Users\subject\Desktop\SVRT Experiments\SVRT Experiment 3\svrt_images\generated_images\results_problem_7\sample_1_0011.png,,,,,,,,,,,,,,,,,,,,,,0,1,1,1,0,8,8,8,,,,,,,,,,,,,,j,7,B,A,17,0,Incorrect!,2.7348855000454932,161.30702060001204,None,161.30702060001204,None,164.07354820001638,None,,,,,67,001,2023-05-18_09h54.41.640,uncolored_shuffled,2021.2.3,59.99912401310403,
C:\Users\subject\Desktop\SVRT Experiments\SVRT Experiment 3\svrt_images\generated_images\results_problem_7,C:\Users\subject\Desktop\SVRT Experiments\SVRT Experiment 3\svrt_images\generated_images\results_problem_13\sample_1_0014.png,C:\Users\subject\Desktop\SVRT Experiments\SVRT Experiment 3\svrt_images\generated_images\results_problem_7\sample_0_0013.png,,,,,,,,,,,,,,,,,,,,,,0,1,1,1,0,9,9,9,,,,,,,,,,,,,,f,7,A,B,17,0,Incorrect!,0.5496897000120953,165.1401140000089,None,165.1401140000089,None,165.70675549999578,None,,,,,67,001,2023-05-18_09h54.41.640,uncolored_shuffled,2021.2.3,59.99912401310403,
C:\Users\subject\Desktop\SVRT Experiments\SVRT Experiment 3\svrt_images\generated_images\results_problem_7,C:\Users\subject\Desktop\SVRT Experiments\SVRT Experiment 3\svrt_images\generated_images\results_problem_13\sample_1_0014.png,C:\Users\subject\Desktop\SVRT Experiments\SVRT Experiment 3\svrt_images\generated_images\results_problem_7\sample_0_0007.png,,,,,,,,,,,,,,,,,,,,,,0,1,1,1,0,10,10,10,,,,,,,,,,,,,,f,7,A,B,17,0,Incorrect!,0.5486504000145942,166.7731802999624,None,166.7731802999624,None,167.33998429996427,None,,,,,67,001,2023-05-18_09h54.41.640,uncolored_shuffled,2021.2.3,59.99912401310403,
C:\Users\subject\Desktop\SVRT Experiments\SVRT Experiment 3\svrt_images\generated_images\results_problem_7,C:\Users\subject\Desktop\SVRT Experiments\SVRT Experiment 3\svrt_images\generated_images\results_problem_13\sample_1_0014.png,C:\Users\subject\Desktop\SVRT Experiments\SVRT Experiment 3\svrt_images\generated_images\results_problem_7\sample_1_0009.png,,,,,,,,,,,,,,,,,,,,,,0,1,1,1,0,11,11,11,,,,,,,,,,,,,,f,7,A,A,17,1,Correct!,0.3375988000188954,168.4402357999934,None,168.4402357999934,None,168.806557599979,None,,,,,67,001,2023-05-18_09h54.41.640,uncolored_shuffled,2021.2.3,59.99912401310403,
C:\Users\subject\Desktop\SVRT Experiments\SVRT Experiment 3\svrt_images\generated_images\results_problem_7,C:\Users\subject\Desktop\SVRT Experiments\SVRT Experiment 3\svrt_images\generated_images\results_problem_13\sample_1_0014.png,C:\Users\subject\Desktop\SVRT Experiments\SVRT Experiment 3\svrt_images\generated_images\results_problem_7\sample_0_0000.png,,,,,,,,,,,,,,,,,,,,,,0,1,1,1,0,12,12,12,,,,,,,,,,,,,,j,7,B,B,17,1,Correct!,0.7113616999704391,169.9063213999616,None,169.9063213999616,None,170.63964820001274,None,,,,,67,001,2023-05-18_09h54.41.640,uncolored_shuffled,2021.2.3,59.99912401310403,
C:\Users\subject\Desktop\SVRT Experiments\SVRT Experiment 3\svrt_images\generated_images\results_problem_7,C:\Users\subject\Desktop\SVRT Experiments\SVRT Experiment 3\svrt_images\generated_images\results_problem_13\sample_1_0014.png,C:\Users\subject\Desktop\SVRT Experiments\SVRT Experiment 3\svrt_images\generated_images\results_problem_7\sample_0_0008.png,,,,,,,,,,,,,,,,,,,,,,0,1,1,1,0,13,13,13,,,,,,,,,,,,,,j,7,B,B,17,1,Correct!,0.8294946999521926,171.7563827999984,None,171.7563827999984,None,172.60632989997976,None,,,,,67,001,2023-05-18_09h54.41.640,uncolored_shuffled,2021.2.3,59.99912401310403,
C:\Users\subject\Desktop\SVRT Experiments\SVRT Experiment 3\svrt_images\generated_images\results_problem_7,C:\Users\subject\Desktop\SVRT Experiments\SVRT Experiment 3\svrt_images\generated_images\results_problem_13\sample_1_0014.png,C:\Users\subject\Desktop\SVRT Experiments\SVRT Experiment 3\svrt_images\generated_images\results_problem_7\sample_0_0001.png,,,,,,,,,,,,,,,,,,,,,,0,1,1,1,0,14,14,14,,,,,,,,,,,,,,j,7,B,B,17,1,Correct!,0.5588185000233352,173.7229190999642,None,173.7229190999642,None,174.30623950000154,None,,,,,67,001,2023-05-18_09h54.41.640,uncolored_shuffled,2021.2.3,59.99912401310403,
C:\Users\subject\Desktop\SVRT Experiments\SVRT Experiment 3\svrt_images\generated_images\results_problem_7,C:\Users\subject\Desktop\SVRT Experiments\SVRT Experiment 3\svrt_images\generated_images\results_problem_13\sample_1_0014.png,C:\Users\subject\Desktop\SVRT Experiments\SVRT Experiment 3\svrt_images\generated_images\results_problem_7\sample_1_0008.png,,,,,,,,,,,,,,,,,,,,,,0,1,1,1,0,15,15,15,,,,,,,,,,,,,,j,7,B,A,17,0,Incorrect!,0.5232007000013255,175.4228446999914,None,175.4228446999914,None,175.9727939000004,None,,,,,67,001,2023-05-18_09h54.41.640,uncolored_shuffled,2021.2.3,59.99912401310403,
C:\Users\subject\Desktop\SVRT Experiments\SVRT Experiment 3\svrt_images\generated_images\results_problem_7,C:\Users\subject\Desktop\SVRT Experiments\SVRT Experiment 3\svrt_images\generated_images\results_problem_13\sample_1_0014.png,C:\Users\subject\Desktop\SVRT Experiments\SVRT Experiment 3\svrt_images\generated_images\results_problem_7\sample_1_0006.png,,,,,,,,,,,,,,,,,,,,,,0,1,1,1,0,16,16,16,,,,,,,,,,,,,,j,7,B,A,17,0,Incorrect!,0.4556198000209406,177.10606169997482,None,177.10606169997482,None,177.5893689999939,None,,,,,67,001,2023-05-18_09h54.41.640,uncolored_shuffled,2021.2.3,59.99912401310403,
C:\Users\subject\Desktop\SVRT Experiments\SVRT Experiment 3\svrt_images\generated_images\results_problem_7,C:\Users\subject\Desktop\SVRT Experiments\SVRT Experiment 3\svrt_images\generated_images\results_problem_13\sample_1_0014.png,C:\Users\subject\Desktop\SVRT Experiments\SVRT Experiment 3\svrt_images\generated_images\results_problem_7\sample_0_0015.png,,,,,,,,,,,,,,,,,,,,,,0,1,1,1,0,17,17,17,,,,,,,,,,,,,,j,7,B,B,17,1,Correct!,0.42326320003485307,178.72264779999387,None,178.72264779999387,None,179.17260290001286,None,,,,,67,001,2023-05-18_09h54.41.640,uncolored_shuffled,2021.2.3,59.99912401310403,
C:\Users\subject\Desktop\SVRT Experiments\SVRT Experiment 3\svrt_images\generated_images\results_problem_7,C:\Users\subject\Desktop\SVRT Experiments\SVRT Experiment 3\svrt_images\generated_images\results_problem_13\sample_1_0014.png,C:\Users\subject\Desktop\SVRT Experiments\SVRT Experiment 3\svrt_images\generated_images\results_problem_7\sample_1_0003.png,,,,,,,,,,,,,,,,,,,,,,0,1,1,1,0,18,18,18,,,,,,,,,,,,,,f,7,A,A,17,1,Correct!,0.4392983000143431,180.3225475999643,None,180.3225475999643,None,180.8058357000118,None,,,,,67,001,2023-05-18_09h54.41.640,uncolored_shuffled,2021.2.3,59.99912401310403,
C:\Users\subject\Desktop\SVRT Experiments\SVRT Experiment 3\svrt_images\generated_images\results_problem_7,C:\Users\subject\Desktop\SVRT Experiments\SVRT Experiment 3\svrt_images\generated_images\results_problem_13\sample_1_0014.png,C:\Users\subject\Desktop\SVRT Experiments\SVRT Experiment 3\svrt_images\generated_images\results_problem_7\sample_1_0000.png,,,,,,,,,,,,,,,,,,,,,,0,1,1,1,0,19,19,19,,,,,,,,,,,,,,f,7,A,A,17,1,Correct!,0.3253238999750465,181.97246799996356,None,181.97246799996356,None,182.32241329998942,None,,,,,67,001,2023-05-18_09h54.41.640,uncolored_shuffled,2021.2.3,59.99912401310403,
C:\Users\subject\Desktop\SVRT Experiments\SVRT Experiment 3\svrt_images\generated_images\results_problem_7,C:\Users\subject\Desktop\SVRT Experiments\SVRT Experiment 3\svrt_images\generated_images\results_problem_13\sample_1_0014.png,C:\Users\subject\Desktop\SVRT Experiments\SVRT Experiment 3\svrt_images\generated_images\results_problem_7\sample_1_0012.png,,,,,,,,,,,,,,,,,,,,,,0,1,1,1,0,20,20,20,,,,,,,,,,,,,,f,7,A,A,17,1,Correct!,0.7449407000094652,183.48901750001824,None,183.48901750001824,None,184.27230060001602,None,,,,,67,001,2023-05-18_09h54.41.640,uncolored_shuffled,2021.2.3,59.99912401310403,
C:\Users\subject\Desktop\SVRT Experiments\SVRT Experiment 3\svrt_images\generated_images\results_problem_7,C:\Users\subject\Desktop\SVRT Experiments\SVRT Experiment 3\svrt_images\generated_images\results_problem_13\sample_1_0014.png,C:\Users\subject\Desktop\SVRT Experiments\SVRT Experiment 3\svrt_images\generated_images\results_problem_7\sample_1_0010.png,,,,,,,,,,,,,,,,,,,,,,0,1,1,1,0,21,21,21,,,,,,,,,,,,,,j,7,B,A,17,0,Incorrect!,0.5710029999609105,185.43890319997445,None,185.43890319997445,None,186.07221040001605,None,,,,,67,001,2023-05-18_09h54.41.640,uncolored_shuffled,2021.2.3,59.99912401310403,
C:\Users\subject\Desktop\SVRT Experiments\SVRT Experiment 3\svrt_images\generated_images\results_problem_7,C:\Users\subject\Desktop\SVRT Experiments\SVRT Experiment 3\svrt_images\generated_images\results_problem_13\sample_1_0014.png,C:\Users\subject\Desktop\SVRT Experiments\SVRT Experiment 3\svrt_images\generated_images\results_problem_7\sample_1_0002.png,,,,,,,,,,,,,,,,,,,,,,0,1,1,1,0,22,22,22,,,,,,,,,,,,,,j,7,B,A,17,0,Incorrect!,0.6417585000162944,187.27212969999528,None,187.27212969999528,None,187.93873210001038,None,,,,,67,001,2023-05-18_09h54.41.640,uncolored_shuffled,2021.2.3,59.99912401310403,
C:\Users\subject\Desktop\SVRT Experiments\SVRT Experiment 3\svrt_images\generated_images\results_problem_7,C:\Users\subject\Desktop\SVRT Experiments\SVRT Experiment 3\svrt_images\generated_images\results_problem_13\sample_1_0014.png,C:\Users\subject\Desktop\SVRT Experiments\SVRT Experiment 3\svrt_images\generated_images\results_problem_7\sample_1_0001.png,,,,,,,,,,,,,,,,,,,,,,0,1,1,1,0,23,23,23,,,,,,,,,,,,,,j,7,B,A,17,0,Incorrect!,0.4237223999807611,189.12201260001166,None,189.12201260001166,None,189.58864829997765,None,,,,,67,001,2023-05-18_09h54.41.640,uncolored_shuffled,2021.2.3,59.99912401310403,
C:\Users\subject\Desktop\SVRT Experiments\SVRT Experiment 3\svrt_images\generated_images\results_problem_7,C:\Users\subject\Desktop\SVRT Experiments\SVRT Experiment 3\svrt_images\generated_images\results_problem_13\sample_1_0014.png,C:\Users\subject\Desktop\SVRT Experiments\SVRT Experiment 3\svrt_images\generated_images\results_problem_7\sample_0_0003.png,,,,,,,,,,,,,,,,,,,,,,0,1,1,1,0,24,24,24,,,,,,,,,,,,,,j,7,B,B,17,1,Correct!,0.35658919997513294,190.80528679996496,None,190.80528679996496,None,191.22188049997203,None,,,,,67,001,2023-05-18_09h54.41.640,uncolored_shuffled,2021.2.3,59.99912401310403,
C:\Users\subject\Desktop\SVRT Experiments\SVRT Experiment 3\svrt_images\generated_images\results_problem_7,C:\Users\subject\Desktop\SVRT Experiments\SVRT Experiment 3\svrt_images\generated_images\results_problem_13\sample_1_0014.png,C:\Users\subject\Desktop\SVRT Experiments\SVRT Experiment 3\svrt_images\generated_images\results_problem_7\sample_0_0014.png,,,,,,,,,,,,,,,,,,,,,,0,1,1,1,0,25,25,25,,,,,,,,,,,,,,j,7,B,B,17,1,Correct!,0.38815740001155064,192.4218048999901,None,192.4218048999901,None,192.83844469999894,None,,,,,67,001,2023-05-18_09h54.41.640,uncolored_shuffled,2021.2.3,59.99912401310403,
C:\Users\subject\Desktop\SVRT Experiments\SVRT Experiment 3\svrt_images\generated_images\results_problem_7,C:\Users\subject\Desktop\SVRT Experiments\SVRT Experiment 3\svrt_images\generated_images\results_problem_13\sample_1_0014.png,C:\Users\subject\Desktop\SVRT Experiments\SVRT Experiment 3\svrt_images\generated_images\results_problem_7\sample_0_0006.png,,,,,,,,,,,,,,,,,,,,,,0,1,1,1,0,26,26,26,,,,,,,,,,,,,,f,7,A,B,17,0,Incorrect!,0.3221764000481926,194.07170999998925,None,194.07170999998925,None,194.4383424000116,None,,,,,67,001,2023-05-18_09h54.41.640,uncolored_shuffled,2021.2.3,59.99912401310403,
C:\Users\subject\Desktop\SVRT Experiments\SVRT Experiment 3\svrt_images\generated_images\results_problem_7,C:\Users\subject\Desktop\SVRT Experiments\SVRT Experiment 3\svrt_images\generated_images\results_problem_13\sample_1_0014.png,C:\Users\subject\Desktop\SVRT Experiments\SVRT Experiment 3\svrt_images\generated_images\results_problem_7\sample_1_0005.png,,,,,,,,,,,,,,,,,,,,,,0,1,1,1,0,27,27,27,,,,,,,,,,,,,,j,7,B,A,17,0,Incorrect!,0.3215900000068359,195.68827679997776,None,195.68827679997776,None,196.05492329999106,None,,,,,67,001,2023-05-18_09h54.41.640,uncolored_shuffled,2021.2.3,59.99912401310403,
C:\Users\subject\Desktop\SVRT Experiments\SVRT Experiment 3\svrt_images\generated_images\results_problem_7,C:\Users\subject\Desktop\SVRT Experiments\SVRT Experiment 3\svrt_images\generated_images\results_problem_13\sample_1_0014.png,C:\Users\subject\Desktop\SVRT Experiments\SVRT Experiment 3\svrt_images\generated_images\results_problem_7\sample_1_0014.png,,,,,,,,,,,,,,,,,,,,,,0,1,1,1,0,28,28,28,,,,,,,,,,,,,,f,7,A,A,17,1,Correct!,0.3211058000451885,197.30483929999173,None,197.30483929999173,None,197.6548238999676,None,,,,,67,001,2023-05-18_09h54.41.640,uncolored_shuffled,2021.2.3,59.99912401310403,
C:\Users\subject\Desktop\SVRT Experiments\SVRT Experiment 3\svrt_images\generated_images\results_problem_7,C:\Users\subject\Desktop\SVRT Experiments\SVRT Experiment 3\svrt_images\generated_images\results_problem_13\sample_1_0014.png,C:\Users\subject\Desktop\SVRT Experiments\SVRT Experiment 3\svrt_images\generated_images\results_problem_7\sample_0_0005.png,,,,,,,,,,,,,,,,,,,,,,0,1,1,1,0,29,29,29,,,,,,,,,,,,,,f,7,A,B,17,0,Incorrect!,1.6971395000000484,198.90474530000938,None,198.90474530000938,None,200.6546282999916,None,,,,,67,001,2023-05-18_09h54.41.640,uncolored_shuffled,2021.2.3,59.99912401310403,
C:\Users\subject\Desktop\SVRT Experiments\SVRT Experiment 3\svrt_images\generated_images\results_problem_7,C:\Users\subject\Desktop\SVRT Experiments\SVRT Experiment 3\svrt_images\generated_images\results_problem_13\sample_1_0014.png,C:\Users\subject\Desktop\SVRT Experiments\SVRT Experiment 3\svrt_images\generated_images\results_problem_7\sample_1_0016.png,,,,,,,,,,,,,,,,,,,,,,0,1,1,1,0,30,30,30,,,,,,,,,,,,,,f,7,A,A,17,1,Correct!,0.4873306999797933,201.95454890001565,None,201.95454890001565,None,202.50452149997,None,,,,,67,001,2023-05-18_09h54.41.640,uncolored_shuffled,2021.2.3,59.99912401310403,
C:\Users\subject\Desktop\SVRT Experiments\SVRT Experiment 3\svrt_images\generated_images\results_problem_7,C:\Users\subject\Desktop\SVRT Experiments\SVRT Experiment 3\svrt_images\generated_images\results_problem_13\sample_1_0014.png,C:\Users\subject\Desktop\SVRT Experiments\SVRT Experiment 3\svrt_images\generated_images\results_problem_7\sample_0_0009.png,,,,,,,,,,,,,,,,,,,,,,0,1,1,1,0,31,31,31,,,,,,,,,,,,,,f,7,A,B,17,0,Incorrect!,0.5420428999932483,203.7877910999814,None,203.7877910999814,None,204.40441049996298,None,,,,,67,001,2023-05-18_09h54.41.640,uncolored_shuffled,2021.2.3,59.99912401310403,
C:\Users\subject\Desktop\SVRT Experiments\SVRT Experiment 3\svrt_images\generated_images\results_problem_7,C:\Users\subject\Desktop\SVRT Experiments\SVRT Experiment 3\svrt_images\generated_images\results_problem_13\sample_1_0014.png,C:\Users\subject\Desktop\SVRT Experiments\SVRT Experiment 3\svrt_images\generated_images\results_problem_7\sample_1_0015.png,,,,,,,,,,,,,,,,,,,,,,0,1,1,1,0,32,32,32,,,,,,,,,,,,,,f,7,A,A,17,1,Correct!,0.45029409998096526,205.6876682000002,None,205.6876682000002,None,206.18760699999984,None,,,,,67,001,2023-05-18_09h54.41.640,uncolored_shuffled,2021.2.3,59.99912401310403,
C:\Users\subject\Desktop\SVRT Experiments\SVRT Experiment 3\svrt_images\generated_images\results_problem_7,C:\Users\subject\Desktop\SVRT Experiments\SVRT Experiment 3\svrt_images\generated_images\results_problem_13\sample_1_0014.png,C:\Users\subject\Desktop\SVRT Experiments\SVRT Experiment 3\svrt_images\generated_images\results_problem_7\sample_0_0011.png,,,,,,,,,,,,,,,,,,,,,,0,1,1,1,0,33,33,33,,,,,,,,,,,,,,f,7,A,B,17,0,Incorrect!,0.6175561000127345,207.50422130001243,None,207.50422130001243,None,208.1875093000126,None,,,,,67,001,2023-05-18_09h54.41.640,uncolored_shuffled,2021.2.3,59.99912401310403,
C:\Users\subject\Desktop\SVRT Experiments\SVRT Experiment 3\svrt_images\generated_images\results_problem_7,C:\Users\subject\Desktop\SVRT Experiments\SVRT Experiment 3\svrt_images\generated_images\results_problem_13\sample_1_0014.png,,,,,,,,,,,,,,,,,,,,,,,0,1,1,1,0,17,17,17,,,,,,,,,,,,,,,,,,,,,,,,,,,,209.18746939999983,209.18746939999983,space,1.398414800001774,67,001,2023-05-18_09h54.41.640,uncolored_shuffled,2021.2.3,59.99912401310403,
C:\Users\subject\Desktop\SVRT Experiments\SVRT Experiment 3\svrt_images\generated_images\results_problem_2,C:\Users\subject\Desktop\SVRT Experiments\SVRT Experiment 3\svrt_images\generated_images\results_problem_13\sample_1_0014.png,,C:\Users\subject\Desktop\SVRT Experiments\SVRT Experiment 3\svrt_images\generated_images\results_problem_2\sample_0_0010.png,,,,,,,,,,,,,,,,,,,,,0,2,2,2,0,0,0,0,,,,,,,,,,,,,,j,2,B,B,17,1,Correct!,7.277286699973047,210.6207102999906,None,210.6207102999906,None,217.9202704000054,None,,,,,67,001,2023-05-18_09h54.41.640,uncolored_shuffled,2021.2.3,59.99912401310403,
C:\Users\subject\Desktop\SVRT Experiments\SVRT Experiment 3\svrt_images\generated_images\results_problem_2,C:\Users\subject\Desktop\SVRT Experiments\SVRT Experiment 3\svrt_images\generated_images\results_problem_13\sample_1_0014.png,,C:\Users\subject\Desktop\SVRT Experiments\SVRT Experiment 3\svrt_images\generated_images\results_problem_2\sample_0_0005.png,,,,,,,,,,,,,,,,,,,,,0,2,2,2,0,1,1,1,,,,,,,,,,,,,,f,2,A,B,17,0,Incorrect!,3.0243720000144094,218.95353569998406,None,218.95353569998406,None,222.003359299968,None,,,,,67,001,2023-05-18_09h54.41.640,uncolored_shuffled,2021.2.3,59.99912401310403,
C:\Users\subject\Desktop\SVRT Experiments\SVRT Experiment 3\svrt_images\generated_images\results_problem_2,C:\Users\subject\Desktop\SVRT Experiments\SVRT Experiment 3\svrt_images\generated_images\results_problem_13\sample_1_0014.png,,C:\Users\subject\Desktop\SVRT Experiments\SVRT Experiment 3\svrt_images\generated_images\results_problem_2\sample_0_0012.png,,,,,,,,,,,,,,,,,,,,,0,2,2,2,0,2,2,2,,,,,,,,,,,,,,f,2,A,B,17,0,Incorrect!,1.3413713999907486,223.03663759998744,None,223.03663759998744,None,224.40321530000074,None,,,,,67,001,2023-05-18_09h54.41.640,uncolored_shuffled,2021.2.3,59.99912401310403,
C:\Users\subject\Desktop\SVRT Experiments\SVRT Experiment 3\svrt_images\generated_images\results_problem_2,C:\Users\subject\Desktop\SVRT Experiments\SVRT Experiment 3\svrt_images\generated_images\results_problem_13\sample_1_0014.png,,C:\Users\subject\Desktop\SVRT Experiments\SVRT Experiment 3\svrt_images\generated_images\results_problem_2\sample_1_0012.png,,,,,,,,,,,,,,,,,,,,,0,2,2,2,0,3,3,3,,,,,,,,,,,,,,j,2,B,A,17,0,Incorrect!,1.0693105999962427,225.4366624999675,None,225.4366624999675,None,226.5365940000047,None,,,,,67,001,2023-05-18_09h54.41.640,uncolored_shuffled,2021.2.3,59.99912401310403,
C:\Users\subject\Desktop\SVRT Experiments\SVRT Experiment 3\svrt_images\generated_images\results_problem_2,C:\Users\subject\Desktop\SVRT Experiments\SVRT Experiment 3\svrt_images\generated_images\results_problem_13\sample_1_0014.png,,C:\Users\subject\Desktop\SVRT Experiments\SVRT Experiment 3\svrt_images\generated_images\results_problem_2\sample_0_0004.png,,,,,,,,,,,,,,,,,,,,,0,2,2,2,0,4,4,4,,,,,,,,,,,,,,j,2,B,B,17,1,Correct!,0.42435570002999157,227.56962700001895,None,227.56962700001895,None,228.0198772000149,None,,,,,67,001,2023-05-18_09h54.41.640,uncolored_shuffled,2021.2.3,59.99912401310403,
C:\Users\subject\Desktop\SVRT Experiments\SVRT Experiment 3\svrt_images\generated_images\results_problem_2,C:\Users\subject\Desktop\SVRT Experiments\SVRT Experiment 3\svrt_images\generated_images\results_problem_13\sample_1_0014.png,,C:\Users\subject\Desktop\SVRT Experiments\SVRT Experiment 3\svrt_images\generated_images\results_problem_2\sample_1_0013.png,,,,,,,,,,,,,,,,,,,,,0,2,2,2,0,5,5,5,,,,,,,,,,,,,,f,2,A,A,17,1,Correct!,0.2832848999532871,229.08650129998568,None,229.08650129998568,None,229.40313330001663,None,,,,,67,001,2023-05-18_09h54.41.640,uncolored_shuffled,2021.2.3,59.99912401310403,
C:\Users\subject\Desktop\SVRT Experiments\SVRT Experiment 3\svrt_images\generated_images\results_problem_2,C:\Users\subject\Desktop\SVRT Experiments\SVRT Experiment 3\svrt_images\generated_images\results_problem_13\sample_1_0014.png,,C:\Users\subject\Desktop\SVRT Experiments\SVRT Experiment 3\svrt_images\generated_images\results_problem_2\sample_0_0003.png,,,,,,,,,,,,,,,,,,,,,0,2,2,2,0,6,6,6,,,,,,,,,,,,,,j,2,B,B,17,1,Correct!,0.32409770000958815,230.46973670000443,None,230.46973670000443,None,230.8197155999951,None,,,,,67,001,2023-05-18_09h54.41.640,uncolored_shuffled,2021.2.3,59.99912401310403,
C:\Users\subject\Desktop\SVRT Experiments\SVRT Experiment 3\svrt_images\generated_images\results_problem_2,C:\Users\subject\Desktop\SVRT Experiments\SVRT Experiment 3\svrt_images\generated_images\results_problem_13\sample_1_0014.png,,C:\Users\subject\Desktop\SVRT Experiments\SVRT Experiment 3\svrt_images\generated_images\results_problem_2\sample_1_0007.png,,,,,,,,,,,,,,,,,,,,,0,2,2,2,0,7,7,7,,,,,,,,,,,,,,j,2,B,A,17,0,Incorrect!,0.28188979998230934,231.91999749996467,None,231.91999749996467,None,232.21965029998682,None,,,,,67,001,2023-05-18_09h54.41.640,uncolored_shuffled,2021.2.3,59.99912401310403,
C:\Users\subject\Desktop\SVRT Experiments\SVRT Experiment 3\svrt_images\generated_images\results_problem_2,C:\Users\subject\Desktop\SVRT Experiments\SVRT Experiment 3\svrt_images\generated_images\results_problem_13\sample_1_0014.png,,C:\Users\subject\Desktop\SVRT Experiments\SVRT Experiment 3\svrt_images\generated_images\results_problem_2\sample_0_0006.png,,,,,,,,,,,,,,,,,,,,,0,2,2,2,0,8,8,8,,,,,,,,,,,,,,j,2,B,B,17,1,Correct!,0.27500860003056005,233.3028992000036,None,233.3028992000036,None,233.60268680000445,None,,,,,67,001,2023-05-18_09h54.41.640,uncolored_shuffled,2021.2.3,59.99912401310403,
C:\Users\subject\Desktop\SVRT Experiments\SVRT Experiment 3\svrt_images\generated_images\results_problem_2,C:\Users\subject\Desktop\SVRT Experiments\SVRT Experiment 3\svrt_images\generated_images\results_problem_13\sample_1_0014.png,,C:\Users\subject\Desktop\SVRT Experiments\SVRT Experiment 3\svrt_images\generated_images\results_problem_2\sample_1_0003.png,,,,,,,,,,,,,,,,,,,,,0,2,2,2,0,9,9,9,,,,,,,,,,,,,,f,2,A,A,17,1,Correct!,0.31698950001737103,234.6691104999627,None,234.6691104999627,None,235.01925589999883,None,,,,,67,001,2023-05-18_09h54.41.640,uncolored_shuffled,2021.2.3,59.99912401310403,
C:\Users\subject\Desktop\SVRT Experiments\SVRT Experiment 3\svrt_images\generated_images\results_problem_2,C:\Users\subject\Desktop\SVRT Experiments\SVRT Experiment 3\svrt_images\generated_images\results_problem_13\sample_1_0014.png,,C:\Users\subject\Desktop\SVRT Experiments\SVRT Experiment 3\svrt_images\generated_images\results_problem_2\sample_1_0015.png,,,,,,,,,,,,,,,,,,,,,0,2,2,2,0,10,10,10,,,,,,,,,,,,,,f,2,A,A,17,1,Correct!,2.5793763999827206,236.10255750000942,None,236.10255750000942,None,238.7021848000004,None,,,,,67,001,2023-05-18_09h54.41.640,uncolored_shuffled,2021.2.3,59.99912401310403,
C:\Users\subject\Desktop\SVRT Experiments\SVRT Experiment 3\svrt_images\generated_images\results_problem_2,C:\Users\subject\Desktop\SVRT Experiments\SVRT Experiment 3\svrt_images\generated_images\results_problem_13\sample_1_0014.png,,C:\Users\subject\Desktop\SVRT Experiments\SVRT Experiment 3\svrt_images\generated_images\results_problem_2\sample_1_0009.png,,,,,,,,,,,,,,,,,,,,,0,2,2,2,0,11,11,11,,,,,,,,,,,,,,j,2,B,A,17,0,Incorrect!,1.439790400036145,239.80213680001907,None,239.80213680001907,None,241.26891799998702,None,,,,,67,001,2023-05-18_09h54.41.640,uncolored_shuffled,2021.2.3,59.99912401310403,
C:\Users\subject\Desktop\SVRT Experiments\SVRT Experiment 3\svrt_images\generated_images\results_problem_2,C:\Users\subject\Desktop\SVRT Experiments\SVRT Experiment 3\svrt_images\generated_images\results_problem_13\sample_1_0014.png,,C:\Users\subject\Desktop\SVRT Experiments\SVRT Experiment 3\svrt_images\generated_images\results_problem_2\sample_1_0014.png,,,,,,,,,,,,,,,,,,,,,0,2,2,2,0,12,12,12,,,,,,,,,,,,,,j,2,B,A,17,0,Incorrect!,0.3444362999871373,242.38550029997714,None,242.38550029997714,None,242.7521425000159,None,,,,,67,001,2023-05-18_09h54.41.640,uncolored_shuffled,2021.2.3,59.99912401310403,
C:\Users\subject\Desktop\SVRT Experiments\SVRT Experiment 3\svrt_images\generated_images\results_problem_2,C:\Users\subject\Desktop\SVRT Experiments\SVRT Experiment 3\svrt_images\generated_images\results_problem_13\sample_1_0014.png,,C:\Users\subject\Desktop\SVRT Experiments\SVRT Experiment 3\svrt_images\generated_images\results_problem_2\sample_1_0000.png,,,,,,,,,,,,,,,,,,,,,0,2,2,2,0,13,13,13,,,,,,,,,,,,,,j,2,B,A,17,0,Incorrect!,0.36587300000246614,243.85208400001284,None,243.85208400001284,None,244.2353703000117,None,,,,,67,001,2023-05-18_09h54.41.640,uncolored_shuffled,2021.2.3,59.99912401310403,
C:\Users\subject\Desktop\SVRT Experiments\SVRT Experiment 3\svrt_images\generated_images\results_problem_2,C:\Users\subject\Desktop\SVRT Experiments\SVRT Experiment 3\svrt_images\generated_images\results_problem_13\sample_1_0014.png,,C:\Users\subject\Desktop\SVRT Experiments\SVRT Experiment 3\svrt_images\generated_images\results_problem_2\sample_1_0001.png,,,,,,,,,,,,,,,,,,,,,0,2,2,2,0,14,14,14,,,,,,,,,,,,,,j,2,B,A,17,0,Incorrect!,0.6108475999790244,245.33514769998146,None,245.33514769998146,None,245.98526919999858,None,,,,,67,001,2023-05-18_09h54.41.640,uncolored_shuffled,2021.2.3,59.99912401310403,
C:\Users\subject\Desktop\SVRT Experiments\SVRT Experiment 3\svrt_images\generated_images\results_problem_2,C:\Users\subject\Desktop\SVRT Experiments\SVRT Experiment 3\svrt_images\generated_images\results_problem_13\sample_1_0014.png,,C:\Users\subject\Desktop\SVRT Experiments\SVRT Experiment 3\svrt_images\generated_images\results_problem_2\sample_1_0016.png,,,,,,,,,,,,,,,,,,,,,0,2,2,2,0,15,15,15,,,,,,,,,,,,,,j,2,B,A,17,0,Incorrect!,0.3160272999666631,247.10189609997906,None,247.10189609997906,None,247.45186490000924,None,,,,,67,001,2023-05-18_09h54.41.640,uncolored_shuffled,2021.2.3,59.99912401310403,
C:\Users\subject\Desktop\SVRT Experiments\SVRT Experiment 3\svrt_images\generated_images\results_problem_2,C:\Users\subject\Desktop\SVRT Experiments\SVRT Experiment 3\svrt_images\generated_images\results_problem_13\sample_1_0014.png,,C:\Users\subject\Desktop\SVRT Experiments\SVRT Experiment 3\svrt_images\generated_images\results_problem_2\sample_0_0007.png,,,,,,,,,,,,,,,,,,,,,0,2,2,2,0,16,16,16,,,,,,,,,,,,,,j,2,B,B,17,1,Correct!,1.0561712000053376,248.60179240000434,None,248.60179240000434,None,249.68507319997298,None,,,,,67,001,2023-05-18_09h54.41.640,uncolored_shuffled,2021.2.3,59.99912401310403,
C:\Users\subject\Desktop\SVRT Experiments\SVRT Experiment 3\svrt_images\generated_images\results_problem_2,C:\Users\subject\Desktop\SVRT Experiments\SVRT Experiment 3\svrt_images\generated_images\results_problem_13\sample_1_0014.png,,C:\Users\subject\Desktop\SVRT Experiments\SVRT Experiment 3\svrt_images\generated_images\results_problem_2\sample_0_0016.png,,,,,,,,,,,,,,,,,,,,,0,2,2,2,0,17,17,17,,,,,,,,,,,,,,f,2,A,B,17,0,Incorrect!,0.5029720999882556,250.83498400001554,None,250.83498400001554,None,251.3849588999874,None,,,,,67,001,2023-05-18_09h54.41.640,uncolored_shuffled,2021.2.3,59.99912401310403,
C:\Users\subject\Desktop\SVRT Experiments\SVRT Experiment 3\svrt_images\generated_images\results_problem_2,C:\Users\subject\Desktop\SVRT Experiments\SVRT Experiment 3\svrt_images\generated_images\results_problem_13\sample_1_0014.png,,C:\Users\subject\Desktop\SVRT Experiments\SVRT Experiment 3\svrt_images\generated_images\results_problem_2\sample_0_0009.png,,,,,,,,,,,,,,,,,,,,,0,2,2,2,0,18,18,18,,,,,,,,,,,,,,j,2,B,B,17,1,Correct!,0.4337186000193469,252.5682344000088,None,252.5682344000088,None,253.0515173000167,None,,,,,67,001,2023-05-18_09h54.41.640,uncolored_shuffled,2021.2.3,59.99912401310403,
C:\Users\subject\Desktop\SVRT Experiments\SVRT Experiment 3\svrt_images\generated_images\results_problem_2,C:\Users\subject\Desktop\SVRT Experiments\SVRT Experiment 3\svrt_images\generated_images\results_problem_13\sample_1_0014.png,,C:\Users\subject\Desktop\SVRT Experiments\SVRT Experiment 3\svrt_images\generated_images\results_problem_2\sample_0_0014.png,,,,,,,,,,,,,,,,,,,,,0,2,2,2,0,19,19,19,,,,,,,,,,,,,,f,2,A,B,17,0,Incorrect!,0.9118084000074305,254.2181469000061,None,254.2181469000061,None,255.16808279999532,None,,,,,67,001,2023-05-18_09h54.41.640,uncolored_shuffled,2021.2.3,59.99912401310403,
C:\Users\subject\Desktop\SVRT Experiments\SVRT Experiment 3\svrt_images\generated_images\results_problem_2,C:\Users\subject\Desktop\SVRT Experiments\SVRT Experiment 3\svrt_images\generated_images\results_problem_13\sample_1_0014.png,,C:\Users\subject\Desktop\SVRT Experiments\SVRT Experiment 3\svrt_images\generated_images\results_problem_2\sample_1_0002.png,,,,,,,,,,,,,,,,,,,,,0,2,2,2,0,20,20,20,,,,,,,,,,,,,,f,2,A,A,17,1,Correct!,0.2673019000212662,256.3346671999898,None,256.3346671999898,None,256.6513128000079,None,,,,,67,001,2023-05-18_09h54.41.640,uncolored_shuffled,2021.2.3,59.99912401310403,
C:\Users\subject\Desktop\SVRT Experiments\SVRT Experiment 3\svrt_images\generated_images\results_problem_2,C:\Users\subject\Desktop\SVRT Experiments\SVRT Experiment 3\svrt_images\generated_images\results_problem_13\sample_1_0014.png,,C:\Users\subject\Desktop\SVRT Experiments\SVRT Experiment 3\svrt_images\generated_images\results_problem_2\sample_0_0013.png,,,,,,,,,,,,,,,,,,,,,0,2,2,2,0,21,21,21,,,,,,,,,,,,,,j,2,B,B,17,1,Correct!,0.3033619000343606,257.8345974999829,None,257.8345974999829,None,258.20120850001695,None,,,,,67,001,2023-05-18_09h54.41.640,uncolored_shuffled,2021.2.3,59.99912401310403,
C:\Users\subject\Desktop\SVRT Experiments\SVRT Experiment 3\svrt_images\generated_images\results_problem_2,C:\Users\subject\Desktop\SVRT Experiments\SVRT Experiment 3\svrt_images\generated_images\results_problem_13\sample_1_0014.png,,C:\Users\subject\Desktop\SVRT Experiments\SVRT Experiment 3\svrt_images\generated_images\results_problem_2\sample_1_0011.png,,,,,,,,,,,,,,,,,,,,,0,2,2,2,0,22,22,22,,,,,,,,,,,,,,j,2,B,A,17,0,Incorrect!,0.8648593000252731,259.40115109999897,None,259.40115109999897,None,260.31779780000215,None,,,,,67,001,2023-05-18_09h54.41.640,uncolored_shuffled,2021.2.3,59.99912401310403,
C:\Users\subject\Desktop\SVRT Experiments\SVRT Experiment 3\svrt_images\generated_images\results_problem_2,C:\Users\subject\Desktop\SVRT Experiments\SVRT Experiment 3\svrt_images\generated_images\results_problem_13\sample_1_0014.png,,C:\Users\subject\Desktop\SVRT Experiments\SVRT Experiment 3\svrt_images\generated_images\results_problem_2\sample_1_0006.png,,,,,,,,,,,,,,,,,,,,,0,2,2,2,0,23,23,23,,,,,,,,,,,,,,f,2,A,A,17,1,Correct!,0.3162902999902144,261.5176852999721,None,261.5176852999721,None,261.88432949996786,None,,,,,67,001,2023-05-18_09h54.41.640,uncolored_shuffled,2021.2.3,59.99912401310403,
C:\Users\subject\Desktop\SVRT Experiments\SVRT Experiment 3\svrt_images\generated_images\results_problem_2,C:\Users\subject\Desktop\SVRT Experiments\SVRT Experiment 3\svrt_images\generated_images\results_problem_13\sample_1_0014.png,,C:\Users\subject\Desktop\SVRT Experiments\SVRT Experiment 3\svrt_images\generated_images\results_problem_2\sample_1_0008.png,,,,,,,,,,,,,,,,,,,,,0,2,2,2,0,24,24,24,,,,,,,,,,,,,,f,2,A,A,17,1,Correct!,0.30173639999702573,263.0842818999663,None,263.0842818999663,None,263.4509010000038,None,,,,,67,001,2023-05-18_09h54.41.640,uncolored_shuffled,2021.2.3,59.99912401310403,
C:\Users\subject\Desktop\SVRT Experiments\SVRT Experiment 3\svrt_images\generated_images\results_problem_2,C:\Users\subject\Desktop\SVRT Experiments\SVRT Experiment 3\svrt_images\generated_images\results_problem_13\sample_1_0014.png,,C:\Users\subject\Desktop\SVRT Experiments\SVRT Experiment 3\svrt_images\generated_images\results_problem_2\sample_0_0015.png,,,,,,,,,,,,,,,,,,,,,0,2,2,2,0,25,25,25,,,,,,,,,,,,,,f,2,A,B,17,0,Incorrect!,0.7818298999918625,264.68417939997744,None,264.68417939997744,None,265.50077809998766,None,,,,,67,001,2023-05-18_09h54.41.640,uncolored_shuffled,2021.2.3,59.99912401310403,
C:\Users\subject\Desktop\SVRT Experiments\SVRT Experiment 3\svrt_images\generated_images\results_problem_2,C:\Users\subject\Desktop\SVRT Experiments\SVRT Experiment 3\svrt_images\generated_images\results_problem_13\sample_1_0014.png,,C:\Users\subject\Desktop\SVRT Experiments\SVRT Experiment 3\svrt_images\generated_images\results_problem_2\sample_1_0004.png,,,,,,,,,,,,,,,,,,,,,0,2,2,2,0,26,26,26,,,,,,,,,,,,,,j,2,B,A,17,0,Incorrect!,0.3318866000045091,266.734043799981,None,266.734043799981,None,267.10064929997316,None,,,,,67,001,2023-05-18_09h54.41.640,uncolored_shuffled,2021.2.3,59.99912401310403,
C:\Users\subject\Desktop\SVRT Experiments\SVRT Experiment 3\svrt_images\generated_images\results_problem_2,C:\Users\subject\Desktop\SVRT Experiments\SVRT Experiment 3\svrt_images\generated_images\results_problem_13\sample_1_0014.png,,C:\Users\subject\Desktop\SVRT Experiments\SVRT Experiment 3\svrt_images\generated_images\results_problem_2\sample_0_0001.png,,,,,,,,,,,,,,,,,,,,,0,2,2,2,0,27,27,27,,,,,,,,,,,,,,j,2,B,B,17,1,Correct!,0.3257647000136785,268.4202503999695,None,268.4202503999695,None,268.7672531999997,None,,,,,67,001,2023-05-18_09h54.41.640,uncolored_shuffled,2021.2.3,59.99912401310403,
C:\Users\subject\Desktop\SVRT Experiments\SVRT Experiment 3\svrt_images\generated_images\results_problem_2,C:\Users\subject\Desktop\SVRT Experiments\SVRT Experiment 3\svrt_images\generated_images\results_problem_13\sample_1_0014.png,,C:\Users\subject\Desktop\SVRT Experiments\SVRT Experiment 3\svrt_images\generated_images\results_problem_2\sample_0_0002.png,,,,,,,,,,,,,,,,,,,,,0,2,2,2,0,28,28,28,,,,,,,,,,,,,,j,2,B,B,17,1,Correct!,0.37622239999473095,270.0338524999679,None,270.0338524999679,None,270.45049279998057,None,,,,,67,001,2023-05-18_09h54.41.640,uncolored_shuffled,2021.2.3,59.99912401310403,
C:\Users\subject\Desktop\SVRT Experiments\SVRT Experiment 3\svrt_images\generated_images\results_problem_2,C:\Users\subject\Desktop\SVRT Experiments\SVRT Experiment 3\svrt_images\generated_images\results_problem_13\sample_1_0014.png,,C:\Users\subject\Desktop\SVRT Experiments\SVRT Experiment 3\svrt_images\generated_images\results_problem_2\sample_0_0000.png,,,,,,,,,,,,,,,,,,,,,0,2,2,2,0,29,29,29,,,,,,,,,,,,,,j,2,B,B,17,1,Correct!,0.8694965000031516,271.7004090999835,None,271.7004090999835,None,272.6503377999761,None,,,,,67,001,2023-05-18_09h54.41.640,uncolored_shuffled,2021.2.3,59.99912401310403,
C:\Users\subject\Desktop\SVRT Experiments\SVRT Experiment 3\svrt_images\generated_images\results_problem_2,C:\Users\subject\Desktop\SVRT Experiments\SVRT Experiment 3\svrt_images\generated_images\results_problem_13\sample_1_0014.png,,C:\Users\subject\Desktop\SVRT Experiments\SVRT Experiment 3\svrt_images\generated_images\results_problem_2\sample_1_0010.png,,,,,,,,,,,,,,,,,,,,,0,2,2,2,0,30,30,30,,,,,,,,,,,,,,j,2,B,A,17,0,Incorrect!,0.39638040005229414,273.93361409998033,None,273.93361409998033,None,274.35024180001346,None,,,,,67,001,2023-05-18_09h54.41.640,uncolored_shuffled,2021.2.3,59.99912401310403,
C:\Users\subject\Desktop\SVRT Experiments\SVRT Experiment 3\svrt_images\generated_images\results_problem_2,C:\Users\subject\Desktop\SVRT Experiments\SVRT Experiment 3\svrt_images\generated_images\results_problem_13\sample_1_0014.png,,C:\Users\subject\Desktop\SVRT Experiments\SVRT Experiment 3\svrt_images\generated_images\results_problem_2\sample_1_0005.png,,,,,,,,,,,,,,,,,,,,,0,2,2,2,0,31,31,31,,,,,,,,,,,,,,j,2,B,A,17,0,Incorrect!,0.24851659999694675,275.63352019997546,None,275.63352019997546,None,275.91682919999585,None,,,,,67,001,2023-05-18_09h54.41.640,uncolored_shuffled,2021.2.3,59.99912401310403,
C:\Users\subject\Desktop\SVRT Experiments\SVRT Experiment 3\svrt_images\generated_images\results_problem_2,C:\Users\subject\Desktop\SVRT Experiments\SVRT Experiment 3\svrt_images\generated_images\results_problem_13\sample_1_0014.png,,C:\Users\subject\Desktop\SVRT Experiments\SVRT Experiment 3\svrt_images\generated_images\results_problem_2\sample_0_0011.png,,,,,,,,,,,,,,,,,,,,,0,2,2,2,0,32,32,32,,,,,,,,,,,,,,f,2,A,B,17,0,Incorrect!,0.42456719995243475,277.2334240999771,None,277.2334240999771,None,277.7500571999699,None,,,,,67,001,2023-05-18_09h54.41.640,uncolored_shuffled,2021.2.3,59.99912401310403,
C:\Users\subject\Desktop\SVRT Experiments\SVRT Experiment 3\svrt_images\generated_images\results_problem_2,C:\Users\subject\Desktop\SVRT Experiments\SVRT Experiment 3\svrt_images\generated_images\results_problem_13\sample_1_0014.png,,C:\Users\subject\Desktop\SVRT Experiments\SVRT Experiment 3\svrt_images\generated_images\results_problem_2\sample_0_0008.png,,,,,,,,,,,,,,,,,,,,,0,2,2,2,0,33,33,33,,,,,,,,,,,,,,j,2,B,B,17,1,Correct!,0.4792379999998957,279.0666671000072,None,279.0666671000072,None,279.5832979999832,None,,,,,67,001,2023-05-18_09h54.41.640,uncolored_shuffled,2021.2.3,59.99912401310403,
C:\Users\subject\Desktop\SVRT Experiments\SVRT Experiment 3\svrt_images\generated_images\results_problem_2,C:\Users\subject\Desktop\SVRT Experiments\SVRT Experiment 3\svrt_images\generated_images\results_problem_13\sample_1_0014.png,,,,,,,,,,,,,,,,,,,,,,,0,2,2,2,0,17,17,17,,,,,,,,,,,,,,,,,,,,,,,,,,,,280.5832393000019,280.5832393000019,space,1.8267478999914601,67,001,2023-05-18_09h54.41.640,uncolored_shuffled,2021.2.3,59.99912401310403,
C:\Users\subject\Desktop\SVRT Experiments\SVRT Experiment 3\svrt_images\generated_images\results_problem_17,C:\Users\subject\Desktop\SVRT Experiments\SVRT Experiment 3\svrt_images\generated_images\results_problem_13\sample_1_0014.png,,,C:\Users\subject\Desktop\SVRT Experiments\SVRT Experiment 3\svrt_images\generated_images\results_problem_17\sample_0_0003.png,,,,,,,,,,,,,,,,,,,,0,3,3,3,0,0,0,0,,,,,,,,,,,,,,j,17,B,B,17,1,Correct!,2.4729666000348516,282.43313179997494,None,282.43313179997494,None,284.93317709997064,None,,,,,67,001,2023-05-18_09h54.41.640,uncolored_shuffled,2021.2.3,59.99912401310403,
C:\Users\subject\Desktop\SVRT Experiments\SVRT Experiment 3\svrt_images\generated_images\results_problem_17,C:\Users\subject\Desktop\SVRT Experiments\SVRT Experiment 3\svrt_images\generated_images\results_problem_13\sample_1_0014.png,,,C:\Users\subject\Desktop\SVRT Experiments\SVRT Experiment 3\svrt_images\generated_images\results_problem_17\sample_1_0005.png,,,,,,,,,,,,,,,,,,,,0,3,3,3,0,1,1,1,,,,,,,,,,,,,,f,17,A,A,17,1,Correct!,2.1881018999847583,285.9498440999887,None,285.9498440999887,None,288.1664194999612,None,,,,,67,001,2023-05-18_09h54.41.640,uncolored_shuffled,2021.2.3,59.99912401310403,
C:\Users\subject\Desktop\SVRT Experiments\SVRT Experiment 3\svrt_images\generated_images\results_problem_17,C:\Users\subject\Desktop\SVRT Experiments\SVRT Experiment 3\svrt_images\generated_images\results_problem_13\sample_1_0014.png,,,C:\Users\subject\Desktop\SVRT Experiments\SVRT Experiment 3\svrt_images\generated_images\results_problem_17\sample_0_0001.png,,,,,,,,,,,,,,,,,,,,0,3,3,3,0,2,2,2,,,,,,,,,,,,,,j,17,B,B,17,1,Correct!,1.2429967000498436,289.1830134000047,None,289.1830134000047,None,290.44964239996625,None,,,,,67,001,2023-05-18_09h54.41.640,uncolored_shuffled,2021.2.3,59.99912401310403,
C:\Users\subject\Desktop\SVRT Experiments\SVRT Experiment 3\svrt_images\generated_images\results_problem_17,C:\Users\subject\Desktop\SVRT Experiments\SVRT Experiment 3\svrt_images\generated_images\results_problem_13\sample_1_0014.png,,,C:\Users\subject\Desktop\SVRT Experiments\SVRT Experiment 3\svrt_images\generated_images\results_problem_17\sample_1_0009.png,,,,,,,,,,,,,,,,,,,,0,3,3,3,0,3,3,3,,,,,,,,,,,,,,f,17,A,A,17,1,Correct!,0.8631336000398733,291.48292699997546,None,291.48292699997546,None,292.3662074999884,None,,,,,67,001,2023-05-18_09h54.41.640,uncolored_shuffled,2021.2.3,59.99912401310403,
C:\Users\subject\Desktop\SVRT Experiments\SVRT Experiment 3\svrt_images\generated_images\results_problem_17,C:\Users\subject\Desktop\SVRT Experiments\SVRT Experiment 3\svrt_images\generated_images\results_problem_13\sample_1_0014.png,,,C:\Users\subject\Desktop\SVRT Experiments\SVRT Experiment 3\svrt_images\generated_images\results_problem_17\sample_1_0002.png,,,,,,,,,,,,,,,,,,,,0,3,3,3,0,4,4,4,,,,,,,,,,,,,,j,17,B,A,17,0,Incorrect!,1.3626388999982737,293.399476999999,None,293.399476999999,None,294.7823904000106,None,,,,,67,001,2023-05-18_09h54.41.640,uncolored_shuffled,2021.2.3,59.99912401310403,
C:\Users\subject\Desktop\SVRT Experiments\SVRT Experiment 3\svrt_images\generated_images\results_problem_17,C:\Users\subject\Desktop\SVRT Experiments\SVRT Experiment 3\svrt_images\generated_images\results_problem_13\sample_1_0014.png,,,C:\Users\subject\Desktop\SVRT Experiments\SVRT Experiment 3\svrt_images\generated_images\results_problem_17\sample_1_0000.png,,,,,,,,,,,,,,,,,,,,0,3,3,3,0,5,5,5,,,,,,,,,,,,,,j,17,B,A,17,0,Incorrect!,2.2743297000415623,295.8156955000013,None,295.8156955000013,None,298.11552200000733,None,,,,,67,001,2023-05-18_09h54.41.640,uncolored_shuffled,2021.2.3,59.99912401310403,
C:\Users\subject\Desktop\SVRT Experiments\SVRT Experiment 3\svrt_images\generated_images\results_problem_17,C:\Users\subject\Desktop\SVRT Experiments\SVRT Experiment 3\svrt_images\generated_images\results_problem_13\sample_1_0014.png,,,C:\Users\subject\Desktop\SVRT Experiments\SVRT Experiment 3\svrt_images\generated_images\results_problem_17\sample_0_0009.png,,,,,,,,,,,,,,,,,,,,0,3,3,3,0,6,6,6,,,,,,,,,,,,,,j,17,B,B,17,1,Correct!,1.4525317999650724,299.1654826999875,None,299.1654826999875,None,300.6486470999662,None,,,,,67,001,2023-05-18_09h54.41.640,uncolored_shuffled,2021.2.3,59.99912401310403,
C:\Users\subject\Desktop\SVRT Experiments\SVRT Experiment 3\svrt_images\generated_images\results_problem_17,C:\Users\subject\Desktop\SVRT Experiments\SVRT Experiment 3\svrt_images\generated_images\results_problem_13\sample_1_0014.png,,,C:\Users\subject\Desktop\SVRT Experiments\SVRT Experiment 3\svrt_images\generated_images\results_problem_17\sample_0_0002.png,,,,,,,,,,,,,,,,,,,,0,3,3,3,0,7,7,7,,,,,,,,,,,,,,f,17,A,B,17,0,Incorrect!,0.6794245999772102,301.6985784000135,None,301.6985784000135,None,302.3984966999851,None,,,,,67,001,2023-05-18_09h54.41.640,uncolored_shuffled,2021.2.3,59.99912401310403,
C:\Users\subject\Desktop\SVRT Experiments\SVRT Experiment 3\svrt_images\generated_images\results_problem_17,C:\Users\subject\Desktop\SVRT Experiments\SVRT Experiment 3\svrt_images\generated_images\results_problem_13\sample_1_0014.png,,,C:\Users\subject\Desktop\SVRT Experiments\SVRT Experiment 3\svrt_images\generated_images\results_problem_17\sample_0_0012.png,,,,,,,,,,,,,,,,,,,,0,3,3,3,0,8,8,8,,,,,,,,,,,,,,f,17,A,B,17,0,Incorrect!,3.392930200032424,303.46511869999813,None,303.46511869999813,None,306.8816910000169,None,,,,,67,001,2023-05-18_09h54.41.640,uncolored_shuffled,2021.2.3,59.99912401310403,
C:\Users\subject\Desktop\SVRT Experiments\SVRT Experiment 3\svrt_images\generated_images\results_problem_17,C:\Users\subject\Desktop\SVRT Experiments\SVRT Experiment 3\svrt_images\generated_images\results_problem_13\sample_1_0014.png,,,C:\Users\subject\Desktop\SVRT Experiments\SVRT Experiment 3\svrt_images\generated_images\results_problem_17\sample_0_0007.png,,,,,,,,,,,,,,,,,,,,0,3,3,3,0,9,9,9,,,,,,,,,,,,,,j,17,B,B,17,1,Correct!,1.0370465000160038,307.9649602000136,None,307.9649602000136,None,309.03156139998464,None,,,,,67,001,2023-05-18_09h54.41.640,uncolored_shuffled,2021.2.3,59.99912401310403,
C:\Users\subject\Desktop\SVRT Experiments\SVRT Experiment 3\svrt_images\generated_images\results_problem_17,C:\Users\subject\Desktop\SVRT Experiments\SVRT Experiment 3\svrt_images\generated_images\results_problem_13\sample_1_0014.png,,,C:\Users\subject\Desktop\SVRT Experiments\SVRT Experiment 3\svrt_images\generated_images\results_problem_17\sample_0_0016.png,,,,,,,,,,,,,,,,,,,,0,3,3,3,0,10,10,10,,,,,,,,,,,,,,j,17,B,B,17,1,Correct!,0.711848699953407,310.09818929998437,None,310.09818929998437,None,310.8314547999762,None,,,,,67,001,2023-05-18_09h54.41.640,uncolored_shuffled,2021.2.3,59.99912401310403,
C:\Users\subject\Desktop\SVRT Experiments\SVRT Experiment 3\svrt_images\generated_images\results_problem_17,C:\Users\subject\Desktop\SVRT Experiments\SVRT Experiment 3\svrt_images\generated_images\results_problem_13\sample_1_0014.png,,,C:\Users\subject\Desktop\SVRT Experiments\SVRT Experiment 3\svrt_images\generated_images\results_problem_17\sample_1_0003.png,,,,,,,,,,,,,,,,,,,,0,3,3,3,0,11,11,11,,,,,,,,,,,,,,f,17,A,A,17,1,Correct!,0.6714233999955468,311.91471539996564,None,311.91471539996564,None,312.6146900000167,None,,,,,67,001,2023-05-18_09h54.41.640,uncolored_shuffled,2021.2.3,59.99912401310403,
C:\Users\subject\Desktop\SVRT Experiments\SVRT Experiment 3\svrt_images\generated_images\results_problem_17,C:\Users\subject\Desktop\SVRT Experiments\SVRT Experiment 3\svrt_images\generated_images\results_problem_13\sample_1_0014.png,,,C:\Users\subject\Desktop\SVRT Experiments\SVRT Experiment 3\svrt_images\generated_images\results_problem_17\sample_1_0011.png,,,,,,,,,,,,,,,,,,,,0,3,3,3,0,12,12,12,,,,,,,,,,,,,,f,17,A,A,17,1,Correct!,0.6640618999954313,313.69796379999025,None,313.69796379999025,None,314.38124479999533,None,,,,,67,001,2023-05-18_09h54.41.640,uncolored_shuffled,2021.2.3,59.99912401310403,
C:\Users\subject\Desktop\SVRT Experiments\SVRT Experiment 3\svrt_images\generated_images\results_problem_17,C:\Users\subject\Desktop\SVRT Experiments\SVRT Experiment 3\svrt_images\generated_images\results_problem_13\sample_1_0014.png,,,C:\Users\subject\Desktop\SVRT Experiments\SVRT Experiment 3\svrt_images\generated_images\results_problem_17\sample_1_0004.png,,,,,,,,,,,,,,,,,,,,0,3,3,3,0,13,13,13,,,,,,,,,,,,,,j,17,B,A,17,0,Incorrect!,0.832898800028488,315.481190099963,None,315.481190099963,None,316.3311334999744,None,,,,,67,001,2023-05-18_09h54.41.640,uncolored_shuffled,2021.2.3,59.99912401310403,
C:\Users\subject\Desktop\SVRT Experiments\SVRT Experiment 3\svrt_images\generated_images\results_problem_17,C:\Users\subject\Desktop\SVRT Experiments\SVRT Experiment 3\svrt_images\generated_images\results_problem_13\sample_1_0014.png,,,C:\Users\subject\Desktop\SVRT Experiments\SVRT Experiment 3\svrt_images\generated_images\results_problem_17\sample_0_0010.png,,,,,,,,,,,,,,,,,,,,0,3,3,3,0,14,14,14,,,,,,,,,,,,,,j,17,B,B,17,1,Correct!,0.32299590000184253,317.4310620999895,None,317.4310620999895,None,317.78103409998585,None,,,,,67,001,2023-05-18_09h54.41.640,uncolored_shuffled,2021.2.3,59.99912401310403,
C:\Users\subject\Desktop\SVRT Experiments\SVRT Experiment 3\svrt_images\generated_images\results_problem_17,C:\Users\subject\Desktop\SVRT Experiments\SVRT Experiment 3\svrt_images\generated_images\results_problem_13\sample_1_0014.png,,,C:\Users\subject\Desktop\SVRT Experiments\SVRT Experiment 3\svrt_images\generated_images\results_problem_17\sample_0_0013.png,,,,,,,,,,,,,,,,,,,,0,3,3,3,0,15,15,15,,,,,,,,,,,,,,f,17,A,B,17,0,Incorrect!,0.3764079000102356,318.8976384999696,None,318.8976384999696,None,319.3142757000169,None,,,,,67,001,2023-05-18_09h54.41.640,uncolored_shuffled,2021.2.3,59.99912401310403,
C:\Users\subject\Desktop\SVRT Experiments\SVRT Experiment 3\svrt_images\generated_images\results_problem_17,C:\Users\subject\Desktop\SVRT Experiments\SVRT Experiment 3\svrt_images\generated_images\results_problem_13\sample_1_0014.png,,,C:\Users\subject\Desktop\SVRT Experiments\SVRT Experiment 3\svrt_images\generated_images\results_problem_17\sample_1_0015.png,,,,,,,,,,,,,,,,,,,,0,3,3,3,0,16,16,16,,,,,,,,,,,,,,j,17,B,A,17,0,Incorrect!,0.8431183999637142,320.43086949997814,None,320.43086949997814,None,321.31416529999115,None,,,,,67,001,2023-05-18_09h54.41.640,uncolored_shuffled,2021.2.3,59.99912401310403,
C:\Users\subject\Desktop\SVRT Experiments\SVRT Experiment 3\svrt_images\generated_images\results_problem_17,C:\Users\subject\Desktop\SVRT Experiments\SVRT Experiment 3\svrt_images\generated_images\results_problem_13\sample_1_0014.png,,,C:\Users\subject\Desktop\SVRT Experiments\SVRT Experiment 3\svrt_images\generated_images\results_problem_17\sample_0_0008.png,,,,,,,,,,,,,,,,,,,,0,3,3,3,0,17,17,17,,,,,,,,,,,,,,j,17,B,B,17,1,Correct!,0.5704975000116974,322.4474322000169,None,322.4474322000169,None,323.06407399999443,None,,,,,67,001,2023-05-18_09h54.41.640,uncolored_shuffled,2021.2.3,59.99912401310403,
C:\Users\subject\Desktop\SVRT Experiments\SVRT Experiment 3\svrt_images\generated_images\results_problem_17,C:\Users\subject\Desktop\SVRT Experiments\SVRT Experiment 3\svrt_images\generated_images\results_problem_13\sample_1_0014.png,,,C:\Users\subject\Desktop\SVRT Experiments\SVRT Experiment 3\svrt_images\generated_images\results_problem_17\sample_1_0014.png,,,,,,,,,,,,,,,,,,,,0,3,3,3,0,18,18,18,,,,,,,,,,,,,,f,17,A,A,17,1,Correct!,0.6118040999863297,324.21402060001856,None,324.21402060001856,None,324.8639925000025,None,,,,,67,001,2023-05-18_09h54.41.640,uncolored_shuffled,2021.2.3,59.99912401310403,
C:\Users\subject\Desktop\SVRT Experiments\SVRT Experiment 3\svrt_images\generated_images\results_problem_17,C:\Users\subject\Desktop\SVRT Experiments\SVRT Experiment 3\svrt_images\generated_images\results_problem_13\sample_1_0014.png,,,C:\Users\subject\Desktop\SVRT Experiments\SVRT Experiment 3\svrt_images\generated_images\results_problem_17\sample_0_0004.png,,,,,,,,,,,,,,,,,,,,0,3,3,3,0,19,19,19,,,,,,,,,,,,,,f,17,A,B,17,0,Incorrect!,0.39618449995759875,326.0138968999963,None,326.0138968999963,None,326.4305404999759,None,,,,,67,001,2023-05-18_09h54.41.640,uncolored_shuffled,2021.2.3,59.99912401310403,
C:\Users\subject\Desktop\SVRT Experiments\SVRT Experiment 3\svrt_images\generated_images\results_problem_17,C:\Users\subject\Desktop\SVRT Experiments\SVRT Experiment 3\svrt_images\generated_images\results_problem_13\sample_1_0014.png,,,C:\Users\subject\Desktop\SVRT Experiments\SVRT Experiment 3\svrt_images\generated_images\results_problem_17\sample_1_0001.png,,,,,,,,,,,,,,,,,,,,0,3,3,3,0,20,20,20,,,,,,,,,,,,,,f,17,A,A,17,1,Correct!,0.316989199956879,327.59712699998636,None,327.59712699998636,None,327.94716430001426,None,,,,,67,001,2023-05-18_09h54.41.640,uncolored_shuffled,2021.2.3,59.99912401310403,
C:\Users\subject\Desktop\SVRT Experiments\SVRT Experiment 3\svrt_images\generated_images\results_problem_17,C:\Users\subject\Desktop\SVRT Experiments\SVRT Experiment 3\svrt_images\generated_images\results_problem_13\sample_1_0014.png,,,C:\Users\subject\Desktop\SVRT Experiments\SVRT Experiment 3\svrt_images\generated_images\results_problem_17\sample_1_0010.png,,,,,,,,,,,,,,,,,,,,0,3,3,3,0,21,21,21,,,,,,,,,,,,,,f,17,A,A,17,1,Correct!,0.40043989999685436,329.11367260001134,None,329.11367260001134,None,329.56367920001503,None,,,,,67,001,2023-05-18_09h54.41.640,uncolored_shuffled,2021.2.3,59.99912401310403,
C:\Users\subject\Desktop\SVRT Experiments\SVRT Experiment 3\svrt_images\generated_images\results_problem_17,C:\Users\subject\Desktop\SVRT Experiments\SVRT Experiment 3\svrt_images\generated_images\results_problem_13\sample_1_0014.png,,,C:\Users\subject\Desktop\SVRT Experiments\SVRT Experiment 3\svrt_images\generated_images\results_problem_17\sample_0_0014.png,,,,,,,,,,,,,,,,,,,,0,3,3,3,0,22,22,22,,,,,,,,,,,,,,f,17,A,B,17,0,Incorrect!,0.3191260999883525,330.74694559996715,None,330.74694559996715,None,331.1135857999907,None,,,,,67,001,2023-05-18_09h54.41.640,uncolored_shuffled,2021.2.3,59.99912401310403,
C:\Users\subject\Desktop\SVRT Experiments\SVRT Experiment 3\svrt_images\generated_images\results_problem_17,C:\Users\subject\Desktop\SVRT Experiments\SVRT Experiment 3\svrt_images\generated_images\results_problem_13\sample_1_0014.png,,,C:\Users\subject\Desktop\SVRT Experiments\SVRT Experiment 3\svrt_images\generated_images\results_problem_17\sample_1_0013.png,,,,,,,,,,,,,,,,,,,,0,3,3,3,0,23,23,23,,,,,,,,,,,,,,j,17,B,A,17,0,Incorrect!,0.32056999998167157,332.3135138999787,None,332.3135138999787,None,332.6801666999818,None,,,,,67,001,2023-05-18_09h54.41.640,uncolored_shuffled,2021.2.3,59.99912401310403,
C:\Users\subject\Desktop\SVRT Experiments\SVRT Experiment 3\svrt_images\generated_images\results_problem_17,C:\Users\subject\Desktop\SVRT Experiments\SVRT Experiment 3\svrt_images\generated_images\results_problem_13\sample_1_0014.png,,,C:\Users\subject\Desktop\SVRT Experiments\SVRT Experiment 3\svrt_images\generated_images\results_problem_17\sample_0_0000.png,,,,,,,,,,,,,,,,,,,,0,3,3,3,0,24,24,24,,,,,,,,,,,,,,j,17,B,B,17,1,Correct!,0.545992000028491,333.88009910000255,None,333.88009910000255,None,334.44673719996354,None,,,,,67,001,2023-05-18_09h54.41.640,uncolored_shuffled,2021.2.3,59.99912401310403,
C:\Users\subject\Desktop\SVRT Experiments\SVRT Experiment 3\svrt_images\generated_images\results_problem_17,C:\Users\subject\Desktop\SVRT Experiments\SVRT Experiment 3\svrt_images\generated_images\results_problem_13\sample_1_0014.png,,,C:\Users\subject\Desktop\SVRT Experiments\SVRT Experiment 3\svrt_images\generated_images\results_problem_17\sample_1_0007.png,,,,,,,,,,,,,,,,,,,,0,3,3,3,0,25,25,25,,,,,,,,,,,,,,f,17,A,A,17,1,Correct!,0.4267326000262983,335.6633844000171,None,335.6633844000171,None,336.1299449999933,None,,,,,67,001,2023-05-18_09h54.41.640,uncolored_shuffled,2021.2.3,59.99912401310403,
C:\Users\subject\Desktop\SVRT Experiments\SVRT Experiment 3\svrt_images\generated_images\results_problem_17,C:\Users\subject\Desktop\SVRT Experiments\SVRT Experiment 3\svrt_images\generated_images\results_problem_13\sample_1_0014.png,,,C:\Users\subject\Desktop\SVRT Experiments\SVRT Experiment 3\svrt_images\generated_images\results_problem_17\sample_1_0016.png,,,,,,,,,,,,,,,,,,,,0,3,3,3,0,26,26,26,,,,,,,,,,,,,,f,17,A,A,17,1,Correct!,0.438848500023596,337.3632089999737,None,337.3632089999737,None,337.829872399976,None,,,,,67,001,2023-05-18_09h54.41.640,uncolored_shuffled,2021.2.3,59.99912401310403,
C:\Users\subject\Desktop\SVRT Experiments\SVRT Experiment 3\svrt_images\generated_images\results_problem_17,C:\Users\subject\Desktop\SVRT Experiments\SVRT Experiment 3\svrt_images\generated_images\results_problem_13\sample_1_0014.png,,,C:\Users\subject\Desktop\SVRT Experiments\SVRT Experiment 3\svrt_images\generated_images\results_problem_17\sample_0_0006.png,,,,,,,,,,,,,,,,,,,,0,3,3,3,0,27,27,27,,,,,,,,,,,,,,j,17,B,B,17,1,Correct!,0.35496769996825606,339.0631518000155,None,339.0631518000155,None,339.4797569999937,None,,,,,67,001,2023-05-18_09h54.41.640,uncolored_shuffled,2021.2.3,59.99912401310403,
C:\Users\subject\Desktop\SVRT Experiments\SVRT Experiment 3\svrt_images\generated_images\results_problem_17,C:\Users\subject\Desktop\SVRT Experiments\SVRT Experiment 3\svrt_images\generated_images\results_problem_13\sample_1_0014.png,,,C:\Users\subject\Desktop\SVRT Experiments\SVRT Experiment 3\svrt_images\generated_images\results_problem_17\sample_0_0005.png,,,,,,,,,,,,,,,,,,,,0,3,3,3,0,28,28,28,,,,,,,,,,,,,,j,17,B,B,17,1,Correct!,0.33630409999750555,340.72976999997627,None,340.72976999997627,None,341.14632459997665,None,,,,,67,001,2023-05-18_09h54.41.640,uncolored_shuffled,2021.2.3,59.99912401310403,
C:\Users\subject\Desktop\SVRT Experiments\SVRT Experiment 3\svrt_images\generated_images\results_problem_17,C:\Users\subject\Desktop\SVRT Experiments\SVRT Experiment 3\svrt_images\generated_images\results_problem_13\sample_1_0014.png,,,C:\Users\subject\Desktop\SVRT Experiments\SVRT Experiment 3\svrt_images\generated_images\results_problem_17\sample_1_0008.png,,,,,,,,,,,,,,,,,,,,0,3,3,3,0,29,29,29,,,,,,,,,,,,,,j,17,B,A,17,0,Incorrect!,0.5091633000411093,342.41292839997914,None,342.41292839997914,None,342.96289259998593,None,,,,,67,001,2023-05-18_09h54.41.640,uncolored_shuffled,2021.2.3,59.99912401310403,
C:\Users\subject\Desktop\SVRT Experiments\SVRT Experiment 3\svrt_images\generated_images\results_problem_17,C:\Users\subject\Desktop\SVRT Experiments\SVRT Experiment 3\svrt_images\generated_images\results_problem_13\sample_1_0014.png,,,C:\Users\subject\Desktop\SVRT Experiments\SVRT Experiment 3\svrt_images\generated_images\results_problem_17\sample_0_0015.png,,,,,,,,,,,,,,,,,,,,0,3,3,3,0,30,30,30,,,,,,,,,,,,,,j,17,B,B,17,1,Correct!,0.340502800012473,344.2295041999896,None,344.2295041999896,None,344.6459906999953,None,,,,,67,001,2023-05-18_09h54.41.640,uncolored_shuffled,2021.2.3,59.99912401310403,
C:\Users\subject\Desktop\SVRT Experiments\SVRT Experiment 3\svrt_images\generated_images\results_problem_17,C:\Users\subject\Desktop\SVRT Experiments\SVRT Experiment 3\svrt_images\generated_images\results_problem_13\sample_1_0014.png,,,C:\Users\subject\Desktop\SVRT Experiments\SVRT Experiment 3\svrt_images\generated_images\results_problem_17\sample_0_0011.png,,,,,,,,,,,,,,,,,,,,0,3,3,3,0,31,31,31,,,,,,,,,,,,,,f,17,A,B,17,0,Incorrect!,0.512584500014782,345.9293891999987,None,345.9293891999987,None,346.4793479999644,None,,,,,67,001,2023-05-18_09h54.41.640,uncolored_shuffled,2021.2.3,59.99912401310403,
C:\Users\subject\Desktop\SVRT Experiments\SVRT Experiment 3\svrt_images\generated_images\results_problem_17,C:\Users\subject\Desktop\SVRT Experiments\SVRT Experiment 3\svrt_images\generated_images\results_problem_13\sample_1_0014.png,,,C:\Users\subject\Desktop\SVRT Experiments\SVRT Experiment 3\svrt_images\generated_images\results_problem_17\sample_1_0012.png,,,,,,,,,,,,,,,,,,,,0,3,3,3,0,32,32,32,,,,,,,,,,,,,,f,17,A,A,17,1,Correct!,0.3274853000184521,347.76261899998644,None,347.76261899998644,None,348.1292503000004,None,,,,,67,001,2023-05-18_09h54.41.640,uncolored_shuffled,2021.2.3,59.99912401310403,
C:\Users\subject\Desktop\SVRT Experiments\SVRT Experiment 3\svrt_images\generated_images\results_problem_17,C:\Users\subject\Desktop\SVRT Experiments\SVRT Experiment 3\svrt_images\generated_images\results_problem_13\sample_1_0014.png,,,C:\Users\subject\Desktop\SVRT Experiments\SVRT Experiment 3\svrt_images\generated_images\results_problem_17\sample_1_0006.png,,,,,,,,,,,,,,,,,,,,0,3,3,3,0,33,33,33,,,,,,,,,,,,,,f,17,A,A,17,1,Correct!,0.35691979998955503,349.4291715999716,None,349.4291715999716,None,349.86246919998666,None,,,,,67,001,2023-05-18_09h54.41.640,uncolored_shuffled,2021.2.3,59.99912401310403,
C:\Users\subject\Desktop\SVRT Experiments\SVRT Experiment 3\svrt_images\generated_images\results_problem_17,C:\Users\subject\Desktop\SVRT Experiments\SVRT Experiment 3\svrt_images\generated_images\results_problem_13\sample_1_0014.png,,,,,,,,,,,,,,,,,,,,,,,0,3,3,3,0,17,17,17,,,,,,,,,,,,,,,,,,,,,,,,,,,,350.8624137999723,350.8624137999723,space,1.4357138000195846,67,001,2023-05-18_09h54.41.640,uncolored_shuffled,2021.2.3,59.99912401310403,
C:\Users\subject\Desktop\SVRT Experiments\SVRT Experiment 3\svrt_images\generated_images\results_problem_4,C:\Users\subject\Desktop\SVRT Experiments\SVRT Experiment 3\svrt_images\generated_images\results_problem_13\sample_1_0014.png,,,,C:\Users\subject\Desktop\SVRT Experiments\SVRT Experiment 3\svrt_images\generated_images\results_problem_4\sample_1_0006.png,,,,,,,,,,,,,,,,,,,0,4,4,4,0,0,0,0,,,,,,,,,,,,,,f,4,A,A,17,1,Correct!,5.32844179996755,352.3456711000181,None,352.3456711000181,None,357.69534009997733,None,,,,,67,001,2023-05-18_09h54.41.640,uncolored_shuffled,2021.2.3,59.99912401310403,
C:\Users\subject\Desktop\SVRT Experiments\SVRT Experiment 3\svrt_images\generated_images\results_problem_4,C:\Users\subject\Desktop\SVRT Experiments\SVRT Experiment 3\svrt_images\generated_images\results_problem_13\sample_1_0014.png,,,,C:\Users\subject\Desktop\SVRT Experiments\SVRT Experiment 3\svrt_images\generated_images\results_problem_4\sample_1_0013.png,,,,,,,,,,,,,,,,,,,0,4,4,4,0,1,1,1,,,,,,,,,,,,,,f,4,A,A,17,1,Correct!,1.8582191999885254,358.7119656999712,None,358.7119656999712,None,360.5951754999696,None,,,,,67,001,2023-05-18_09h54.41.640,uncolored_shuffled,2021.2.3,59.99912401310403,
C:\Users\subject\Desktop\SVRT Experiments\SVRT Experiment 3\svrt_images\generated_images\results_problem_4,C:\Users\subject\Desktop\SVRT Experiments\SVRT Experiment 3\svrt_images\generated_images\results_problem_13\sample_1_0014.png,,,,C:\Users\subject\Desktop\SVRT Experiments\SVRT Experiment 3\svrt_images\generated_images\results_problem_4\sample_0_0016.png,,,,,,,,,,,,,,,,,,,0,4,4,4,0,2,2,2,,,,,,,,,,,,,,j,4,B,B,17,1,Correct!,0.7982514000032097,361.6118075000122,None,361.6118075000122,None,362.42841419996694,None,,,,,67,001,2023-05-18_09h54.41.640,uncolored_shuffled,2021.2.3,59.99912401310403,
C:\Users\subject\Desktop\SVRT Experiments\SVRT Experiment 3\svrt_images\generated_images\results_problem_4,C:\Users\subject\Desktop\SVRT Experiments\SVRT Experiment 3\svrt_images\generated_images\results_problem_13\sample_1_0014.png,,,,C:\Users\subject\Desktop\SVRT Experiments\SVRT Experiment 3\svrt_images\generated_images\results_problem_4\sample_0_0008.png,,,,,,,,,,,,,,,,,,,0,4,4,4,0,3,3,3,,,,,,,,,,,,,,j,4,B,B,17,1,Correct!,0.5164295000140555,363.46169699996244,None,363.46169699996244,None,363.99501339998096,None,,,,,67,001,2023-05-18_09h54.41.640,uncolored_shuffled,2021.2.3,59.99912401310403,
C:\Users\subject\Desktop\SVRT Experiments\SVRT Experiment 3\svrt_images\generated_images\results_problem_4,C:\Users\subject\Desktop\SVRT Experiments\SVRT Experiment 3\svrt_images\generated_images\results_problem_13\sample_1_0014.png,,,,C:\Users\subject\Desktop\SVRT Experiments\SVRT Experiment 3\svrt_images\generated_images\results_problem_4\sample_1_0011.png,,,,,,,,,,,,,,,,,,,0,4,4,4,0,4,4,4,,,,,,,,,,,,,,f,4,A,A,17,1,Correct!,0.9978062000009231,365.02830499998527,None,365.02830499998527,None,366.04485649999697,None,,,,,67,001,2023-05-18_09h54.41.640,uncolored_shuffled,2021.2.3,59.99912401310403,
C:\Users\subject\Desktop\SVRT Experiments\SVRT Experiment 3\svrt_images\generated_images\results_problem_4,C:\Users\subject\Desktop\SVRT Experiments\SVRT Experiment 3\svrt_images\generated_images\results_problem_13\sample_1_0014.png,,,,C:\Users\subject\Desktop\SVRT Experiments\SVRT Experiment 3\svrt_images\generated_images\results_problem_4\sample_1_0010.png,,,,,,,,,,,,,,,,,,,0,4,4,4,0,5,5,5,,,,,,,,,,,,,,f,4,A,A,17,1,Correct!,0.5799944999744184,367.0781440999708,None,367.0781440999708,None,367.67810339998687,None,,,,,67,001,2023-05-18_09h54.41.640,uncolored_shuffled,2021.2.3,59.99912401310403,
C:\Users\subject\Desktop\SVRT Experiments\SVRT Experiment 3\svrt_images\generated_images\results_problem_4,C:\Users\subject\Desktop\SVRT Experiments\SVRT Experiment 3\svrt_images\generated_images\results_problem_13\sample_1_0014.png,,,,C:\Users\subject\Desktop\SVRT Experiments\SVRT Experiment 3\svrt_images\generated_images\results_problem_4\sample_1_0001.png,,,,,,,,,,,,,,,,,,,0,4,4,4,0,6,6,6,,,,,,,,,,,,,,f,4,A,A,17,1,Correct!,0.6260718000121415,368.72804560000077,None,368.72804560000077,None,369.37800859997515,None,,,,,67,001,2023-05-18_09h54.41.640,uncolored_shuffled,2021.2.3,59.99912401310403,
C:\Users\subject\Desktop\SVRT Experiments\SVRT Experiment 3\svrt_images\generated_images\results_problem_4,C:\Users\subject\Desktop\SVRT Experiments\SVRT Experiment 3\svrt_images\generated_images\results_problem_13\sample_1_0014.png,,,,C:\Users\subject\Desktop\SVRT Experiments\SVRT Experiment 3\svrt_images\generated_images\results_problem_4\sample_1_0015.png,,,,,,,,,,,,,,,,,,,0,4,4,4,0,7,7,7,,,,,,,,,,,,,,,,,,,,,,,,,,,,370.37794649996795,370.37794649996795,space,2.224031699995976,67,001,2023-05-18_09h54.41.640,uncolored_shuffled,2021.2.3,59.99912401310403,
C:\Users\subject\Desktop\SVRT Experiments\SVRT Experiment 3\svrt_images\generated_images\results_problem_19,C:\Users\subject\Desktop\SVRT Experiments\SVRT Experiment 3\svrt_images\generated_images\results_problem_13\sample_1_0014.png,,,,C:\Users\subject\Desktop\SVRT Experiments\SVRT Experiment 3\svrt_images\generated_images\results_problem_4\sample_1_0015.png,C:\Users\subject\Desktop\SVRT Experiments\SVRT Experiment 3\svrt_images\generated_images\results_problem_19\sample_0_0012.png,,,,,,,,,,,,,,,,,,0,5,5,5,0,0,0,0,,,,,,,,,,,,,,j,19,B,B,17,1,Correct!,2.8057794999913312,372.6444753999822,None,372.6444753999822,None,375.47765439999057,None,,,,,67,001,2023-05-18_09h54.41.640,uncolored_shuffled,2021.2.3,59.99912401310403,
C:\Users\subject\Desktop\SVRT Experiments\SVRT Experiment 3\svrt_images\generated_images\results_problem_19,C:\Users\subject\Desktop\SVRT Experiments\SVRT Experiment 3\svrt_images\generated_images\results_problem_13\sample_1_0014.png,,,,C:\Users\subject\Desktop\SVRT Experiments\SVRT Experiment 3\svrt_images\generated_images\results_problem_4\sample_1_0015.png,C:\Users\subject\Desktop\SVRT Experiments\SVRT Experiment 3\svrt_images\generated_images\results_problem_19\sample_0_0015.png,,,,,,,,,,,,,,,,,,0,5,5,5,0,1,1,1,,,,,,,,,,,,,,j,19,B,B,17,1,Correct!,0.7952573000220582,376.5109255000134,None,376.5109255000134,None,377.32753469998715,None,,,,,67,001,2023-05-18_09h54.41.640,uncolored_shuffled,2021.2.3,59.99912401310403,
C:\Users\subject\Desktop\SVRT Experiments\SVRT Experiment 3\svrt_images\generated_images\results_problem_19,C:\Users\subject\Desktop\SVRT Experiments\SVRT Experiment 3\svrt_images\generated_images\results_problem_13\sample_1_0014.png,,,,C:\Users\subject\Desktop\SVRT Experiments\SVRT Experiment 3\svrt_images\generated_images\results_problem_4\sample_1_0015.png,C:\Users\subject\Desktop\SVRT Experiments\SVRT Experiment 3\svrt_images\generated_images\results_problem_19\sample_1_0009.png,,,,,,,,,,,,,,,,,,0,5,5,5,0,2,2,2,,,,,,,,,,,,,,f,19,A,A,17,1,Correct!,0.9932534999679774,378.3608189999941,None,378.3608189999941,None,379.37741269997787,None,,,,,67,001,2023-05-18_09h54.41.640,uncolored_shuffled,2021.2.3,59.99912401310403,
C:\Users\subject\Desktop\SVRT Experiments\SVRT Experiment 3\svrt_images\generated_images\results_problem_19,C:\Users\subject\Desktop\SVRT Experiments\SVRT Experiment 3\svrt_images\generated_images\results_problem_13\sample_1_0014.png,,,,C:\Users\subject\Desktop\SVRT Experiments\SVRT Experiment 3\svrt_images\generated_images\results_problem_4\sample_1_0015.png,C:\Users\subject\Desktop\SVRT Experiments\SVRT Experiment 3\svrt_images\generated_images\results_problem_19\sample_0_0007.png,,,,,,,,,,,,,,,,,,0,5,5,5,0,3,3,3,,,,,,,,,,,,,,f,19,A,B,17,0,Incorrect!,1.7913673000293784,380.41070100001525,None,380.41070100001525,None,382.2272930999752,None,,,,,67,001,2023-05-18_09h54.41.640,uncolored_shuffled,2021.2.3,59.99912401310403,
C:\Users\subject\Desktop\SVRT Experiments\SVRT Experiment 3\svrt_images\generated_images\results_problem_19,C:\Users\subject\Desktop\SVRT Experiments\SVRT Experiment 3\svrt_images\generated_images\results_problem_13\sample_1_0014.png,,,,C:\Users\subject\Desktop\SVRT Experiments\SVRT Experiment 3\svrt_images\generated_images\results_problem_4\sample_1_0015.png,C:\Users\subject\Desktop\SVRT Experiments\SVRT Experiment 3\svrt_images\generated_images\results_problem_19\sample_0_0014.png,,,,,,,,,,,,,,,,,,0,5,5,5,0,4,4,4,,,,,,,,,,,,,,f,19,A,B,17,0,Incorrect!,0.7974270000122488,383.2605811000103,None,383.2605811000103,None,384.0771495999652,None,,,,,67,001,2023-05-18_09h54.41.640,uncolored_shuffled,2021.2.3,59.99912401310403,
C:\Users\subject\Desktop\SVRT Experiments\SVRT Experiment 3\svrt_images\generated_images\results_problem_19,C:\Users\subject\Desktop\SVRT Experiments\SVRT Experiment 3\svrt_images\generated_images\results_problem_13\sample_1_0014.png,,,,C:\Users\subject\Desktop\SVRT Experiments\SVRT Experiment 3\svrt_images\generated_images\results_problem_4\sample_1_0015.png,C:\Users\subject\Desktop\SVRT Experiments\SVRT Experiment 3\svrt_images\generated_images\results_problem_19\sample_0_0002.png,,,,,,,,,,,,,,,,,,0,5,5,5,0,5,5,5,,,,,,,,,,,,,,f,19,A,B,17,0,Incorrect!,0.46772120002424344,385.1104333999683,None,385.1104333999683,None,385.6103902999894,None,,,,,67,001,2023-05-18_09h54.41.640,uncolored_shuffled,2021.2.3,59.99912401310403,
C:\Users\subject\Desktop\SVRT Experiments\SVRT Experiment 3\svrt_images\generated_images\results_problem_19,C:\Users\subject\Desktop\SVRT Experiments\SVRT Experiment 3\svrt_images\generated_images\results_problem_13\sample_1_0014.png,,,,C:\Users\subject\Desktop\SVRT Experiments\SVRT Experiment 3\svrt_images\generated_images\results_problem_4\sample_1_0015.png,C:\Users\subject\Desktop\SVRT Experiments\SVRT Experiment 3\svrt_images\generated_images\results_problem_19\sample_0_0008.png,,,,,,,,,,,,,,,,,,0,5,5,5,0,6,6,6,,,,,,,,,,,,,,f,19,A,B,17,0,Incorrect!,0.3747495000134222,386.64348969998537,None,386.64348969998537,None,387.04363410000224,None,,,,,67,001,2023-05-18_09h54.41.640,uncolored_shuffled,2021.2.3,59.99912401310403,
C:\Users\subject\Desktop\SVRT Experiments\SVRT Experiment 3\svrt_images\generated_images\results_problem_19,C:\Users\subject\Desktop\SVRT Experiments\SVRT Experiment 3\svrt_images\generated_images\results_problem_13\sample_1_0014.png,,,,C:\Users\subject\Desktop\SVRT Experiments\SVRT Experiment 3\svrt_images\generated_images\results_problem_4\sample_1_0015.png,C:\Users\subject\Desktop\SVRT Experiments\SVRT Experiment 3\svrt_images\generated_images\results_problem_19\sample_0_0011.png,,,,,,,,,,,,,,,,,,0,5,5,5,0,7,7,7,,,,,,,,,,,,,,f,19,A,B,17,0,Incorrect!,0.29997890000231564,388.1102369999862,None,388.1102369999862,None,388.44357190001756,None,,,,,67,001,2023-05-18_09h54.41.640,uncolored_shuffled,2021.2.3,59.99912401310403,
C:\Users\subject\Desktop\SVRT Experiments\SVRT Experiment 3\svrt_images\generated_images\results_problem_19,C:\Users\subject\Desktop\SVRT Experiments\SVRT Experiment 3\svrt_images\generated_images\results_problem_13\sample_1_0014.png,,,,C:\Users\subject\Desktop\SVRT Experiments\SVRT Experiment 3\svrt_images\generated_images\results_problem_4\sample_1_0015.png,C:\Users\subject\Desktop\SVRT Experiments\SVRT Experiment 3\svrt_images\generated_images\results_problem_19\sample_1_0008.png,,,,,,,,,,,,,,,,,,0,5,5,5,0,8,8,8,,,,,,,,,,,,,,f,19,A,A,17,1,Correct!,0.03520480002043769,389.526849100017,None,389.526849100017,None,389.5935221000109,None,,,,,67,001,2023-05-18_09h54.41.640,uncolored_shuffled,2021.2.3,59.99912401310403,
C:\Users\subject\Desktop\SVRT Experiments\SVRT Experiment 3\svrt_images\generated_images\results_problem_19,C:\Users\subject\Desktop\SVRT Experiments\SVRT Experiment 3\svrt_images\generated_images\results_problem_13\sample_1_0014.png,,,,C:\Users\subject\Desktop\SVRT Experiments\SVRT Experiment 3\svrt_images\generated_images\results_problem_4\sample_1_0015.png,C:\Users\subject\Desktop\SVRT Experiments\SVRT Experiment 3\svrt_images\generated_images\results_problem_19\sample_0_0000.png,,,,,,,,,,,,,,,,,,0,5,5,5,0,9,9,9,,,,,,,,,,,,,,j,19,B,B,17,1,Correct!,1.07738029997563,390.67679529997986,None,390.67679529997986,None,391.77671259996714,None,,,,,67,001,2023-05-18_09h54.41.640,uncolored_shuffled,2021.2.3,59.99912401310403,
C:\Users\subject\Desktop\SVRT Experiments\SVRT Experiment 3\svrt_images\generated_images\results_problem_19,C:\Users\subject\Desktop\SVRT Experiments\SVRT Experiment 3\svrt_images\generated_images\results_problem_13\sample_1_0014.png,,,,C:\Users\subject\Desktop\SVRT Experiments\SVRT Experiment 3\svrt_images\generated_images\results_problem_4\sample_1_0015.png,C:\Users\subject\Desktop\SVRT Experiments\SVRT Experiment 3\svrt_images\generated_images\results_problem_19\sample_0_0010.png,,,,,,,,,,,,,,,,,,0,5,5,5,0,10,10,10,,,,,,,,,,,,,,f,19,A,B,17,0,Incorrect!,0.4622277999878861,392.860005799972,None,392.860005799972,None,393.34331809997093,None,,,,,67,001,2023-05-18_09h54.41.640,uncolored_shuffled,2021.2.3,59.99912401310403,
C:\Users\subject\Desktop\SVRT Experiments\SVRT Experiment 3\svrt_images\generated_images\results_problem_19,C:\Users\subject\Desktop\SVRT Experiments\SVRT Experiment 3\svrt_images\generated_images\results_problem_13\sample_1_0014.png,,,,C:\Users\subject\Desktop\SVRT Experiments\SVRT Experiment 3\svrt_images\generated_images\results_problem_4\sample_1_0015.png,C:\Users\subject\Desktop\SVRT Experiments\SVRT Experiment 3\svrt_images\generated_images\results_problem_19\sample_1_0004.png,,,,,,,,,,,,,,,,,,0,5,5,5,0,11,11,11,,,,,,,,,,,,,,f,19,A,A,17,1,Correct!,0.30358270002761856,394.4265771000064,None,394.4265771000064,None,394.75989300000947,None,,,,,67,001,2023-05-18_09h54.41.640,uncolored_shuffled,2021.2.3,59.99912401310403,
C:\Users\subject\Desktop\SVRT Experiments\SVRT Experiment 3\svrt_images\generated_images\results_problem_19,C:\Users\subject\Desktop\SVRT Experiments\SVRT Experiment 3\svrt_images\generated_images\results_problem_13\sample_1_0014.png,,,,C:\Users\subject\Desktop\SVRT Experiments\SVRT Experiment 3\svrt_images\generated_images\results_problem_4\sample_1_0015.png,C:\Users\subject\Desktop\SVRT Experiments\SVRT Experiment 3\svrt_images\generated_images\results_problem_19\sample_0_0005.png,,,,,,,,,,,,,,,,,,0,5,5,5,0,12,12,12,,,,,,,,,,,,,,f,19,A,B,17,0,Incorrect!,0.47038139996584505,395.8598256999976,None,395.8598256999976,None,396.3597863999894,None,,,,,67,001,2023-05-18_09h54.41.640,uncolored_shuffled,2021.2.3,59.99912401310403,
C:\Users\subject\Desktop\SVRT Experiments\SVRT Experiment 3\svrt_images\generated_images\results_problem_19,C:\Users\subject\Desktop\SVRT Experiments\SVRT Experiment 3\svrt_images\generated_images\results_problem_13\sample_1_0014.png,,,,C:\Users\subject\Desktop\SVRT Experiments\SVRT Experiment 3\svrt_images\generated_images\results_problem_4\sample_1_0015.png,C:\Users\subject\Desktop\SVRT Experiments\SVRT Experiment 3\svrt_images\generated_images\results_problem_19\sample_0_0001.png,,,,,,,,,,,,,,,,,,0,5,5,5,0,13,13,13,,,,,,,,,,,,,,j,19,B,B,17,1,Correct!,0.48567030002595857,397.4763809000142,None,397.4763809000142,None,398.00972999999067,None,,,,,67,001,2023-05-18_09h54.41.640,uncolored_shuffled,2021.2.3,59.99912401310403,
C:\Users\subject\Desktop\SVRT Experiments\SVRT Experiment 3\svrt_images\generated_images\results_problem_19,C:\Users\subject\Desktop\SVRT Experiments\SVRT Experiment 3\svrt_images\generated_images\results_problem_13\sample_1_0014.png,,,,C:\Users\subject\Desktop\SVRT Experiments\SVRT Experiment 3\svrt_images\generated_images\results_problem_4\sample_1_0015.png,C:\Users\subject\Desktop\SVRT Experiments\SVRT Experiment 3\svrt_images\generated_images\results_problem_19\sample_0_0016.png,,,,,,,,,,,,,,,,,,0,5,5,5,0,14,14,14,,,,,,,,,,,,,,f,19,A,B,17,0,Incorrect!,1.2358960999990813,399.12628909997875,None,399.12628909997875,None,400.4095411999733,None,,,,,67,001,2023-05-18_09h54.41.640,uncolored_shuffled,2021.2.3,59.99912401310403,
C:\Users\subject\Desktop\SVRT Experiments\SVRT Experiment 3\svrt_images\generated_images\results_problem_19,C:\Users\subject\Desktop\SVRT Experiments\SVRT Experiment 3\svrt_images\generated_images\results_problem_13\sample_1_0014.png,,,,C:\Users\subject\Desktop\SVRT Experiments\SVRT Experiment 3\svrt_images\generated_images\results_problem_4\sample_1_0015.png,C:\Users\subject\Desktop\SVRT Experiments\SVRT Experiment 3\svrt_images\generated_images\results_problem_19\sample_0_0006.png,,,,,,,,,,,,,,,,,,0,5,5,5,0,15,15,15,,,,,,,,,,,,,,j,19,B,B,17,1,Correct!,0.595450000022538,401.542792799999,None,401.542792799999,None,402.1594495999743,None,,,,,67,001,2023-05-18_09h54.41.640,uncolored_shuffled,2021.2.3,59.99912401310403,
C:\Users\subject\Desktop\SVRT Experiments\SVRT Experiment 3\svrt_images\generated_images\results_problem_19,C:\Users\subject\Desktop\SVRT Experiments\SVRT Experiment 3\svrt_images\generated_images\results_problem_13\sample_1_0014.png,,,,C:\Users\subject\Desktop\SVRT Experiments\SVRT Experiment 3\svrt_images\generated_images\results_problem_4\sample_1_0015.png,C:\Users\subject\Desktop\SVRT Experiments\SVRT Experiment 3\svrt_images\generated_images\results_problem_19\sample_0_0003.png,,,,,,,,,,,,,,,,,,0,5,5,5,0,16,16,16,,,,,,,,,,,,,,j,19,B,B,17,1,Correct!,0.6208271000068635,403.3093768999679,None,403.3093768999679,None,403.9593359999708,None,,,,,67,001,2023-05-18_09h54.41.640,uncolored_shuffled,2021.2.3,59.99912401310403,
C:\Users\subject\Desktop\SVRT Experiments\SVRT Experiment 3\svrt_images\generated_images\results_problem_19,C:\Users\subject\Desktop\SVRT Experiments\SVRT Experiment 3\svrt_images\generated_images\results_problem_13\sample_1_0014.png,,,,C:\Users\subject\Desktop\SVRT Experiments\SVRT Experiment 3\svrt_images\generated_images\results_problem_4\sample_1_0015.png,C:\Users\subject\Desktop\SVRT Experiments\SVRT Experiment 3\svrt_images\generated_images\results_problem_19\sample_0_0009.png,,,,,,,,,,,,,,,,,,0,5,5,5,0,17,17,17,,,,,,,,,,,,,,f,19,A,B,17,0,Incorrect!,0.7721508999820799,405.12597339996137,None,405.12597339996137,None,405.942563199962,None,,,,,67,001,2023-05-18_09h54.41.640,uncolored_shuffled,2021.2.3,59.99912401310403,
C:\Users\subject\Desktop\SVRT Experiments\SVRT Experiment 3\svrt_images\generated_images\results_problem_19,C:\Users\subject\Desktop\SVRT Experiments\SVRT Experiment 3\svrt_images\generated_images\results_problem_13\sample_1_0014.png,,,,C:\Users\subject\Desktop\SVRT Experiments\SVRT Experiment 3\svrt_images\generated_images\results_problem_4\sample_1_0015.png,C:\Users\subject\Desktop\SVRT Experiments\SVRT Experiment 3\svrt_images\generated_images\results_problem_19\sample_1_0010.png,,,,,,,,,,,,,,,,,,0,5,5,5,0,18,18,18,,,,,,,,,,,,,,f,19,A,A,17,1,Correct!,0.6776716999593191,407.0925321999821,None,407.0925321999821,None,407.8091079000151,None,,,,,67,001,2023-05-18_09h54.41.640,uncolored_shuffled,2021.2.3,59.99912401310403,
C:\Users\subject\Desktop\SVRT Experiments\SVRT Experiment 3\svrt_images\generated_images\results_problem_19,C:\Users\subject\Desktop\SVRT Experiments\SVRT Experiment 3\svrt_images\generated_images\results_problem_13\sample_1_0014.png,,,,C:\Users\subject\Desktop\SVRT Experiments\SVRT Experiment 3\svrt_images\generated_images\results_problem_4\sample_1_0015.png,C:\Users\subject\Desktop\SVRT Experiments\SVRT Experiment 3\svrt_images\generated_images\results_problem_19\sample_1_0006.png,,,,,,,,,,,,,,,,,,0,5,5,5,0,19,19,19,,,,,,,,,,,,,,j,19,B,A,17,0,Incorrect!,0.986506899993401,408.97572879999643,None,408.97572879999643,None,409.99235680000857,None,,,,,67,001,2023-05-18_09h54.41.640,uncolored_shuffled,2021.2.3,59.99912401310403,
C:\Users\subject\Desktop\SVRT Experiments\SVRT Experiment 3\svrt_images\generated_images\results_problem_19,C:\Users\subject\Desktop\SVRT Experiments\SVRT Experiment 3\svrt_images\generated_images\results_problem_13\sample_1_0014.png,,,,C:\Users\subject\Desktop\SVRT Experiments\SVRT Experiment 3\svrt_images\generated_images\results_problem_4\sample_1_0015.png,C:\Users\subject\Desktop\SVRT Experiments\SVRT Experiment 3\svrt_images\generated_images\results_problem_19\sample_1_0011.png,,,,,,,,,,,,,,,,,,0,5,5,5,0,20,20,20,,,,,,,,,,,,,,j,19,B,A,17,0,Incorrect!,0.4826630000025034,411.1755943999742,None,411.1755943999742,None,411.6922171000042,None,,,,,67,001,2023-05-18_09h54.41.640,uncolored_shuffled,2021.2.3,59.99912401310403,
C:\Users\subject\Desktop\SVRT Experiments\SVRT Experiment 3\svrt_images\generated_images\results_problem_19,C:\Users\subject\Desktop\SVRT Experiments\SVRT Experiment 3\svrt_images\generated_images\results_problem_13\sample_1_0014.png,,,,C:\Users\subject\Desktop\SVRT Experiments\SVRT Experiment 3\svrt_images\generated_images\results_problem_4\sample_1_0015.png,C:\Users\subject\Desktop\SVRT Experiments\SVRT Experiment 3\svrt_images\generated_images\results_problem_19\sample_0_0004.png,,,,,,,,,,,,,,,,,,0,5,5,5,0,21,21,21,,,,,,,,,,,,,,j,19,B,B,17,1,Correct!,0.46273530001053587,412.8755036999937,None,412.8755036999937,None,413.3921219999902,None,,,,,67,001,2023-05-18_09h54.41.640,uncolored_shuffled,2021.2.3,59.99912401310403,
C:\Users\subject\Desktop\SVRT Experiments\SVRT Experiment 3\svrt_images\generated_images\results_problem_19,C:\Users\subject\Desktop\SVRT Experiments\SVRT Experiment 3\svrt_images\generated_images\results_problem_13\sample_1_0014.png,,,,C:\Users\subject\Desktop\SVRT Experiments\SVRT Experiment 3\svrt_images\generated_images\results_problem_4\sample_1_0015.png,C:\Users\subject\Desktop\SVRT Experiments\SVRT Experiment 3\svrt_images\generated_images\results_problem_19\sample_1_0016.png,,,,,,,,,,,,,,,,,,0,5,5,5,0,22,22,22,,,,,,,,,,,,,,f,19,A,A,17,1,Correct!,0.4421734999632463,414.592058499984,None,414.592058499984,None,415.0586984999827,None,,,,,67,001,2023-05-18_09h54.41.640,uncolored_shuffled,2021.2.3,59.99912401310403,
C:\Users\subject\Desktop\SVRT Experiments\SVRT Experiment 3\svrt_images\generated_images\results_problem_19,C:\Users\subject\Desktop\SVRT Experiments\SVRT Experiment 3\svrt_images\generated_images\results_problem_13\sample_1_0014.png,,,,C:\Users\subject\Desktop\SVRT Experiments\SVRT Experiment 3\svrt_images\generated_images\results_problem_4\sample_1_0015.png,C:\Users\subject\Desktop\SVRT Experiments\SVRT Experiment 3\svrt_images\generated_images\results_problem_19\sample_1_0000.png,,,,,,,,,,,,,,,,,,0,5,5,5,0,23,23,23,,,,,,,,,,,,,,f,19,A,A,17,1,Correct!,0.37477730005048215,416.27530149999075,None,416.27530149999075,None,416.6919308999786,None,,,,,67,001,2023-05-18_09h54.41.640,uncolored_shuffled,2021.2.3,59.99912401310403,
C:\Users\subject\Desktop\SVRT Experiments\SVRT Experiment 3\svrt_images\generated_images\results_problem_19,C:\Users\subject\Desktop\SVRT Experiments\SVRT Experiment 3\svrt_images\generated_images\results_problem_13\sample_1_0014.png,,,,C:\Users\subject\Desktop\SVRT Experiments\SVRT Experiment 3\svrt_images\generated_images\results_problem_4\sample_1_0015.png,C:\Users\subject\Desktop\SVRT Experiments\SVRT Experiment 3\svrt_images\generated_images\results_problem_19\sample_1_0007.png,,,,,,,,,,,,,,,,,,0,5,5,5,0,24,24,24,,,,,,,,,,,,,,j,19,B,A,17,0,Incorrect!,0.32558570004766807,417.908534999995,None,417.908534999995,None,418.2751813000068,None,,,,,67,001,2023-05-18_09h54.41.640,uncolored_shuffled,2021.2.3,59.99912401310403,
C:\Users\subject\Desktop\SVRT Experiments\SVRT Experiment 3\svrt_images\generated_images\results_problem_19,C:\Users\subject\Desktop\SVRT Experiments\SVRT Experiment 3\svrt_images\generated_images\results_problem_13\sample_1_0014.png,,,,C:\Users\subject\Desktop\SVRT Experiments\SVRT Experiment 3\svrt_images\generated_images\results_problem_4\sample_1_0015.png,C:\Users\subject\Desktop\SVRT Experiments\SVRT Experiment 3\svrt_images\generated_images\results_problem_19\sample_1_0001.png,,,,,,,,,,,,,,,,,,0,5,5,5,0,25,25,25,,,,,,,,,,,,,,j,19,B,A,17,0,Incorrect!,0.3577299999888055,419.50845169997774,None,419.50845169997774,None,419.92506939999294,None,,,,,67,001,2023-05-18_09h54.41.640,uncolored_shuffled,2021.2.3,59.99912401310403,
C:\Users\subject\Desktop\SVRT Experiments\SVRT Experiment 3\svrt_images\generated_images\results_problem_19,C:\Users\subject\Desktop\SVRT Experiments\SVRT Experiment 3\svrt_images\generated_images\results_problem_13\sample_1_0014.png,,,,C:\Users\subject\Desktop\SVRT Experiments\SVRT Experiment 3\svrt_images\generated_images\results_problem_4\sample_1_0015.png,C:\Users\subject\Desktop\SVRT Experiments\SVRT Experiment 3\svrt_images\generated_images\results_problem_19\sample_1_0015.png,,,,,,,,,,,,,,,,,,0,5,5,5,0,26,26,26,,,,,,,,,,,,,,j,19,B,A,17,0,Incorrect!,0.30784520000452176,421.1583740999922,None,421.1583740999922,None,421.52495250001084,None,,,,,67,001,2023-05-18_09h54.41.640,uncolored_shuffled,2021.2.3,59.99912401310403,
C:\Users\subject\Desktop\SVRT Experiments\SVRT Experiment 3\svrt_images\generated_images\results_problem_19,C:\Users\subject\Desktop\SVRT Experiments\SVRT Experiment 3\svrt_images\generated_images\results_problem_13\sample_1_0014.png,,,,C:\Users\subject\Desktop\SVRT Experiments\SVRT Experiment 3\svrt_images\generated_images\results_problem_4\sample_1_0015.png,C:\Users\subject\Desktop\SVRT Experiments\SVRT Experiment 3\svrt_images\generated_images\results_problem_19\sample_1_0014.png,,,,,,,,,,,,,,,,,,0,5,5,5,0,27,27,27,,,,,,,,,,,,,,j,19,B,A,17,0,Incorrect!,0.25999319995753467,422.7582447999739,None,422.7582447999739,None,423.04155650001485,None,,,,,67,001,2023-05-18_09h54.41.640,uncolored_shuffled,2021.2.3,59.99912401310403,
C:\Users\subject\Desktop\SVRT Experiments\SVRT Experiment 3\svrt_images\generated_images\results_problem_19,C:\Users\subject\Desktop\SVRT Experiments\SVRT Experiment 3\svrt_images\generated_images\results_problem_13\sample_1_0014.png,,,,C:\Users\subject\Desktop\SVRT Experiments\SVRT Experiment 3\svrt_images\generated_images\results_problem_4\sample_1_0015.png,C:\Users\subject\Desktop\SVRT Experiments\SVRT Experiment 3\svrt_images\generated_images\results_problem_19\sample_1_0012.png,,,,,,,,,,,,,,,,,,0,5,5,5,0,28,28,28,,,,,,,,,,,,,,f,19,A,A,17,1,Correct!,0.3740811999887228,424.3081531999633,None,424.3081531999633,None,424.7247903000098,None,,,,,67,001,2023-05-18_09h54.41.640,uncolored_shuffled,2021.2.3,59.99912401310403,
