folder,results_problem_13,results_problem_7,results_problem_2,results_problem_17,results_problem_4,results_problem_19,results_problem_10,results_problem_11,results_problem_22,results_problem_5,results_problem_20,results_problem_12,results_problem_18,results_problem_21,results_problem_6,results_problem_8,results_problem_14,results_problem_16,results_problem_9,results_problem_1,results_problem_23,results_problem_3,results_problem_15,categories.thisRepN,categories.thisTrialN,categories.thisN,categories.thisIndex,trials.thisRepN,trials.thisTrialN,trials.thisN,trials.thisIndex,consent_text.started,consent_kb.started,consent_kb.keys,consent_kb.rt,Gender.keys,Gender.rt,Age,instructions_text.started,instructions_text.stopped,instructions_kb.keys,instructions_kb.rt,instructions_kb.started,instructions_kb.stopped,trial_kb.keys,current_problem_num,category_resp,answer,seed,accuracy,feedback,trial_kb.rt,trial_kb.started,trial_kb.stopped,trial_image.started,trial_image.stopped,feedback_text.started,feedback_text.stopped,new_problem_kb.started,new_problem_text.started,new_problem_kb.keys,new_problem_kb.rt,Participant #,session,date,expName,psychopyVersion,frameRate,
,,,,,,,,,,,,,,,,,,,,,,,,,,,,,,,,5.340781499980949,5.340781499980949,y,29.01567100000102,,,,,,,,,,,,,,,,,,,,,,,,,,,,68,001,2023-05-18_10h11.43.319,uncolored_sorted,2021.2.3,59.950313185943955,
,,,,,,,,,,,,,,,,,,,,,,,,,,,,,,,,,,,,m,15.573707600007765,,,,,,,,,,,,,,,,,,,,,,,,,,68,001,2023-05-18_10h11.43.319,uncolored_sorted,2021.2.3,59.950313185943955,
,,,,,,,,,,,,,,,,,,,,,,,,,,,,,,,,,,,,,,0,79.82553470000857,None,space,48.434262899972964,79.82553470000857,None,,,,,,,,,,,,,,,,,,,68,001,2023-05-18_10h11.43.319,uncolored_sorted,2021.2.3,59.950313185943955,
C:\Users\subject\Desktop\SVRT Experiments\SVRT Experiment 3\svrt_images\generated_images\results_problem_13,C:\Users\subject\Desktop\SVRT Experiments\SVRT Experiment 3\svrt_images\generated_images\results_problem_13\sample_0_0001.png,,,,,,,,,,,,,,,,,,,,,,,0,0,0,0,0,0,0,0,,,,,,,,,,,,,,f,13,A,B,17,0,Incorrect!,93.32446060003713,128.27874129998963,None,128.27874129998963,None,221.63245169998845,None,,,,,68,001,2023-05-18_10h11.43.319,uncolored_sorted,2021.2.3,59.950313185943955,
C:\Users\subject\Desktop\SVRT Experiments\SVRT Experiment 3\svrt_images\generated_images\results_problem_13,C:\Users\subject\Desktop\SVRT Experiments\SVRT Experiment 3\svrt_images\generated_images\results_problem_13\sample_1_0016.png,,,,,,,,,,,,,,,,,,,,,,,0,0,0,0,0,1,1,1,,,,,,,,,,,,,,f,13,A,A,17,1,Correct!,46.61754070001189,222.63320699997712,None,222.63320699997712,None,269.26837020000676,None,,,,,68,001,2023-05-18_10h11.43.319,uncolored_sorted,2021.2.3,59.950313185943955,
C:\Users\subject\Desktop\SVRT Experiments\SVRT Experiment 3\svrt_images\generated_images\results_problem_13,C:\Users\subject\Desktop\SVRT Experiments\SVRT Experiment 3\svrt_images\generated_images\results_problem_13\sample_1_0008.png,,,,,,,,,,,,,,,,,,,,,,,0,0,0,0,0,2,2,2,,,,,,,,,,,,,,f,13,A,A,17,1,Correct!,65.16443689999869,270.2858348999871,None,270.2858348999871,None,335.46830399998,None,,,,,68,001,2023-05-18_10h11.43.319,uncolored_sorted,2021.2.3,59.950313185943955,
C:\Users\subject\Desktop\SVRT Experiments\SVRT Experiment 3\svrt_images\generated_images\results_problem_13,C:\Users\subject\Desktop\SVRT Experiments\SVRT Experiment 3\svrt_images\generated_images\results_problem_13\sample_1_0012.png,,,,,,,,,,,,,,,,,,,,,,,0,0,0,0,0,3,3,3,,,,,,,,,,,,,,j,13,B,A,17,0,Incorrect!,2.652474600006826,336.48572799999965,None,336.48572799999965,None,339.1710582000087,None,,,,,68,001,2023-05-18_10h11.43.319,uncolored_sorted,2021.2.3,59.950313185943955,
C:\Users\subject\Desktop\SVRT Experiments\SVRT Experiment 3\svrt_images\generated_images\results_problem_13,C:\Users\subject\Desktop\SVRT Experiments\SVRT Experiment 3\svrt_images\generated_images\results_problem_13\sample_1_0010.png,,,,,,,,,,,,,,,,,,,,,,,0,0,0,0,0,4,4,4,,,,,,,,,,,,,,f,13,A,A,17,1,Correct!,4.181128899974283,340.2051685000188,None,340.2051685000188,None,344.4083534000092,None,,,,,68,001,2023-05-18_10h11.43.319,uncolored_sorted,2021.2.3,59.950313185943955,
C:\Users\subject\Desktop\SVRT Experiments\SVRT Experiment 3\svrt_images\generated_images\results_problem_13,C:\Users\subject\Desktop\SVRT Experiments\SVRT Experiment 3\svrt_images\generated_images\results_problem_13\sample_0_0000.png,,,,,,,,,,,,,,,,,,,,,,,0,0,0,0,0,5,5,5,,,,,,,,,,,,,,f,13,A,B,17,0,Incorrect!,4.487650899973232,345.4424931000103,None,345.4424931000103,None,349.9625460000243,None,,,,,68,001,2023-05-18_10h11.43.319,uncolored_sorted,2021.2.3,59.950313185943955,
C:\Users\subject\Desktop\SVRT Experiments\SVRT Experiment 3\svrt_images\generated_images\results_problem_13,C:\Users\subject\Desktop\SVRT Experiments\SVRT Experiment 3\svrt_images\generated_images\results_problem_13\sample_1_0006.png,,,,,,,,,,,,,,,,,,,,,,,0,0,0,0,0,6,6,6,,,,,,,,,,,,,,j,13,B,A,17,0,Incorrect!,1.5088787999702618,351.01336390001234,None,351.01336390001234,None,352.54784409998683,None,,,,,68,001,2023-05-18_10h11.43.319,uncolored_sorted,2021.2.3,59.950313185943955,
C:\Users\subject\Desktop\SVRT Experiments\SVRT Experiment 3\svrt_images\generated_images\results_problem_13,C:\Users\subject\Desktop\SVRT Experiments\SVRT Experiment 3\svrt_images\generated_images\results_problem_13\sample_0_0014.png,,,,,,,,,,,,,,,,,,,,,,,0,0,0,0,0,7,7,7,,,,,,,,,,,,,,j,13,B,B,17,1,Correct!,0.8115167000214569,353.59864159999415,None,353.59864159999415,None,354.432599199994,None,,,,,68,001,2023-05-18_10h11.43.319,uncolored_sorted,2021.2.3,59.950313185943955,
C:\Users\subject\Desktop\SVRT Experiments\SVRT Experiment 3\svrt_images\generated_images\results_problem_13,C:\Users\subject\Desktop\SVRT Experiments\SVRT Experiment 3\svrt_images\generated_images\results_problem_13\sample_1_0005.png,,,,,,,,,,,,,,,,,,,,,,,0,0,0,0,0,8,8,8,,,,,,,,,,,,,,j,13,B,A,17,0,Incorrect!,50.33371039998019,355.50007569999434,None,355.50007569999434,None,405.8547050000052,None,,,,,68,001,2023-05-18_10h11.43.319,uncolored_sorted,2021.2.3,59.950313185943955,
C:\Users\subject\Desktop\SVRT Experiments\SVRT Experiment 3\svrt_images\generated_images\results_problem_13,C:\Users\subject\Desktop\SVRT Experiments\SVRT Experiment 3\svrt_images\generated_images\results_problem_13\sample_0_0013.png,,,,,,,,,,,,,,,,,,,,,,,0,0,0,0,0,9,9,9,,,,,,,,,,,,,,j,13,B,B,17,1,Correct!,5.727534000005107,406.92216160002863,None,406.92216160002863,None,412.6764678999898,None,,,,,68,001,2023-05-18_10h11.43.319,uncolored_sorted,2021.2.3,59.950313185943955,
C:\Users\subject\Desktop\SVRT Experiments\SVRT Experiment 3\svrt_images\generated_images\results_problem_13,C:\Users\subject\Desktop\SVRT Experiments\SVRT Experiment 3\svrt_images\generated_images\results_problem_13\sample_1_0001.png,,,,,,,,,,,,,,,,,,,,,,,0,0,0,0,0,10,10,10,,,,,,,,,,,,,,j,13,B,A,17,0,Incorrect!,10.56095270003425,413.76065940002445,None,413.76065940002445,None,424.35193539998727,None,,,,,68,001,2023-05-18_10h11.43.319,uncolored_sorted,2021.2.3,59.950313185943955,
C:\Users\subject\Desktop\SVRT Experiments\SVRT Experiment 3\svrt_images\generated_images\results_problem_13,C:\Users\subject\Desktop\SVRT Experiments\SVRT Experiment 3\svrt_images\generated_images\results_problem_13\sample_1_0015.png,,,,,,,,,,,,,,,,,,,,,,,0,0,0,0,0,11,11,11,,,,,,,,,,,,,,j,13,B,A,17,0,Incorrect!,0.47748120001051575,425.43611569999484,None,425.43611569999484,None,425.93650220002746,None,,,,,68,001,2023-05-18_10h11.43.319,uncolored_sorted,2021.2.3,59.950313185943955,
C:\Users\subject\Desktop\SVRT Experiments\SVRT Experiment 3\svrt_images\generated_images\results_problem_13,C:\Users\subject\Desktop\SVRT Experiments\SVRT Experiment 3\svrt_images\generated_images\results_problem_13\sample_1_0004.png,,,,,,,,,,,,,,,,,,,,,,,0,0,0,0,0,12,12,12,,,,,,,,,,,,,,f,13,A,A,17,1,Correct!,4.444278199982364,427.03732599999057,None,427.03732599999057,None,431.50737280002795,None,,,,,68,001,2023-05-18_10h11.43.319,uncolored_sorted,2021.2.3,59.950313185943955,
C:\Users\subject\Desktop\SVRT Experiments\SVRT Experiment 3\svrt_images\generated_images\results_problem_13,C:\Users\subject\Desktop\SVRT Experiments\SVRT Experiment 3\svrt_images\generated_images\results_problem_13\sample_1_0007.png,,,,,,,,,,,,,,,,,,,,,,,0,0,0,0,0,13,13,13,,,,,,,,,,,,,,f,13,A,A,17,1,Correct!,0.5287174000404775,432.6248821000336,None,432.6248821000336,None,433.17528520000633,None,,,,,68,001,2023-05-18_10h11.43.319,uncolored_sorted,2021.2.3,59.950313185943955,
C:\Users\subject\Desktop\SVRT Experiments\SVRT Experiment 3\svrt_images\generated_images\results_problem_13,C:\Users\subject\Desktop\SVRT Experiments\SVRT Experiment 3\svrt_images\generated_images\results_problem_13\sample_0_0006.png,,,,,,,,,,,,,,,,,,,,,,,0,0,0,0,0,14,14,14,,,,,,,,,,,,,,j,13,B,B,17,1,Correct!,0.8287495999829844,434.2928006000002,None,434.2928006000002,None,435.14342380000744,None,,,,,68,001,2023-05-18_10h11.43.319,uncolored_sorted,2021.2.3,59.950313185943955,
C:\Users\subject\Desktop\SVRT Experiments\SVRT Experiment 3\svrt_images\generated_images\results_problem_13,C:\Users\subject\Desktop\SVRT Experiments\SVRT Experiment 3\svrt_images\generated_images\results_problem_13\sample_0_0010.png,,,,,,,,,,,,,,,,,,,,,,,0,0,0,0,0,15,15,15,,,,,,,,,,,,,,j,13,B,B,17,1,Correct!,0.571913699968718,436.27764270000625,None,436.27764270000625,None,436.878090800019,None,,,,,68,001,2023-05-18_10h11.43.319,uncolored_sorted,2021.2.3,59.950313185943955,
C:\Users\subject\Desktop\SVRT Experiments\SVRT Experiment 3\svrt_images\generated_images\results_problem_13,C:\Users\subject\Desktop\SVRT Experiments\SVRT Experiment 3\svrt_images\generated_images\results_problem_13\sample_0_0011.png,,,,,,,,,,,,,,,,,,,,,,,0,0,0,0,0,16,16,16,,,,,,,,,,,,,,f,13,A,B,17,0,Incorrect!,0.549514900019858,438.01225339999655,None,438.01225339999655,None,438.5793702999945,None,,,,,68,001,2023-05-18_10h11.43.319,uncolored_sorted,2021.2.3,59.950313185943955,
C:\Users\subject\Desktop\SVRT Experiments\SVRT Experiment 3\svrt_images\generated_images\results_problem_13,C:\Users\subject\Desktop\SVRT Experiments\SVRT Experiment 3\svrt_images\generated_images\results_problem_13\sample_1_0002.png,,,,,,,,,,,,,,,,,,,,,,,0,0,0,0,0,17,17,17,,,,,,,,,,,,,,j,13,B,A,17,0,Incorrect!,0.43931659997906536,439.7302341000177,None,439.7302341000177,None,440.2139372000238,None,,,,,68,001,2023-05-18_10h11.43.319,uncolored_sorted,2021.2.3,59.950313185943955,
C:\Users\subject\Desktop\SVRT Experiments\SVRT Experiment 3\svrt_images\generated_images\results_problem_13,C:\Users\subject\Desktop\SVRT Experiments\SVRT Experiment 3\svrt_images\generated_images\results_problem_13\sample_0_0008.png,,,,,,,,,,,,,,,,,,,,,,,0,0,0,0,0,18,18,18,,,,,,,,,,,,,,f,13,A,B,17,0,Incorrect!,0.4847133999573998,441.3648129000212,None,441.3648129000212,None,441.88186800002586,None,,,,,68,001,2023-05-18_10h11.43.319,uncolored_sorted,2021.2.3,59.950313185943955,
C:\Users\subject\Desktop\SVRT Experiments\SVRT Experiment 3\svrt_images\generated_images\results_problem_13,C:\Users\subject\Desktop\SVRT Experiments\SVRT Experiment 3\svrt_images\generated_images\results_problem_13\sample_0_0009.png,,,,,,,,,,,,,,,,,,,,,,,0,0,0,0,0,19,19,19,,,,,,,,,,,,,,j,13,B,B,17,1,Correct!,0.528040700010024,443.04940989997704,None,443.04940989997704,None,443.5998241000343,None,,,,,68,001,2023-05-18_10h11.43.319,uncolored_sorted,2021.2.3,59.950313185943955,
C:\Users\subject\Desktop\SVRT Experiments\SVRT Experiment 3\svrt_images\generated_images\results_problem_13,C:\Users\subject\Desktop\SVRT Experiments\SVRT Experiment 3\svrt_images\generated_images\results_problem_13\sample_1_0009.png,,,,,,,,,,,,,,,,,,,,,,,0,0,0,0,0,20,20,20,,,,,,,,,,,,,,j,13,B,A,17,0,Incorrect!,0.3461299000191502,444.7673794000293,None,444.7673794000293,None,445.1509917000076,None,,,,,68,001,2023-05-18_10h11.43.319,uncolored_sorted,2021.2.3,59.950313185943955,
C:\Users\subject\Desktop\SVRT Experiments\SVRT Experiment 3\svrt_images\generated_images\results_problem_13,C:\Users\subject\Desktop\SVRT Experiments\SVRT Experiment 3\svrt_images\generated_images\results_problem_13\sample_1_0014.png,,,,,,,,,,,,,,,,,,,,,,,0,0,0,0,0,21,21,21,,,,,,,,,,,,,,j,13,B,A,17,0,Incorrect!,0.38636599999153987,446.3352136000176,None,446.3352136000176,None,446.75217420002446,None,,,,,68,001,2023-05-18_10h11.43.319,uncolored_sorted,2021.2.3,59.950313185943955,
C:\Users\subject\Desktop\SVRT Experiments\SVRT Experiment 3\svrt_images\generated_images\results_problem_13,C:\Users\subject\Desktop\SVRT Experiments\SVRT Experiment 3\svrt_images\generated_images\results_problem_13\sample_0_0003.png,,,,,,,,,,,,,,,,,,,,,,,0,0,0,0,0,22,22,22,,,,,,,,,,,,,,f,13,A,B,17,0,Incorrect!,0.36038229998666793,447.95310829998925,None,447.95310829998925,None,448.33672550000483,None,,,,,68,001,2023-05-18_10h11.43.319,uncolored_sorted,2021.2.3,59.950313185943955,
C:\Users\subject\Desktop\SVRT Experiments\SVRT Experiment 3\svrt_images\generated_images\results_problem_13,C:\Users\subject\Desktop\SVRT Experiments\SVRT Experiment 3\svrt_images\generated_images\results_problem_13\sample_1_0013.png,,,,,,,,,,,,,,,,,,,,,,,0,0,0,0,0,23,23,23,,,,,,,,,,,,,,f,13,A,A,17,1,Correct!,0.36782109999330714,449.5376383999828,None,449.5376383999828,None,449.954616300005,None,,,,,68,001,2023-05-18_10h11.43.319,uncolored_sorted,2021.2.3,59.950313185943955,
C:\Users\subject\Desktop\SVRT Experiments\SVRT Experiment 3\svrt_images\generated_images\results_problem_13,C:\Users\subject\Desktop\SVRT Experiments\SVRT Experiment 3\svrt_images\generated_images\results_problem_13\sample_0_0015.png,,,,,,,,,,,,,,,,,,,,,,,0,0,0,0,0,24,24,24,,,,,,,,,,,,,,f,13,A,B,17,0,Incorrect!,0.924609599984251,451.1888492000289,None,451.1888492000289,None,452.1562766000279,None,,,,,68,001,2023-05-18_10h11.43.319,uncolored_sorted,2021.2.3,59.950313185943955,
C:\Users\subject\Desktop\SVRT Experiments\SVRT Experiment 3\svrt_images\generated_images\results_problem_13,C:\Users\subject\Desktop\SVRT Experiments\SVRT Experiment 3\svrt_images\generated_images\results_problem_13\sample_0_0012.png,,,,,,,,,,,,,,,,,,,,,,,0,0,0,0,0,25,25,25,,,,,,,,,,,,,,f,13,A,B,17,0,Incorrect!,0.8268808000138961,453.39053969999077,None,453.39053969999077,None,454.2411723000114,None,,,,,68,001,2023-05-18_10h11.43.319,uncolored_sorted,2021.2.3,59.950313185943955,
C:\Users\subject\Desktop\SVRT Experiments\SVRT Experiment 3\svrt_images\generated_images\results_problem_13,C:\Users\subject\Desktop\SVRT Experiments\SVRT Experiment 3\svrt_images\generated_images\results_problem_13\sample_0_0007.png,,,,,,,,,,,,,,,,,,,,,,,0,0,0,0,0,26,26,26,,,,,,,,,,,,,,j,13,B,B,17,1,Correct!,0.3099908000440337,455.4754481000127,None,455.4754481000127,None,455.8257191000157,None,,,,,68,001,2023-05-18_10h11.43.319,uncolored_sorted,2021.2.3,59.950313185943955,
C:\Users\subject\Desktop\SVRT Experiments\SVRT Experiment 3\svrt_images\generated_images\results_problem_13,C:\Users\subject\Desktop\SVRT Experiments\SVRT Experiment 3\svrt_images\generated_images\results_problem_13\sample_1_0011.png,,,,,,,,,,,,,,,,,,,,,,,0,0,0,0,0,27,27,27,,,,,,,,,,,,,,j,13,B,A,17,0,Incorrect!,0.43679180002072826,457.07665330002783,None,457.07665330002783,None,457.54366640001535,None,,,,,68,001,2023-05-18_10h11.43.319,uncolored_sorted,2021.2.3,59.950313185943955,
C:\Users\subject\Desktop\SVRT Experiments\SVRT Experiment 3\svrt_images\generated_images\results_problem_13,C:\Users\subject\Desktop\SVRT Experiments\SVRT Experiment 3\svrt_images\generated_images\results_problem_13\sample_0_0016.png,,,,,,,,,,,,,,,,,,,,,,,0,0,0,0,0,28,28,28,,,,,,,,,,,,,,j,13,B,B,17,1,Correct!,48.8777548999642,458.81129779998446,None,458.81129779998446,None,507.71482220001053,None,,,,,68,001,2023-05-18_10h11.43.319,uncolored_sorted,2021.2.3,59.950313185943955,
C:\Users\subject\Desktop\SVRT Experiments\SVRT Experiment 3\svrt_images\generated_images\results_problem_13,C:\Users\subject\Desktop\SVRT Experiments\SVRT Experiment 3\svrt_images\generated_images\results_problem_13\sample_1_0003.png,,,,,,,,,,,,,,,,,,,,,,,0,0,0,0,0,29,29,29,,,,,,,,,,,,,,f,13,A,A,17,1,Correct!,1.553991099994164,508.99913499999093,None,508.99913499999093,None,510.6170134000131,None,,,,,68,001,2023-05-18_10h11.43.319,uncolored_sorted,2021.2.3,59.950313185943955,
C:\Users\subject\Desktop\SVRT Experiments\SVRT Experiment 3\svrt_images\generated_images\results_problem_13,C:\Users\subject\Desktop\SVRT Experiments\SVRT Experiment 3\svrt_images\generated_images\results_problem_13\sample_1_0000.png,,,,,,,,,,,,,,,,,,,,,,,0,0,0,0,0,30,30,30,,,,,,,,,,,,,,f,13,A,A,17,1,Correct!,0.7716903000255115,511.9013167999801,None,511.9013167999801,None,512.7352737000328,None,,,,,68,001,2023-05-18_10h11.43.319,uncolored_sorted,2021.2.3,59.950313185943955,
C:\Users\subject\Desktop\SVRT Experiments\SVRT Experiment 3\svrt_images\generated_images\results_problem_13,C:\Users\subject\Desktop\SVRT Experiments\SVRT Experiment 3\svrt_images\generated_images\results_problem_13\sample_0_0004.png,,,,,,,,,,,,,,,,,,,,,,,0,0,0,0,0,31,31,31,,,,,,,,,,,,,,f,13,A,B,17,0,Incorrect!,1.1167562000337057,514.0362664000131,None,514.0362664000131,None,515.2204649000196,None,,,,,68,001,2023-05-18_10h11.43.319,uncolored_sorted,2021.2.3,59.950313185943955,
C:\Users\subject\Desktop\SVRT Experiments\SVRT Experiment 3\svrt_images\generated_images\results_problem_13,C:\Users\subject\Desktop\SVRT Experiments\SVRT Experiment 3\svrt_images\generated_images\results_problem_13\sample_0_0005.png,,,,,,,,,,,,,,,,,,,,,,,0,0,0,0,0,32,32,32,,,,,,,,,,,,,,j,13,B,B,17,1,Correct!,14.094687399978284,516.5381590999896,None,516.5381590999896,None,530.6987971999915,None,,,,,68,001,2023-05-18_10h11.43.319,uncolored_sorted,2021.2.3,59.950313185943955,
C:\Users\subject\Desktop\SVRT Experiments\SVRT Experiment 3\svrt_images\generated_images\results_problem_13,C:\Users\subject\Desktop\SVRT Experiments\SVRT Experiment 3\svrt_images\generated_images\results_problem_13\sample_0_0002.png,,,,,,,,,,,,,,,,,,,,,,,0,0,0,0,0,33,33,33,,,,,,,,,,,,,,j,13,B,B,17,1,Correct!,2.3683353000087664,532.0164797999896,None,532.0164797999896,None,534.4349481000099,None,,,,,68,001,2023-05-18_10h11.43.319,uncolored_sorted,2021.2.3,59.950313185943955,
C:\Users\subject\Desktop\SVRT Experiments\SVRT Experiment 3\svrt_images\generated_images\results_problem_13,,,,,,,,,,,,,,,,,,,,,,,,0,0,0,0,,,,,,,,,,,,,,,,,,,,,,,,,,,,,,,,535.4357205000124,535.4357205000124,space,3.0370753000024706,68,001,2023-05-18_10h11.43.319,uncolored_sorted,2021.2.3,59.950313185943955,
C:\Users\subject\Desktop\SVRT Experiments\SVRT Experiment 3\svrt_images\generated_images\results_problem_7,,C:\Users\subject\Desktop\SVRT Experiments\SVRT Experiment 3\svrt_images\generated_images\results_problem_7\sample_0_0003.png,,,,,,,,,,,,,,,,,,,,,,0,1,1,1,0,0,0,0,,,,,,,,,,,,,,j,7,B,B,17,1,Correct!,8.952054900000803,538.504686100001,None,538.504686100001,None,547.4781316000153,None,,,,,68,001,2023-05-18_10h11.43.319,uncolored_sorted,2021.2.3,59.950313185943955,
C:\Users\subject\Desktop\SVRT Experiments\SVRT Experiment 3\svrt_images\generated_images\results_problem_7,,C:\Users\subject\Desktop\SVRT Experiments\SVRT Experiment 3\svrt_images\generated_images\results_problem_7\sample_0_0008.png,,,,,,,,,,,,,,,,,,,,,,0,1,1,1,0,1,1,1,,,,,,,,,,,,,,f,7,A,B,17,0,Incorrect!,4.329806399997324,548.4788834999781,None,548.4788834999781,None,552.8321560000186,None,,,,,68,001,2023-05-18_10h11.43.319,uncolored_sorted,2021.2.3,59.950313185943955,
C:\Users\subject\Desktop\SVRT Experiments\SVRT Experiment 3\svrt_images\generated_images\results_problem_7,,C:\Users\subject\Desktop\SVRT Experiments\SVRT Experiment 3\svrt_images\generated_images\results_problem_7\sample_0_0013.png,,,,,,,,,,,,,,,,,,,,,,0,1,1,1,0,2,2,2,,,,,,,,,,,,,,f,7,A,B,17,0,Incorrect!,2.1510698000201955,553.8495915000094,None,553.8495915000094,None,556.0179042000091,None,,,,,68,001,2023-05-18_10h11.43.319,uncolored_sorted,2021.2.3,59.950313185943955,
C:\Users\subject\Desktop\SVRT Experiments\SVRT Experiment 3\svrt_images\generated_images\results_problem_7,,C:\Users\subject\Desktop\SVRT Experiments\SVRT Experiment 3\svrt_images\generated_images\results_problem_7\sample_1_0010.png,,,,,,,,,,,,,,,,,,,,,,0,1,1,1,0,3,3,3,,,,,,,,,,,,,,j,7,B,A,17,0,Incorrect!,0.4373316999990493,557.0353450999828,None,557.0353450999828,None,557.5023343000212,None,,,,,68,001,2023-05-18_10h11.43.319,uncolored_sorted,2021.2.3,59.950313185943955,
C:\Users\subject\Desktop\SVRT Experiments\SVRT Experiment 3\svrt_images\generated_images\results_problem_7,,C:\Users\subject\Desktop\SVRT Experiments\SVRT Experiment 3\svrt_images\generated_images\results_problem_7\sample_1_0013.png,,,,,,,,,,,,,,,,,,,,,,0,1,1,1,0,4,4,4,,,,,,,,,,,,,,f,7,A,A,17,1,Correct!,9.520093900035135,558.5364832999767,None,558.5364832999767,None,568.0769733000197,None,,,,,68,001,2023-05-18_10h11.43.319,uncolored_sorted,2021.2.3,59.950313185943955,
C:\Users\subject\Desktop\SVRT Experiments\SVRT Experiment 3\svrt_images\generated_images\results_problem_7,,C:\Users\subject\Desktop\SVRT Experiments\SVRT Experiment 3\svrt_images\generated_images\results_problem_7\sample_0_0014.png,,,,,,,,,,,,,,,,,,,,,,0,1,1,1,0,5,5,5,,,,,,,,,,,,,,j,7,B,B,17,1,Correct!,16.513354199996684,569.111112100014,None,569.111112100014,None,585.656916900014,None,,,,,68,001,2023-05-18_10h11.43.319,uncolored_sorted,2021.2.3,59.950313185943955,
C:\Users\subject\Desktop\SVRT Experiments\SVRT Experiment 3\svrt_images\generated_images\results_problem_7,,C:\Users\subject\Desktop\SVRT Experiments\SVRT Experiment 3\svrt_images\generated_images\results_problem_7\sample_0_0000.png,,,,,,,,,,,,,,,,,,,,,,0,1,1,1,0,6,6,6,,,,,,,,,,,,,,j,7,B,B,17,1,Correct!,38.860419400036335,586.7076964000007,None,586.7076964000007,None,625.5870053999824,None,,,,,68,001,2023-05-18_10h11.43.319,uncolored_sorted,2021.2.3,59.950313185943955,
C:\Users\subject\Desktop\SVRT Experiments\SVRT Experiment 3\svrt_images\generated_images\results_problem_7,,C:\Users\subject\Desktop\SVRT Experiments\SVRT Experiment 3\svrt_images\generated_images\results_problem_7\sample_1_0000.png,,,,,,,,,,,,,,,,,,,,,,0,1,1,1,0,7,7,7,,,,,,,,,,,,,,j,7,B,A,17,0,Incorrect!,0.8504291000426747,626.6378173999838,None,626.6378173999838,None,627.5051302000065,None,,,,,68,001,2023-05-18_10h11.43.319,uncolored_sorted,2021.2.3,59.950313185943955,
C:\Users\subject\Desktop\SVRT Experiments\SVRT Experiment 3\svrt_images\generated_images\results_problem_7,,C:\Users\subject\Desktop\SVRT Experiments\SVRT Experiment 3\svrt_images\generated_images\results_problem_7\sample_0_0012.png,,,,,,,,,,,,,,,,,,,,,,0,1,1,1,0,8,8,8,,,,,,,,,,,,,,f,7,A,B,17,0,Incorrect!,0.31557299999985844,628.5726082000183,None,628.5726082000183,None,628.9061890000012,None,,,,,68,001,2023-05-18_10h11.43.319,uncolored_sorted,2021.2.3,59.950313185943955,
C:\Users\subject\Desktop\SVRT Experiments\SVRT Experiment 3\svrt_images\generated_images\results_problem_7,,C:\Users\subject\Desktop\SVRT Experiments\SVRT Experiment 3\svrt_images\generated_images\results_problem_7\sample_1_0015.png,,,,,,,,,,,,,,,,,,,,,,0,1,1,1,0,9,9,9,,,,,,,,,,,,,,j,7,B,A,17,0,Incorrect!,0.30649129999801517,629.9736672000145,None,629.9736672000145,None,630.3072350000148,None,,,,,68,001,2023-05-18_10h11.43.319,uncolored_sorted,2021.2.3,59.950313185943955,
C:\Users\subject\Desktop\SVRT Experiments\SVRT Experiment 3\svrt_images\generated_images\results_problem_7,,C:\Users\subject\Desktop\SVRT Experiments\SVRT Experiment 3\svrt_images\generated_images\results_problem_7\sample_0_0007.png,,,,,,,,,,,,,,,,,,,,,,0,1,1,1,0,10,10,10,,,,,,,,,,,,,,j,7,B,B,17,1,Correct!,2.0407488999771886,631.3914056000067,None,631.3914056000067,None,633.4596240000101,None,,,,,68,001,2023-05-18_10h11.43.319,uncolored_sorted,2021.2.3,59.950313185943955,
C:\Users\subject\Desktop\SVRT Experiments\SVRT Experiment 3\svrt_images\generated_images\results_problem_7,,C:\Users\subject\Desktop\SVRT Experiments\SVRT Experiment 3\svrt_images\generated_images\results_problem_7\sample_1_0008.png,,,,,,,,,,,,,,,,,,,,,,0,1,1,1,0,11,11,11,,,,,,,,,,,,,,j,7,B,A,17,0,Incorrect!,3.328316700004507,634.5437538999831,None,634.5437538999831,None,637.8962983000092,None,,,,,68,001,2023-05-18_10h11.43.319,uncolored_sorted,2021.2.3,59.950313185943955,
C:\Users\subject\Desktop\SVRT Experiments\SVRT Experiment 3\svrt_images\generated_images\results_problem_7,,C:\Users\subject\Desktop\SVRT Experiments\SVRT Experiment 3\svrt_images\generated_images\results_problem_7\sample_0_0015.png,,,,,,,,,,,,,,,,,,,,,,0,1,1,1,0,12,12,12,,,,,,,,,,,,,,f,7,A,B,17,0,Incorrect!,1.9068822000408545,638.9971379000344,None,638.9971379000344,None,640.9319214000134,None,,,,,68,001,2023-05-18_10h11.43.319,uncolored_sorted,2021.2.3,59.950313185943955,
C:\Users\subject\Desktop\SVRT Experiments\SVRT Experiment 3\svrt_images\generated_images\results_problem_7,,C:\Users\subject\Desktop\SVRT Experiments\SVRT Experiment 3\svrt_images\generated_images\results_problem_7\sample_0_0016.png,,,,,,,,,,,,,,,,,,,,,,0,1,1,1,0,13,13,13,,,,,,,,,,,,,,f,7,A,B,17,0,Incorrect!,4.319364700000733,642.0327205000212,None,642.0327205000212,None,646.3693554999772,None,,,,,68,001,2023-05-18_10h11.43.319,uncolored_sorted,2021.2.3,59.950313185943955,
C:\Users\subject\Desktop\SVRT Experiments\SVRT Experiment 3\svrt_images\generated_images\results_problem_7,,C:\Users\subject\Desktop\SVRT Experiments\SVRT Experiment 3\svrt_images\generated_images\results_problem_7\sample_0_0004.png,,,,,,,,,,,,,,,,,,,,,,0,1,1,1,0,14,14,14,,,,,,,,,,,,,,f,7,A,B,17,0,Incorrect!,1.9211142000276595,647.486872599984,None,647.486872599984,None,649.438299899979,None,,,,,68,001,2023-05-18_10h11.43.319,uncolored_sorted,2021.2.3,59.950313185943955,
C:\Users\subject\Desktop\SVRT Experiments\SVRT Experiment 3\svrt_images\generated_images\results_problem_7,,C:\Users\subject\Desktop\SVRT Experiments\SVRT Experiment 3\svrt_images\generated_images\results_problem_7\sample_1_0011.png,,,,,,,,,,,,,,,,,,,,,,0,1,1,1,0,15,15,15,,,,,,,,,,,,,,j,7,B,A,17,0,Incorrect!,2.64347180002369,650.5725318000186,None,650.5725318000186,None,653.2411992999841,None,,,,,68,001,2023-05-18_10h11.43.319,uncolored_sorted,2021.2.3,59.950313185943955,
C:\Users\subject\Desktop\SVRT Experiments\SVRT Experiment 3\svrt_images\generated_images\results_problem_7,,C:\Users\subject\Desktop\SVRT Experiments\SVRT Experiment 3\svrt_images\generated_images\results_problem_7\sample_1_0003.png,,,,,,,,,,,,,,,,,,,,,,0,1,1,1,0,16,16,16,,,,,,,,,,,,,,f,7,A,A,17,1,Correct!,0.6966001000255346,654.3754016000312,None,654.3754016000312,None,655.0926017999882,None,,,,,68,001,2023-05-18_10h11.43.319,uncolored_sorted,2021.2.3,59.950313185943955,
C:\Users\subject\Desktop\SVRT Experiments\SVRT Experiment 3\svrt_images\generated_images\results_problem_7,,C:\Users\subject\Desktop\SVRT Experiments\SVRT Experiment 3\svrt_images\generated_images\results_problem_7\sample_0_0002.png,,,,,,,,,,,,,,,,,,,,,,0,1,1,1,0,17,17,17,,,,,,,,,,,,,,f,7,A,B,17,0,Incorrect!,1.4444904999691062,656.2434707999928,None,656.2434707999928,None,657.727916600008,None,,,,,68,001,2023-05-18_10h11.43.319,uncolored_sorted,2021.2.3,59.950313185943955,
C:\Users\subject\Desktop\SVRT Experiments\SVRT Experiment 3\svrt_images\generated_images\results_problem_7,,C:\Users\subject\Desktop\SVRT Experiments\SVRT Experiment 3\svrt_images\generated_images\results_problem_7\sample_0_0011.png,,,,,,,,,,,,,,,,,,,,,,0,1,1,1,0,18,18,18,,,,,,,,,,,,,,f,7,A,B,17,0,Incorrect!,0.8251704000285827,658.8787945000222,None,658.8787945000222,None,659.7294268999831,None,,,,,68,001,2023-05-18_10h11.43.319,uncolored_sorted,2021.2.3,59.950313185943955,
C:\Users\subject\Desktop\SVRT Experiments\SVRT Experiment 3\svrt_images\generated_images\results_problem_7,,C:\Users\subject\Desktop\SVRT Experiments\SVRT Experiment 3\svrt_images\generated_images\results_problem_7\sample_0_0009.png,,,,,,,,,,,,,,,,,,,,,,0,1,1,1,0,19,19,19,,,,,,,,,,,,,,j,7,B,B,17,1,Correct!,4.454914600006305,660.8969924999983,None,660.8969924999983,None,665.3836935000145,None,,,,,68,001,2023-05-18_10h11.43.319,uncolored_sorted,2021.2.3,59.950313185943955,
C:\Users\subject\Desktop\SVRT Experiments\SVRT Experiment 3\svrt_images\generated_images\results_problem_7,,C:\Users\subject\Desktop\SVRT Experiments\SVRT Experiment 3\svrt_images\generated_images\results_problem_7\sample_0_0010.png,,,,,,,,,,,,,,,,,,,,,,0,1,1,1,0,20,20,20,,,,,,,,,,,,,,j,7,B,B,17,1,Correct!,0.8799878000281751,666.5679219000158,None,666.5679219000158,None,667.4852731000283,None,,,,,68,001,2023-05-18_10h11.43.319,uncolored_sorted,2021.2.3,59.950313185943955,
C:\Users\subject\Desktop\SVRT Experiments\SVRT Experiment 3\svrt_images\generated_images\results_problem_7,,C:\Users\subject\Desktop\SVRT Experiments\SVRT Experiment 3\svrt_images\generated_images\results_problem_7\sample_1_0006.png,,,,,,,,,,,,,,,,,,,,,,0,1,1,1,0,21,21,21,,,,,,,,,,,,,,j,7,B,A,17,0,Incorrect!,0.7624051999882795,668.6694747000001,None,668.6694747000001,None,669.4534259000211,None,,,,,68,001,2023-05-18_10h11.43.319,uncolored_sorted,2021.2.3,59.950313185943955,
C:\Users\subject\Desktop\SVRT Experiments\SVRT Experiment 3\svrt_images\generated_images\results_problem_7,,C:\Users\subject\Desktop\SVRT Experiments\SVRT Experiment 3\svrt_images\generated_images\results_problem_7\sample_1_0002.png,,,,,,,,,,,,,,,,,,,,,,0,1,1,1,0,22,22,22,,,,,,,,,,,,,,f,7,A,A,17,1,Correct!,0.8895237999968231,670.6543380999938,None,670.6543380999938,None,671.5716816000058,None,,,,,68,001,2023-05-18_10h11.43.319,uncolored_sorted,2021.2.3,59.950313185943955,
C:\Users\subject\Desktop\SVRT Experiments\SVRT Experiment 3\svrt_images\generated_images\results_problem_7,,C:\Users\subject\Desktop\SVRT Experiments\SVRT Experiment 3\svrt_images\generated_images\results_problem_7\sample_1_0004.png,,,,,,,,,,,,,,,,,,,,,,0,1,1,1,0,23,23,23,,,,,,,,,,,,,,f,7,A,A,17,1,Correct!,1.8112883000285365,672.7726008000318,None,672.7726008000318,None,674.623977900017,None,,,,,68,001,2023-05-18_10h11.43.319,uncolored_sorted,2021.2.3,59.950313185943955,
C:\Users\subject\Desktop\SVRT Experiments\SVRT Experiment 3\svrt_images\generated_images\results_problem_7,,C:\Users\subject\Desktop\SVRT Experiments\SVRT Experiment 3\svrt_images\generated_images\results_problem_7\sample_1_0007.png,,,,,,,,,,,,,,,,,,,,,,0,1,1,1,0,24,24,24,,,,,,,,,,,,,,j,7,B,A,17,0,Incorrect!,1.214254999998957,675.8415789999999,None,675.8415789999999,None,677.0758366999798,None,,,,,68,001,2023-05-18_10h11.43.319,uncolored_sorted,2021.2.3,59.950313185943955,
C:\Users\subject\Desktop\SVRT Experiments\SVRT Experiment 3\svrt_images\generated_images\results_problem_7,,C:\Users\subject\Desktop\SVRT Experiments\SVRT Experiment 3\svrt_images\generated_images\results_problem_7\sample_1_0016.png,,,,,,,,,,,,,,,,,,,,,,0,1,1,1,0,25,25,25,,,,,,,,,,,,,,f,7,A,A,17,1,Correct!,0.649710799974855,678.3101069999975,None,678.3101069999975,None,678.9772701000329,None,,,,,68,001,2023-05-18_10h11.43.319,uncolored_sorted,2021.2.3,59.950313185943955,
C:\Users\subject\Desktop\SVRT Experiments\SVRT Experiment 3\svrt_images\generated_images\results_problem_7,,C:\Users\subject\Desktop\SVRT Experiments\SVRT Experiment 3\svrt_images\generated_images\results_problem_7\sample_1_0012.png,,,,,,,,,,,,,,,,,,,,,,0,1,1,1,0,26,26,26,,,,,,,,,,,,,,j,7,B,A,17,0,Incorrect!,8.467478199978359,680.2282222000067,None,680.2282222000067,None,688.7513037000317,None,,,,,68,001,2023-05-18_10h11.43.319,uncolored_sorted,2021.2.3,59.950313185943955,
C:\Users\subject\Desktop\SVRT Experiments\SVRT Experiment 3\svrt_images\generated_images\results_problem_7,,C:\Users\subject\Desktop\SVRT Experiments\SVRT Experiment 3\svrt_images\generated_images\results_problem_7\sample_1_0001.png,,,,,,,,,,,,,,,,,,,,,,0,1,1,1,0,27,27,27,,,,,,,,,,,,,,f,7,A,A,17,1,Correct!,0.8527806999627501,690.0189479999826,None,690.0189479999826,None,690.9362802000251,None,,,,,68,001,2023-05-18_10h11.43.319,uncolored_sorted,2021.2.3,59.950313185943955,
C:\Users\subject\Desktop\SVRT Experiments\SVRT Experiment 3\svrt_images\generated_images\results_problem_7,,C:\Users\subject\Desktop\SVRT Experiments\SVRT Experiment 3\svrt_images\generated_images\results_problem_7\sample_0_0001.png,,,,,,,,,,,,,,,,,,,,,,0,1,1,1,0,28,28,28,,,,,,,,,,,,,,f,7,A,B,17,0,Incorrect!,0.6911035999655724,692.2205767999985,None,692.2205767999985,None,692.937799700012,None,,,,,68,001,2023-05-18_10h11.43.319,uncolored_sorted,2021.2.3,59.950313185943955,
C:\Users\subject\Desktop\SVRT Experiments\SVRT Experiment 3\svrt_images\generated_images\results_problem_7,,C:\Users\subject\Desktop\SVRT Experiments\SVRT Experiment 3\svrt_images\generated_images\results_problem_7\sample_1_0009.png,,,,,,,,,,,,,,,,,,,,,,0,1,1,1,0,29,29,29,,,,,,,,,,,,,,j,7,B,A,17,0,Incorrect!,1.4182834000093862,694.2054156999802,None,694.2054156999802,None,695.6731901000021,None,,,,,68,001,2023-05-18_10h11.43.319,uncolored_sorted,2021.2.3,59.950313185943955,
C:\Users\subject\Desktop\SVRT Experiments\SVRT Experiment 3\svrt_images\generated_images\results_problem_7,,C:\Users\subject\Desktop\SVRT Experiments\SVRT Experiment 3\svrt_images\generated_images\results_problem_7\sample_1_0005.png,,,,,,,,,,,,,,,,,,,,,,0,1,1,1,0,30,30,30,,,,,,,,,,,,,,f,7,A,A,17,1,Correct!,18.953359800041653,696.9741850999999,None,696.9741850999999,None,715.9885197000112,None,,,,,68,001,2023-05-18_10h11.43.319,uncolored_sorted,2021.2.3,59.950313185943955,
C:\Users\subject\Desktop\SVRT Experiments\SVRT Experiment 3\svrt_images\generated_images\results_problem_7,,C:\Users\subject\Desktop\SVRT Experiments\SVRT Experiment 3\svrt_images\generated_images\results_problem_7\sample_0_0006.png,,,,,,,,,,,,,,,,,,,,,,0,1,1,1,0,31,31,31,,,,,,,,,,,,,,f,7,A,B,17,0,Incorrect!,2.557971899979748,717.2895030999789,None,717.2895030999789,None,719.9081261000247,None,,,,,68,001,2023-05-18_10h11.43.319,uncolored_sorted,2021.2.3,59.950313185943955,
C:\Users\subject\Desktop\SVRT Experiments\SVRT Experiment 3\svrt_images\generated_images\results_problem_7,,C:\Users\subject\Desktop\SVRT Experiments\SVRT Experiment 3\svrt_images\generated_images\results_problem_7\sample_0_0005.png,,,,,,,,,,,,,,,,,,,,,,0,1,1,1,0,32,32,32,,,,,,,,,,,,,,f,7,A,B,17,0,Incorrect!,7.109634899999946,721.2257927000173,None,721.2257927000173,None,728.3811682999949,None,,,,,68,001,2023-05-18_10h11.43.319,uncolored_sorted,2021.2.3,59.950313185943955,
C:\Users\subject\Desktop\SVRT Experiments\SVRT Experiment 3\svrt_images\generated_images\results_problem_7,,C:\Users\subject\Desktop\SVRT Experiments\SVRT Experiment 3\svrt_images\generated_images\results_problem_7\sample_1_0014.png,,,,,,,,,,,,,,,,,,,,,,0,1,1,1,0,33,33,33,,,,,,,,,,,,,,f,7,A,A,17,1,Correct!,1.2198654999956489,729.7155284000328,None,729.7155284000328,None,730.9998031000141,None,,,,,68,001,2023-05-18_10h11.43.319,uncolored_sorted,2021.2.3,59.950313185943955,
C:\Users\subject\Desktop\SVRT Experiments\SVRT Experiment 3\svrt_images\generated_images\results_problem_7,,,,,,,,,,,,,,,,,,,,,,,,0,1,1,1,,,,,,,,,,,,,,,,,,,,,,,,,,,,,,,,732.000557899999,732.000557899999,space,1.4068399000097997,68,001,2023-05-18_10h11.43.319,uncolored_sorted,2021.2.3,59.950313185943955,
C:\Users\subject\Desktop\SVRT Experiments\SVRT Experiment 3\svrt_images\generated_images\results_problem_2,,,C:\Users\subject\Desktop\SVRT Experiments\SVRT Experiment 3\svrt_images\generated_images\results_problem_2\sample_1_0012.png,,,,,,,,,,,,,,,,,,,,,0,2,2,2,0,0,0,0,,,,,,,,,,,,,,j,2,B,A,17,0,Incorrect!,4.356359399971552,733.4349749999819,None,733.4349749999819,None,737.8216286000097,None,,,,,68,001,2023-05-18_10h11.43.319,uncolored_sorted,2021.2.3,59.950313185943955,
C:\Users\subject\Desktop\SVRT Experiments\SVRT Experiment 3\svrt_images\generated_images\results_problem_2,,,C:\Users\subject\Desktop\SVRT Experiments\SVRT Experiment 3\svrt_images\generated_images\results_problem_2\sample_0_0000.png,,,,,,,,,,,,,,,,,,,,,0,2,2,2,0,1,1,1,,,,,,,,,,,,,,f,2,A,B,17,0,Incorrect!,1.0250154999666847,738.8223554000142,None,738.8223554000142,None,739.8731532000238,None,,,,,68,001,2023-05-18_10h11.43.319,uncolored_sorted,2021.2.3,59.950313185943955,
C:\Users\subject\Desktop\SVRT Experiments\SVRT Experiment 3\svrt_images\generated_images\results_problem_2,,,C:\Users\subject\Desktop\SVRT Experiments\SVRT Experiment 3\svrt_images\generated_images\results_problem_2\sample_0_0005.png,,,,,,,,,,,,,,,,,,,,,0,2,2,2,0,2,2,2,,,,,,,,,,,,,,j,2,B,B,17,1,Correct!,0.8127027999726124,740.8906191000133,None,740.8906191000133,None,741.7245777000207,None,,,,,68,001,2023-05-18_10h11.43.319,uncolored_sorted,2021.2.3,59.950313185943955,
C:\Users\subject\Desktop\SVRT Experiments\SVRT Experiment 3\svrt_images\generated_images\results_problem_2,,,C:\Users\subject\Desktop\SVRT Experiments\SVRT Experiment 3\svrt_images\generated_images\results_problem_2\sample_0_0016.png,,,,,,,,,,,,,,,,,,,,,0,2,2,2,0,3,3,3,,,,,,,,,,,,,,j,2,B,B,17,1,Correct!,3.4893259000382386,742.7419705999782,None,742.7419705999782,None,746.2613136,None,,,,,68,001,2023-05-18_10h11.43.319,uncolored_sorted,2021.2.3,59.950313185943955,
C:\Users\subject\Desktop\SVRT Experiments\SVRT Experiment 3\svrt_images\generated_images\results_problem_2,,,C:\Users\subject\Desktop\SVRT Experiments\SVRT Experiment 3\svrt_images\generated_images\results_problem_2\sample_1_0005.png,,,,,,,,,,,,,,,,,,,,,0,2,2,2,0,4,4,4,,,,,,,,,,,,,,j,2,B,A,17,0,Incorrect!,4.511823499982711,747.2954383000033,None,747.2954383000033,None,751.8321765000001,None,,,,,68,001,2023-05-18_10h11.43.319,uncolored_sorted,2021.2.3,59.950313185943955,
C:\Users\subject\Desktop\SVRT Experiments\SVRT Experiment 3\svrt_images\generated_images\results_problem_2,,,C:\Users\subject\Desktop\SVRT Experiments\SVRT Experiment 3\svrt_images\generated_images\results_problem_2\sample_1_0006.png,,,,,,,,,,,,,,,,,,,,,0,2,2,2,0,5,5,5,,,,,,,,,,,,,,j,2,B,A,17,0,Incorrect!,1.9570716999587603,752.8662765999907,None,752.8662765999907,None,754.8511378000258,None,,,,,68,001,2023-05-18_10h11.43.319,uncolored_sorted,2021.2.3,59.950313185943955,
C:\Users\subject\Desktop\SVRT Experiments\SVRT Experiment 3\svrt_images\generated_images\results_problem_2,,,C:\Users\subject\Desktop\SVRT Experiments\SVRT Experiment 3\svrt_images\generated_images\results_problem_2\sample_1_0016.png,,,,,,,,,,,,,,,,,,,,,0,2,2,2,0,6,6,6,,,,,,,,,,,,,,f,2,A,A,17,1,Correct!,0.43332479998935014,755.9019458999974,None,755.9019458999974,None,756.3522712999838,None,,,,,68,001,2023-05-18_10h11.43.319,uncolored_sorted,2021.2.3,59.950313185943955,
C:\Users\subject\Desktop\SVRT Experiments\SVRT Experiment 3\svrt_images\generated_images\results_problem_2,,,C:\Users\subject\Desktop\SVRT Experiments\SVRT Experiment 3\svrt_images\generated_images\results_problem_2\sample_0_0014.png,,,,,,,,,,,,,,,,,,,,,0,2,2,2,0,7,7,7,,,,,,,,,,,,,,f,2,A,B,17,0,Incorrect!,0.7641514000133611,757.4030664000311,None,757.4030664000311,None,758.1869694000343,None,,,,,68,001,2023-05-18_10h11.43.319,uncolored_sorted,2021.2.3,59.950313185943955,
C:\Users\subject\Desktop\SVRT Experiments\SVRT Experiment 3\svrt_images\generated_images\results_problem_2,,,C:\Users\subject\Desktop\SVRT Experiments\SVRT Experiment 3\svrt_images\generated_images\results_problem_2\sample_1_0002.png,,,,,,,,,,,,,,,,,,,,,0,2,2,2,0,8,8,8,,,,,,,,,,,,,,j,2,B,A,17,0,Incorrect!,0.36074989999178797,759.2544469999848,None,759.2544469999848,None,759.6380555999931,None,,,,,68,001,2023-05-18_10h11.43.319,uncolored_sorted,2021.2.3,59.950313185943955,
C:\Users\subject\Desktop\SVRT Experiments\SVRT Experiment 3\svrt_images\generated_images\results_problem_2,,,C:\Users\subject\Desktop\SVRT Experiments\SVRT Experiment 3\svrt_images\generated_images\results_problem_2\sample_0_0003.png,,,,,,,,,,,,,,,,,,,,,0,2,2,2,0,9,9,9,,,,,,,,,,,,,,f,2,A,B,17,0,Incorrect!,0.33364650001749396,760.7055446000304,None,760.7055446000304,None,761.0724951000302,None,,,,,68,001,2023-05-18_10h11.43.319,uncolored_sorted,2021.2.3,59.950313185943955,
C:\Users\subject\Desktop\SVRT Experiments\SVRT Experiment 3\svrt_images\generated_images\results_problem_2,,,C:\Users\subject\Desktop\SVRT Experiments\SVRT Experiment 3\svrt_images\generated_images\results_problem_2\sample_0_0011.png,,,,,,,,,,,,,,,,,,,,,0,2,2,2,0,10,10,10,,,,,,,,,,,,,,f,2,A,B,17,0,Incorrect!,51.88225379999494,762.1566088999971,None,762.1566088999971,None,814.0624466000008,None,,,,,68,001,2023-05-18_10h11.43.319,uncolored_sorted,2021.2.3,59.950313185943955,
C:\Users\subject\Desktop\SVRT Experiments\SVRT Experiment 3\svrt_images\generated_images\results_problem_2,,,C:\Users\subject\Desktop\SVRT Experiments\SVRT Experiment 3\svrt_images\generated_images\results_problem_2\sample_1_0015.png,,,,,,,,,,,,,,,,,,,,,0,2,2,2,0,11,11,11,,,,,,,,,,,,,,j,2,B,A,17,0,Incorrect!,0.26021510001737624,815.1466013999889,None,815.1466013999889,None,815.4301200000336,None,,,,,68,001,2023-05-18_10h11.43.319,uncolored_sorted,2021.2.3,59.950313185943955,
C:\Users\subject\Desktop\SVRT Experiments\SVRT Experiment 3\svrt_images\generated_images\results_problem_2,,,C:\Users\subject\Desktop\SVRT Experiments\SVRT Experiment 3\svrt_images\generated_images\results_problem_2\sample_1_0008.png,,,,,,,,,,,,,,,,,,,,,0,2,2,2,0,12,12,12,,,,,,,,,,,,,,f,2,A,A,17,1,Correct!,0.28785470000002533,816.6309684999869,None,816.6309684999869,None,816.9479542000336,None,,,,,68,001,2023-05-18_10h11.43.319,uncolored_sorted,2021.2.3,59.950313185943955,
C:\Users\subject\Desktop\SVRT Experiments\SVRT Experiment 3\svrt_images\generated_images\results_problem_2,,,C:\Users\subject\Desktop\SVRT Experiments\SVRT Experiment 3\svrt_images\generated_images\results_problem_2\sample_0_0007.png,,,,,,,,,,,,,,,,,,,,,0,2,2,2,0,13,13,13,,,,,,,,,,,,,,j,2,B,B,17,1,Correct!,0.3499405999900773,818.048784499988,None,818.048784499988,None,818.415726599982,None,,,,,68,001,2023-05-18_10h11.43.319,uncolored_sorted,2021.2.3,59.950313185943955,
C:\Users\subject\Desktop\SVRT Experiments\SVRT Experiment 3\svrt_images\generated_images\results_problem_2,,,C:\Users\subject\Desktop\SVRT Experiments\SVRT Experiment 3\svrt_images\generated_images\results_problem_2\sample_1_0009.png,,,,,,,,,,,,,,,,,,,,,0,2,2,2,0,14,14,14,,,,,,,,,,,,,,j,2,B,A,17,0,Incorrect!,0.30556250002700835,819.5332414000295,None,819.5332414000295,None,819.8668219000101,None,,,,,68,001,2023-05-18_10h11.43.319,uncolored_sorted,2021.2.3,59.950313185943955,
C:\Users\subject\Desktop\SVRT Experiments\SVRT Experiment 3\svrt_images\generated_images\results_problem_2,,,C:\Users\subject\Desktop\SVRT Experiments\SVRT Experiment 3\svrt_images\generated_images\results_problem_2\sample_1_0014.png,,,,,,,,,,,,,,,,,,,,,0,2,2,2,0,15,15,15,,,,,,,,,,,,,,f,2,A,A,17,1,Correct!,0.30178890004754066,821.0010123000247,None,821.0010123000247,None,821.3345929000061,None,,,,,68,001,2023-05-18_10h11.43.319,uncolored_sorted,2021.2.3,59.950313185943955,
C:\Users\subject\Desktop\SVRT Experiments\SVRT Experiment 3\svrt_images\generated_images\results_problem_2,,,C:\Users\subject\Desktop\SVRT Experiments\SVRT Experiment 3\svrt_images\generated_images\results_problem_2\sample_1_0004.png,,,,,,,,,,,,,,,,,,,,,0,2,2,2,0,16,16,16,,,,,,,,,,,,,,f,2,A,A,17,1,Correct!,0.6020028999773785,822.4687860999838,None,822.4687860999838,None,823.1025938999956,None,,,,,68,001,2023-05-18_10h11.43.319,uncolored_sorted,2021.2.3,59.950313185943955,
C:\Users\subject\Desktop\SVRT Experiments\SVRT Experiment 3\svrt_images\generated_images\results_problem_2,,,C:\Users\subject\Desktop\SVRT Experiments\SVRT Experiment 3\svrt_images\generated_images\results_problem_2\sample_1_0013.png,,,,,,,,,,,,,,,,,,,,,0,2,2,2,0,17,17,17,,,,,,,,,,,,,,f,2,A,A,17,1,Correct!,1.0172791000222787,824.253465900023,None,824.253465900023,None,825.3042504999903,None,,,,,68,001,2023-05-18_10h11.43.319,uncolored_sorted,2021.2.3,59.950313185943955,
C:\Users\subject\Desktop\SVRT Experiments\SVRT Experiment 3\svrt_images\generated_images\results_problem_2,,,C:\Users\subject\Desktop\SVRT Experiments\SVRT Experiment 3\svrt_images\generated_images\results_problem_2\sample_1_0010.png,,,,,,,,,,,,,,,,,,,,,0,2,2,2,0,18,18,18,,,,,,,,,,,,,,j,2,B,A,17,0,Incorrect!,0.7516101999790408,826.4551295000128,None,826.4551295000128,None,827.2390437999857,None,,,,,68,001,2023-05-18_10h11.43.319,uncolored_sorted,2021.2.3,59.950313185943955,
C:\Users\subject\Desktop\SVRT Experiments\SVRT Experiment 3\svrt_images\generated_images\results_problem_2,,,C:\Users\subject\Desktop\SVRT Experiments\SVRT Experiment 3\svrt_images\generated_images\results_problem_2\sample_1_0001.png,,,,,,,,,,,,,,,,,,,,,0,2,2,2,0,19,19,19,,,,,,,,,,,,,,f,2,A,A,17,1,Correct!,0.41610449994914234,828.4065946000046,None,828.4065946000046,None,828.8568976999959,None,,,,,68,001,2023-05-18_10h11.43.319,uncolored_sorted,2021.2.3,59.950313185943955,
C:\Users\subject\Desktop\SVRT Experiments\SVRT Experiment 3\svrt_images\generated_images\results_problem_2,,,C:\Users\subject\Desktop\SVRT Experiments\SVRT Experiment 3\svrt_images\generated_images\results_problem_2\sample_0_0004.png,,,,,,,,,,,,,,,,,,,,,0,2,2,2,0,20,20,20,,,,,,,,,,,,,,f,2,A,B,17,0,Incorrect!,0.97355019999668,830.0411637999932,None,830.0411637999932,None,831.0585936999996,None,,,,,68,001,2023-05-18_10h11.43.319,uncolored_sorted,2021.2.3,59.950313185943955,
C:\Users\subject\Desktop\SVRT Experiments\SVRT Experiment 3\svrt_images\generated_images\results_problem_2,,,C:\Users\subject\Desktop\SVRT Experiments\SVRT Experiment 3\svrt_images\generated_images\results_problem_2\sample_0_0006.png,,,,,,,,,,,,,,,,,,,,,0,2,2,2,0,21,21,21,,,,,,,,,,,,,,j,2,B,B,17,1,Correct!,0.32386860001133755,832.2428268999793,None,832.2428268999793,None,832.5930818000343,None,,,,,68,001,2023-05-18_10h11.43.319,uncolored_sorted,2021.2.3,59.950313185943955,
C:\Users\subject\Desktop\SVRT Experiments\SVRT Experiment 3\svrt_images\generated_images\results_problem_2,,,C:\Users\subject\Desktop\SVRT Experiments\SVRT Experiment 3\svrt_images\generated_images\results_problem_2\sample_0_0009.png,,,,,,,,,,,,,,,,,,,,,0,2,2,2,0,22,22,22,,,,,,,,,,,,,,j,2,B,B,17,1,Correct!,0.5406201000441797,833.7939994999906,None,833.7939994999906,None,834.3777576999855,None,,,,,68,001,2023-05-18_10h11.43.319,uncolored_sorted,2021.2.3,59.950313185943955,
C:\Users\subject\Desktop\SVRT Experiments\SVRT Experiment 3\svrt_images\generated_images\results_problem_2,,,C:\Users\subject\Desktop\SVRT Experiments\SVRT Experiment 3\svrt_images\generated_images\results_problem_2\sample_1_0007.png,,,,,,,,,,,,,,,,,,,,,0,2,2,2,0,23,23,23,,,,,,,,,,,,,,j,2,B,A,17,0,Incorrect!,0.6200075999950059,835.5786670999951,None,835.5786670999951,None,836.2291515999823,None,,,,,68,001,2023-05-18_10h11.43.319,uncolored_sorted,2021.2.3,59.950313185943955,
C:\Users\subject\Desktop\SVRT Experiments\SVRT Experiment 3\svrt_images\generated_images\results_problem_2,,,C:\Users\subject\Desktop\SVRT Experiments\SVRT Experiment 3\svrt_images\generated_images\results_problem_2\sample_0_0012.png,,,,,,,,,,,,,,,,,,,,,0,2,2,2,0,24,24,24,,,,,,,,,,,,,,f,2,A,B,17,0,Incorrect!,0.3992348999599926,837.4634297000011,None,837.4634297000011,None,837.8970811000327,None,,,,,68,001,2023-05-18_10h11.43.319,uncolored_sorted,2021.2.3,59.950313185943955,
C:\Users\subject\Desktop\SVRT Experiments\SVRT Experiment 3\svrt_images\generated_images\results_problem_2,,,C:\Users\subject\Desktop\SVRT Experiments\SVRT Experiment 3\svrt_images\generated_images\results_problem_2\sample_0_0013.png,,,,,,,,,,,,,,,,,,,,,0,2,2,2,0,25,25,25,,,,,,,,,,,,,,j,2,B,B,17,1,Correct!,0.6912483000196517,839.1313572999788,None,839.1313572999788,None,839.8485216000117,None,,,,,68,001,2023-05-18_10h11.43.319,uncolored_sorted,2021.2.3,59.950313185943955,
C:\Users\subject\Desktop\SVRT Experiments\SVRT Experiment 3\svrt_images\generated_images\results_problem_2,,,C:\Users\subject\Desktop\SVRT Experiments\SVRT Experiment 3\svrt_images\generated_images\results_problem_2\sample_1_0011.png,,,,,,,,,,,,,,,,,,,,,0,2,2,2,0,26,26,26,,,,,,,,,,,,,,j,2,B,A,17,0,Incorrect!,0.8358060999889858,841.0828187000006,None,841.0828187000006,None,841.9501355999964,None,,,,,68,001,2023-05-18_10h11.43.319,uncolored_sorted,2021.2.3,59.950313185943955,
C:\Users\subject\Desktop\SVRT Experiments\SVRT Experiment 3\svrt_images\generated_images\results_problem_2,,,C:\Users\subject\Desktop\SVRT Experiments\SVRT Experiment 3\svrt_images\generated_images\results_problem_2\sample_0_0015.png,,,,,,,,,,,,,,,,,,,,,0,2,2,2,0,27,27,27,,,,,,,,,,,,,,f,2,A,B,17,0,Incorrect!,0.9415558999753557,843.2010644000256,None,843.2010644000256,None,844.1684869999881,None,,,,,68,001,2023-05-18_10h11.43.319,uncolored_sorted,2021.2.3,59.950313185943955,
C:\Users\subject\Desktop\SVRT Experiments\SVRT Experiment 3\svrt_images\generated_images\results_problem_2,,,C:\Users\subject\Desktop\SVRT Experiments\SVRT Experiment 3\svrt_images\generated_images\results_problem_2\sample_0_0010.png,,,,,,,,,,,,,,,,,,,,,0,2,2,2,0,28,28,28,,,,,,,,,,,,,,j,2,B,B,17,1,Correct!,0.49851209996268153,845.4360878000152,None,845.4360878000152,None,845.9531546999933,None,,,,,68,001,2023-05-18_10h11.43.319,uncolored_sorted,2021.2.3,59.950313185943955,
C:\Users\subject\Desktop\SVRT Experiments\SVRT Experiment 3\svrt_images\generated_images\results_problem_2,,,C:\Users\subject\Desktop\SVRT Experiments\SVRT Experiment 3\svrt_images\generated_images\results_problem_2\sample_1_0000.png,,,,,,,,,,,,,,,,,,,,,0,2,2,2,0,29,29,29,,,,,,,,,,,,,,j,2,B,A,17,0,Incorrect!,0.5778161000343971,847.2207794000278,None,847.2207794000278,None,847.8379062000313,None,,,,,68,001,2023-05-18_10h11.43.319,uncolored_sorted,2021.2.3,59.950313185943955,
C:\Users\subject\Desktop\SVRT Experiments\SVRT Experiment 3\svrt_images\generated_images\results_problem_2,,,C:\Users\subject\Desktop\SVRT Experiments\SVRT Experiment 3\svrt_images\generated_images\results_problem_2\sample_0_0008.png,,,,,,,,,,,,,,,,,,,,,0,2,2,2,0,30,30,30,,,,,,,,,,,,,,f,2,A,B,17,0,Incorrect!,0.3723236999940127,849.1222252000007,None,849.1222252000007,None,849.5558371000225,None,,,,,68,001,2023-05-18_10h11.43.319,uncolored_sorted,2021.2.3,59.950313185943955,
C:\Users\subject\Desktop\SVRT Experiments\SVRT Experiment 3\svrt_images\generated_images\results_problem_2,,,C:\Users\subject\Desktop\SVRT Experiments\SVRT Experiment 3\svrt_images\generated_images\results_problem_2\sample_0_0002.png,,,,,,,,,,,,,,,,,,,,,0,2,2,2,0,31,31,31,,,,,,,,,,,,,,j,2,B,B,17,1,Correct!,0.26898370002163574,850.8735416000127,None,850.8735416000127,None,851.2238016999909,None,,,,,68,001,2023-05-18_10h11.43.319,uncolored_sorted,2021.2.3,59.950313185943955,
C:\Users\subject\Desktop\SVRT Experiments\SVRT Experiment 3\svrt_images\generated_images\results_problem_2,,,C:\Users\subject\Desktop\SVRT Experiments\SVRT Experiment 3\svrt_images\generated_images\results_problem_2\sample_1_0003.png,,,,,,,,,,,,,,,,,,,,,0,2,2,2,0,32,32,32,,,,,,,,,,,,,,j,2,B,A,17,0,Incorrect!,0.39310510002542287,852.5414436000283,None,852.5414436000283,None,852.9584342000308,None,,,,,68,001,2023-05-18_10h11.43.319,uncolored_sorted,2021.2.3,59.950313185943955,
C:\Users\subject\Desktop\SVRT Experiments\SVRT Experiment 3\svrt_images\generated_images\results_problem_2,,,C:\Users\subject\Desktop\SVRT Experiments\SVRT Experiment 3\svrt_images\generated_images\results_problem_2\sample_0_0001.png,,,,,,,,,,,,,,,,,,,,,0,2,2,2,0,33,33,33,,,,,,,,,,,,,,f,2,A,B,17,0,Incorrect!,0.3385335999773815,854.2761038999888,None,854.2761038999888,None,854.6930777999805,None,,,,,68,001,2023-05-18_10h11.43.319,uncolored_sorted,2021.2.3,59.950313185943955,
C:\Users\subject\Desktop\SVRT Experiments\SVRT Experiment 3\svrt_images\generated_images\results_problem_2,,,,,,,,,,,,,,,,,,,,,,,,0,2,2,2,,,,,,,,,,,,,,,,,,,,,,,,,,,,,,,,855.693829099997,855.693829099997,space,1.064683899981901,68,001,2023-05-18_10h11.43.319,uncolored_sorted,2021.2.3,59.950313185943955,
C:\Users\subject\Desktop\SVRT Experiments\SVRT Experiment 3\svrt_images\generated_images\results_problem_17,,,,C:\Users\subject\Desktop\SVRT Experiments\SVRT Experiment 3\svrt_images\generated_images\results_problem_17\sample_0_0004.png,,,,,,,,,,,,,,,,,,,,0,3,3,3,0,0,0,0,,,,,,,,,,,,,,j,17,B,B,17,1,Correct!,3.8924992000102066,856.7779795000097,None,856.7779795000097,None,860.6975707000238,None,,,,,68,001,2023-05-18_10h11.43.319,uncolored_sorted,2021.2.3,59.950313185943955,
C:\Users\subject\Desktop\SVRT Experiments\SVRT Experiment 3\svrt_images\generated_images\results_problem_17,,,,C:\Users\subject\Desktop\SVRT Experiments\SVRT Experiment 3\svrt_images\generated_images\results_problem_17\sample_1_0002.png,,,,,,,,,,,,,,,,,,,,0,3,3,3,0,1,1,1,,,,,,,,,,,,,,j,17,B,A,17,0,Incorrect!,0.9321398999891244,861.6983571000164,None,861.6983571000164,None,862.6490814000135,None,,,,,68,001,2023-05-18_10h11.43.319,uncolored_sorted,2021.2.3,59.950313185943955,
C:\Users\subject\Desktop\SVRT Experiments\SVRT Experiment 3\svrt_images\generated_images\results_problem_17,,,,C:\Users\subject\Desktop\SVRT Experiments\SVRT Experiment 3\svrt_images\generated_images\results_problem_17\sample_0_0001.png,,,,,,,,,,,,,,,,,,,,0,3,3,3,0,2,2,2,,,,,,,,,,,,,,f,17,A,B,17,0,Incorrect!,0.2919654999859631,863.666511700023,None,863.666511700023,None,863.9834072000231,None,,,,,68,001,2023-05-18_10h11.43.319,uncolored_sorted,2021.2.3,59.950313185943955,
C:\Users\subject\Desktop\SVRT Experiments\SVRT Experiment 3\svrt_images\generated_images\results_problem_17,,,,C:\Users\subject\Desktop\SVRT Experiments\SVRT Experiment 3\svrt_images\generated_images\results_problem_17\sample_1_0008.png,,,,,,,,,,,,,,,,,,,,0,3,3,3,0,3,3,3,,,,,,,,,,,,,,j,17,B,A,17,0,Incorrect!,0.2936164999846369,865.0008420000086,None,865.0008420000086,None,865.3177492999821,None,,,,,68,001,2023-05-18_10h11.43.319,uncolored_sorted,2021.2.3,59.950313185943955,
C:\Users\subject\Desktop\SVRT Experiments\SVRT Experiment 3\svrt_images\generated_images\results_problem_17,,,,C:\Users\subject\Desktop\SVRT Experiments\SVRT Experiment 3\svrt_images\generated_images\results_problem_17\sample_0_0003.png,,,,,,,,,,,,,,,,,,,,0,3,3,3,0,4,4,4,,,,,,,,,,,,,,f,17,A,B,17,0,Incorrect!,0.2305906000547111,866.3518715000246,None,866.3518715000246,None,866.6020553000271,None,,,,,68,001,2023-05-18_10h11.43.319,uncolored_sorted,2021.2.3,59.950313185943955,
C:\Users\subject\Desktop\SVRT Experiments\SVRT Experiment 3\svrt_images\generated_images\results_problem_17,,,,C:\Users\subject\Desktop\SVRT Experiments\SVRT Experiment 3\svrt_images\generated_images\results_problem_17\sample_1_0009.png,,,,,,,,,,,,,,,,,,,,0,3,3,3,0,5,5,5,,,,,,,,,,,,,,j,17,B,A,17,0,Incorrect!,0.24220330000389367,867.6361664999858,None,867.6361664999858,None,867.903034100018,None,,,,,68,001,2023-05-18_10h11.43.319,uncolored_sorted,2021.2.3,59.950313185943955,
C:\Users\subject\Desktop\SVRT Experiments\SVRT Experiment 3\svrt_images\generated_images\results_problem_17,,,,C:\Users\subject\Desktop\SVRT Experiments\SVRT Experiment 3\svrt_images\generated_images\results_problem_17\sample_0_0007.png,,,,,,,,,,,,,,,,,,,,0,3,3,3,0,6,6,6,,,,,,,,,,,,,,f,17,A,B,17,0,Incorrect!,0.3962798999855295,868.9541656000074,None,868.9541656000074,None,869.3708075000322,None,,,,,68,001,2023-05-18_10h11.43.319,uncolored_sorted,2021.2.3,59.950313185943955,
C:\Users\subject\Desktop\SVRT Experiments\SVRT Experiment 3\svrt_images\generated_images\results_problem_17,,,,C:\Users\subject\Desktop\SVRT Experiments\SVRT Experiment 3\svrt_images\generated_images\results_problem_17\sample_0_0014.png,,,,,,,,,,,,,,,,,,,,0,3,3,3,0,7,7,7,,,,,,,,,,,,,,f,17,A,B,17,0,Incorrect!,0.29684080003062263,870.4216050999821,None,870.4216050999821,None,870.7384734000079,None,,,,,68,001,2023-05-18_10h11.43.319,uncolored_sorted,2021.2.3,59.950313185943955,
C:\Users\subject\Desktop\SVRT Experiments\SVRT Experiment 3\svrt_images\generated_images\results_problem_17,,,,C:\Users\subject\Desktop\SVRT Experiments\SVRT Experiment 3\svrt_images\generated_images\results_problem_17\sample_1_0000.png,,,,,,,,,,,,,,,,,,,,0,3,3,3,0,8,8,8,,,,,,,,,,,,,,f,17,A,A,17,1,Correct!,0.3604497999767773,871.8059818000183,None,871.8059818000183,None,872.1896014999948,None,,,,,68,001,2023-05-18_10h11.43.319,uncolored_sorted,2021.2.3,59.950313185943955,
C:\Users\subject\Desktop\SVRT Experiments\SVRT Experiment 3\svrt_images\generated_images\results_problem_17,,,,C:\Users\subject\Desktop\SVRT Experiments\SVRT Experiment 3\svrt_images\generated_images\results_problem_17\sample_0_0008.png,,,,,,,,,,,,,,,,,,,,0,3,3,3,0,9,9,9,,,,,,,,,,,,,,f,17,A,B,17,0,Incorrect!,0.3174653999740258,873.2570776999928,None,873.2570776999928,None,873.6073348000064,None,,,,,68,001,2023-05-18_10h11.43.319,uncolored_sorted,2021.2.3,59.950313185943955,
C:\Users\subject\Desktop\SVRT Experiments\SVRT Experiment 3\svrt_images\generated_images\results_problem_17,,,,C:\Users\subject\Desktop\SVRT Experiments\SVRT Experiment 3\svrt_images\generated_images\results_problem_17\sample_1_0005.png,,,,,,,,,,,,,,,,,,,,0,3,3,3,0,10,10,10,,,,,,,,,,,,,,j,17,B,A,17,0,Incorrect!,0.34690530004445463,874.691495099978,None,874.691495099978,None,875.0584313999861,None,,,,,68,001,2023-05-18_10h11.43.319,uncolored_sorted,2021.2.3,59.950313185943955,
C:\Users\subject\Desktop\SVRT Experiments\SVRT Experiment 3\svrt_images\generated_images\results_problem_17,,,,C:\Users\subject\Desktop\SVRT Experiments\SVRT Experiment 3\svrt_images\generated_images\results_problem_17\sample_1_0016.png,,,,,,,,,,,,,,,,,,,,0,3,3,3,0,11,11,11,,,,,,,,,,,,,,j,17,B,A,17,0,Incorrect!,0.23978410003473982,876.1425861000316,None,876.1425861000316,None,876.4094450999983,None,,,,,68,001,2023-05-18_10h11.43.319,uncolored_sorted,2021.2.3,59.950313185943955,
C:\Users\subject\Desktop\SVRT Experiments\SVRT Experiment 3\svrt_images\generated_images\results_problem_17,,,,C:\Users\subject\Desktop\SVRT Experiments\SVRT Experiment 3\svrt_images\generated_images\results_problem_17\sample_1_0010.png,,,,,,,,,,,,,,,,,,,,0,3,3,3,0,12,12,12,,,,,,,,,,,,,,f,17,A,A,17,1,Correct!,0.936092899995856,877.5102850000258,None,877.5102850000258,None,878.4776685999823,None,,,,,68,001,2023-05-18_10h11.43.319,uncolored_sorted,2021.2.3,59.950313185943955,
C:\Users\subject\Desktop\SVRT Experiments\SVRT Experiment 3\svrt_images\generated_images\results_problem_17,,,,C:\Users\subject\Desktop\SVRT Experiments\SVRT Experiment 3\svrt_images\generated_images\results_problem_17\sample_0_0009.png,,,,,,,,,,,,,,,,,,,,0,3,3,3,0,13,13,13,,,,,,,,,,,,,,j,17,B,B,17,1,Correct!,0.28386959998169914,879.5785090000136,None,879.5785090000136,None,879.8954090999905,None,,,,,68,001,2023-05-18_10h11.43.319,uncolored_sorted,2021.2.3,59.950313185943955,
C:\Users\subject\Desktop\SVRT Experiments\SVRT Experiment 3\svrt_images\generated_images\results_problem_17,,,,C:\Users\subject\Desktop\SVRT Experiments\SVRT Experiment 3\svrt_images\generated_images\results_problem_17\sample_0_0010.png,,,,,,,,,,,,,,,,,,,,0,3,3,3,0,14,14,14,,,,,,,,,,,,,,j,17,B,B,17,1,Correct!,0.8175527999992482,881.0129769000341,None,881.0129769000341,None,881.8635585000156,None,,,,,68,001,2023-05-18_10h11.43.319,uncolored_sorted,2021.2.3,59.950313185943955,
C:\Users\subject\Desktop\SVRT Experiments\SVRT Experiment 3\svrt_images\generated_images\results_problem_17,,,,C:\Users\subject\Desktop\SVRT Experiments\SVRT Experiment 3\svrt_images\generated_images\results_problem_17\sample_1_0003.png,,,,,,,,,,,,,,,,,,,,0,3,3,3,0,15,15,15,,,,,,,,,,,,,,j,17,B,A,17,0,Incorrect!,0.29660569998668507,882.9977183000301,None,882.9977183000301,None,883.3146511000232,None,,,,,68,001,2023-05-18_10h11.43.319,uncolored_sorted,2021.2.3,59.950313185943955,
C:\Users\subject\Desktop\SVRT Experiments\SVRT Experiment 3\svrt_images\generated_images\results_problem_17,,,,C:\Users\subject\Desktop\SVRT Experiments\SVRT Experiment 3\svrt_images\generated_images\results_problem_17\sample_0_0011.png,,,,,,,,,,,,,,,,,,,,0,3,3,3,0,16,16,16,,,,,,,,,,,,,,j,17,B,B,17,1,Correct!,0.26169860002119094,884.4488494999823,None,884.4488494999823,None,884.7323663000134,None,,,,,68,001,2023-05-18_10h11.43.319,uncolored_sorted,2021.2.3,59.950313185943955,
C:\Users\subject\Desktop\SVRT Experiments\SVRT Experiment 3\svrt_images\generated_images\results_problem_17,,,,C:\Users\subject\Desktop\SVRT Experiments\SVRT Experiment 3\svrt_images\generated_images\results_problem_17\sample_0_0002.png,,,,,,,,,,,,,,,,,,,,0,3,3,3,0,17,17,17,,,,,,,,,,,,,,j,17,B,B,17,1,Correct!,0.3790148999541998,885.8832655000151,None,885.8832655000151,None,886.3002195000299,None,,,,,68,001,2023-05-18_10h11.43.319,uncolored_sorted,2021.2.3,59.950313185943955,
C:\Users\subject\Desktop\SVRT Experiments\SVRT Experiment 3\svrt_images\generated_images\results_problem_17,,,,C:\Users\subject\Desktop\SVRT Experiments\SVRT Experiment 3\svrt_images\generated_images\results_problem_17\sample_0_0016.png,,,,,,,,,,,,,,,,,,,,0,3,3,3,0,18,18,18,,,,,,,,,,,,,,j,17,B,B,17,1,Correct!,17.547035600000527,887.4511095000198,None,887.4511095000198,None,905.0476817000308,None,,,,,68,001,2023-05-18_10h11.43.319,uncolored_sorted,2021.2.3,59.950313185943955,
C:\Users\subject\Desktop\SVRT Experiments\SVRT Experiment 3\svrt_images\generated_images\results_problem_17,,,,C:\Users\subject\Desktop\SVRT Experiments\SVRT Experiment 3\svrt_images\generated_images\results_problem_17\sample_0_0005.png,,,,,,,,,,,,,,,,,,,,0,3,3,3,0,19,19,19,,,,,,,,,,,,,,f,17,A,B,17,0,Incorrect!,8.526850899972487,906.2152191000059,None,906.2152191000059,None,914.7716826000251,None,,,,,68,001,2023-05-18_10h11.43.319,uncolored_sorted,2021.2.3,59.950313185943955,
C:\Users\subject\Desktop\SVRT Experiments\SVRT Experiment 3\svrt_images\generated_images\results_problem_17,,,,C:\Users\subject\Desktop\SVRT Experiments\SVRT Experiment 3\svrt_images\generated_images\results_problem_17\sample_1_0015.png,,,,,,,,,,,,,,,,,,,,0,3,3,3,0,20,20,20,,,,,,,,,,,,,,j,17,B,A,17,0,Incorrect!,4.922124399978202,915.9559320000117,None,915.9559320000117,None,920.9096610000124,None,,,,,68,001,2023-05-18_10h11.43.319,uncolored_sorted,2021.2.3,59.950313185943955,
C:\Users\subject\Desktop\SVRT Experiments\SVRT Experiment 3\svrt_images\generated_images\results_problem_17,,,,C:\Users\subject\Desktop\SVRT Experiments\SVRT Experiment 3\svrt_images\generated_images\results_problem_17\sample_1_0011.png,,,,,,,,,,,,,,,,,,,,0,3,3,3,0,21,21,21,,,,,,,,,,,,,,j,17,B,A,17,0,Incorrect!,10.28009330003988,922.0938621999812,None,922.0938621999812,None,932.4183337999857,None,,,,,68,001,2023-05-18_10h11.43.319,uncolored_sorted,2021.2.3,59.950313185943955,
C:\Users\subject\Desktop\SVRT Experiments\SVRT Experiment 3\svrt_images\generated_images\results_problem_17,,,,C:\Users\subject\Desktop\SVRT Experiments\SVRT Experiment 3\svrt_images\generated_images\results_problem_17\sample_0_0000.png,,,,,,,,,,,,,,,,,,,,0,3,3,3,0,22,22,22,,,,,,,,,,,,,,j,17,B,B,17,1,Correct!,5.898680599988438,933.6192501999903,None,933.6192501999903,None,939.540378900012,None,,,,,68,001,2023-05-18_10h11.43.319,uncolored_sorted,2021.2.3,59.950313185943955,
C:\Users\subject\Desktop\SVRT Experiments\SVRT Experiment 3\svrt_images\generated_images\results_problem_17,,,,C:\Users\subject\Desktop\SVRT Experiments\SVRT Experiment 3\svrt_images\generated_images\results_problem_17\sample_1_0004.png,,,,,,,,,,,,,,,,,,,,0,3,3,3,0,23,23,23,,,,,,,,,,,,,,f,17,A,A,17,1,Correct!,3.5046210000291467,940.7412835999858,None,940.7412835999858,None,944.2939458999899,None,,,,,68,001,2023-05-18_10h11.43.319,uncolored_sorted,2021.2.3,59.950313185943955,
C:\Users\subject\Desktop\SVRT Experiments\SVRT Experiment 3\svrt_images\generated_images\results_problem_17,,,,C:\Users\subject\Desktop\SVRT Experiments\SVRT Experiment 3\svrt_images\generated_images\results_problem_17\sample_0_0013.png,,,,,,,,,,,,,,,,,,,,0,3,3,3,0,24,24,24,,,,,,,,,,,,,,j,17,B,B,17,1,Correct!,4.382296599971596,945.5115508000017,None,945.5115508000017,None,949.9148597000167,None,,,,,68,001,2023-05-18_10h11.43.319,uncolored_sorted,2021.2.3,59.950313185943955,
C:\Users\subject\Desktop\SVRT Experiments\SVRT Experiment 3\svrt_images\generated_images\results_problem_17,,,,C:\Users\subject\Desktop\SVRT Experiments\SVRT Experiment 3\svrt_images\generated_images\results_problem_17\sample_1_0014.png,,,,,,,,,,,,,,,,,,,,0,3,3,3,0,25,25,25,,,,,,,,,,,,,,f,17,A,A,17,1,Correct!,14.680681199999526,951.1491348000127,None,951.1491348000127,None,965.8602130999789,None,,,,,68,001,2023-05-18_10h11.43.319,uncolored_sorted,2021.2.3,59.950313185943955,
C:\Users\subject\Desktop\SVRT Experiments\SVRT Experiment 3\svrt_images\generated_images\results_problem_17,,,,C:\Users\subject\Desktop\SVRT Experiments\SVRT Experiment 3\svrt_images\generated_images\results_problem_17\sample_1_0013.png,,,,,,,,,,,,,,,,,,,,0,3,3,3,0,26,26,26,,,,,,,,,,,,,,j,17,B,A,17,0,Incorrect!,15.831123399955686,967.0944842000026,None,967.0944842000026,None,982.9731220999965,None,,,,,68,001,2023-05-18_10h11.43.319,uncolored_sorted,2021.2.3,59.950313185943955,
C:\Users\subject\Desktop\SVRT Experiments\SVRT Experiment 3\svrt_images\generated_images\results_problem_17,,,,C:\Users\subject\Desktop\SVRT Experiments\SVRT Experiment 3\svrt_images\generated_images\results_problem_17\sample_1_0007.png,,,,,,,,,,,,,,,,,,,,0,3,3,3,0,27,27,27,,,,,,,,,,,,,,f,17,A,A,17,1,Correct!,17.05340309999883,984.2240680999821,None,984.2240680999821,None,1001.3035949000041,None,,,,,68,001,2023-05-18_10h11.43.319,uncolored_sorted,2021.2.3,59.950313185943955,
C:\Users\subject\Desktop\SVRT Experiments\SVRT Experiment 3\svrt_images\generated_images\results_problem_17,,,,C:\Users\subject\Desktop\SVRT Experiments\SVRT Experiment 3\svrt_images\generated_images\results_problem_17\sample_0_0012.png,,,,,,,,,,,,,,,,,,,,0,3,3,3,0,28,28,28,,,,,,,,,,,,,,f,17,A,B,17,0,Incorrect!,11.562212199962232,1002.5712105000275,None,1002.5712105000275,None,1014.1966595000122,None,,,,,68,001,2023-05-18_10h11.43.319,uncolored_sorted,2021.2.3,59.950313185943955,
C:\Users\subject\Desktop\SVRT Experiments\SVRT Experiment 3\svrt_images\generated_images\results_problem_17,,,,C:\Users\subject\Desktop\SVRT Experiments\SVRT Experiment 3\svrt_images\generated_images\results_problem_17\sample_1_0012.png,,,,,,,,,,,,,,,,,,,,0,3,3,3,0,29,29,29,,,,,,,,,,,,,,f,17,A,A,17,1,Correct!,5.900998299999628,1015.4642891000258,None,1015.4642891000258,None,1021.4020891999826,None,,,,,68,001,2023-05-18_10h11.43.319,uncolored_sorted,2021.2.3,59.950313185943955,
C:\Users\subject\Desktop\SVRT Experiments\SVRT Experiment 3\svrt_images\generated_images\results_problem_17,,,,C:\Users\subject\Desktop\SVRT Experiments\SVRT Experiment 3\svrt_images\generated_images\results_problem_17\sample_0_0015.png,,,,,,,,,,,,,,,,,,,,0,3,3,3,0,30,30,30,,,,,,,,,,,,,,f,17,A,B,17,0,Incorrect!,31.35070509999059,1022.6863987999968,None,1022.6863987999968,None,1054.0600477000116,None,,,,,68,001,2023-05-18_10h11.43.319,uncolored_sorted,2021.2.3,59.950313185943955,
C:\Users\subject\Desktop\SVRT Experiments\SVRT Experiment 3\svrt_images\generated_images\results_problem_17,,,,C:\Users\subject\Desktop\SVRT Experiments\SVRT Experiment 3\svrt_images\generated_images\results_problem_17\sample_0_0006.png,,,,,,,,,,,,,,,,,,,,0,3,3,3,0,31,31,31,,,,,,,,,,,,,,j,17,B,B,17,1,Correct!,23.883843199990224,1055.36103119998,None,1055.36103119998,None,1079.262377200008,None,,,,,68,001,2023-05-18_10h11.43.319,uncolored_sorted,2021.2.3,59.950313185943955,
C:\Users\subject\Desktop\SVRT Experiments\SVRT Experiment 3\svrt_images\generated_images\results_problem_17,,,,C:\Users\subject\Desktop\SVRT Experiments\SVRT Experiment 3\svrt_images\generated_images\results_problem_17\sample_1_0006.png,,,,,,,,,,,,,,,,,,,,0,3,3,3,0,32,32,32,,,,,,,,,,,,,,f,17,A,A,17,1,Correct!,9.808746299997438,1080.5800345999887,None,1080.5800345999887,None,1090.4708296000026,None,,,,,68,001,2023-05-18_10h11.43.319,uncolored_sorted,2021.2.3,59.950313185943955,
C:\Users\subject\Desktop\SVRT Experiments\SVRT Experiment 3\svrt_images\generated_images\results_problem_17,,,,C:\Users\subject\Desktop\SVRT Experiments\SVRT Experiment 3\svrt_images\generated_images\results_problem_17\sample_1_0001.png,,,,,,,,,,,,,,,,,,,,0,3,3,3,0,33,33,33,,,,,,,,,,,,,,f,17,A,A,17,1,Correct!,19.35148140002275,1091.8051713000168,None,1091.8051713000168,None,1111.2364538999973,None,,,,,68,001,2023-05-18_10h11.43.319,uncolored_sorted,2021.2.3,59.950313185943955,
C:\Users\subject\Desktop\SVRT Experiments\SVRT Experiment 3\svrt_images\generated_images\results_problem_17,,,,,,,,,,,,,,,,,,,,,,,,0,3,3,3,,,,,,,,,,,,,,,,,,,,,,,,,,,,,,,,1112.237217899994,1112.237217899994,space,0.8234157999977469,68,001,2023-05-18_10h11.43.319,uncolored_sorted,2021.2.3,59.950313185943955,
C:\Users\subject\Desktop\SVRT Experiments\SVRT Experiment 3\svrt_images\generated_images\results_problem_4,,,,,C:\Users\subject\Desktop\SVRT Experiments\SVRT Experiment 3\svrt_images\generated_images\results_problem_4\sample_1_0006.png,,,,,,,,,,,,,,,,,,,0,4,4,4,0,0,0,0,,,,,,,,,,,,,,j,4,B,A,17,0,Incorrect!,61.31629530002829,1113.087879300001,None,1113.087879300001,None,1174.4341234000167,None,,,,,68,001,2023-05-18_10h11.43.319,uncolored_sorted,2021.2.3,59.950313185943955,
C:\Users\subject\Desktop\SVRT Experiments\SVRT Experiment 3\svrt_images\generated_images\results_problem_4,,,,,C:\Users\subject\Desktop\SVRT Experiments\SVRT Experiment 3\svrt_images\generated_images\results_problem_4\sample_0_0000.png,,,,,,,,,,,,,,,,,,,0,4,4,4,0,1,1,1,,,,,,,,,,,,,,f,4,A,B,17,0,Incorrect!,0.3446395000210032,1175.4515686000232,None,1175.4515686000232,None,1175.8185022000107,None,,,,,68,001,2023-05-18_10h11.43.319,uncolored_sorted,2021.2.3,59.950313185943955,
C:\Users\subject\Desktop\SVRT Experiments\SVRT Experiment 3\svrt_images\generated_images\results_problem_4,,,,,C:\Users\subject\Desktop\SVRT Experiments\SVRT Experiment 3\svrt_images\generated_images\results_problem_4\sample_0_0009.png,,,,,,,,,,,,,,,,,,,0,4,4,4,0,2,2,2,,,,,,,,,,,,,,j,4,B,B,17,1,Correct!,0.240315200004261,1176.835931700014,None,1176.835931700014,None,1177.1028032000177,None,,,,,68,001,2023-05-18_10h11.43.319,uncolored_sorted,2021.2.3,59.950313185943955,
C:\Users\subject\Desktop\SVRT Experiments\SVRT Experiment 3\svrt_images\generated_images\results_problem_4,,,,,C:\Users\subject\Desktop\SVRT Experiments\SVRT Experiment 3\svrt_images\generated_images\results_problem_4\sample_1_0015.png,,,,,,,,,,,,,,,,,,,0,4,4,4,0,3,3,3,,,,,,,,,,,,,,j,4,B,A,17,0,Incorrect!,0.24396569997770712,1178.1202298999997,None,1178.1202298999997,None,1178.3871073999908,None,,,,,68,001,2023-05-18_10h11.43.319,uncolored_sorted,2021.2.3,59.950313185943955,
C:\Users\subject\Desktop\SVRT Experiments\SVRT Experiment 3\svrt_images\generated_images\results_problem_4,,,,,C:\Users\subject\Desktop\SVRT Experiments\SVRT Experiment 3\svrt_images\generated_images\results_problem_4\sample_0_0007.png,,,,,,,,,,,,,,,,,,,0,4,4,4,0,4,4,4,,,,,,,,,,,,,,j,4,B,B,17,1,Correct!,0.2549599999911152,1179.4212219000328,None,1179.4212219000328,None,1179.7047644000268,None,,,,,68,001,2023-05-18_10h11.43.319,uncolored_sorted,2021.2.3,59.950313185943955,
C:\Users\subject\Desktop\SVRT Experiments\SVRT Experiment 3\svrt_images\generated_images\results_problem_4,,,,,C:\Users\subject\Desktop\SVRT Experiments\SVRT Experiment 3\svrt_images\generated_images\results_problem_4\sample_0_0014.png,,,,,,,,,,,,,,,,,,,0,4,4,4,0,5,5,5,,,,,,,,,,,,,,f,4,A,B,17,0,Incorrect!,0.273289599979762,1180.7388850999996,None,1180.7388850999996,None,1181.0391056999797,None,,,,,68,001,2023-05-18_10h11.43.319,uncolored_sorted,2021.2.3,59.950313185943955,
C:\Users\subject\Desktop\SVRT Experiments\SVRT Experiment 3\svrt_images\generated_images\results_problem_4,,,,,C:\Users\subject\Desktop\SVRT Experiments\SVRT Experiment 3\svrt_images\generated_images\results_problem_4\sample_1_0003.png,,,,,,,,,,,,,,,,,,,0,4,4,4,0,6,6,6,,,,,,,,,,,,,,j,4,B,A,17,0,Incorrect!,0.250378200027626,1182.0899032999878,None,1182.0899032999878,None,1182.3734438000247,None,,,,,68,001,2023-05-18_10h11.43.319,uncolored_sorted,2021.2.3,59.950313185943955,
C:\Users\subject\Desktop\SVRT Experiments\SVRT Experiment 3\svrt_images\generated_images\results_problem_4,,,,,C:\Users\subject\Desktop\SVRT Experiments\SVRT Experiment 3\svrt_images\generated_images\results_problem_4\sample_0_0012.png,,,,,,,,,,,,,,,,,,,0,4,4,4,0,7,7,7,,,,,,,,,,,,,,j,4,B,B,17,1,Correct!,0.3319132999749854,1183.4242446999997,None,1183.4242446999997,None,1183.7745120000327,None,,,,,68,001,2023-05-18_10h11.43.319,uncolored_sorted,2021.2.3,59.950313185943955,
C:\Users\subject\Desktop\SVRT Experiments\SVRT Experiment 3\svrt_images\generated_images\results_problem_4,,,,,C:\Users\subject\Desktop\SVRT Experiments\SVRT Experiment 3\svrt_images\generated_images\results_problem_4\sample_1_0002.png,,,,,,,,,,,,,,,,,,,0,4,4,4,0,8,8,8,,,,,,,,,,,,,,j,4,B,A,17,0,Incorrect!,0.5701788999722339,1184.8419789000181,None,1184.8419789000181,None,1185.4424235000042,None,,,,,68,001,2023-05-18_10h11.43.319,uncolored_sorted,2021.2.3,59.950313185943955,
C:\Users\subject\Desktop\SVRT Experiments\SVRT Experiment 3\svrt_images\generated_images\results_problem_4,,,,,C:\Users\subject\Desktop\SVRT Experiments\SVRT Experiment 3\svrt_images\generated_images\results_problem_4\sample_1_0007.png,,,,,,,,,,,,,,,,,,,0,4,4,4,0,9,9,9,,,,,,,,,,,,,,j,4,B,A,17,0,Incorrect!,0.2702341999975033,1186.5099024000228,None,1186.5099024000228,None,1186.8101205999847,None,,,,,68,001,2023-05-18_10h11.43.319,uncolored_sorted,2021.2.3,59.950313185943955,
C:\Users\subject\Desktop\SVRT Experiments\SVRT Experiment 3\svrt_images\generated_images\results_problem_4,,,,,C:\Users\subject\Desktop\SVRT Experiments\SVRT Experiment 3\svrt_images\generated_images\results_problem_4\sample_1_0010.png,,,,,,,,,,,,,,,,,,,0,4,4,4,0,10,10,10,,,,,,,,,,,,,,f,4,A,A,17,1,Correct!,0.2698469999595545,1187.8942794000031,None,1187.8942794000031,None,1188.194501799997,None,,,,,68,001,2023-05-18_10h11.43.319,uncolored_sorted,2021.2.3,59.950313185943955,
C:\Users\subject\Desktop\SVRT Experiments\SVRT Experiment 3\svrt_images\generated_images\results_problem_4,,,,,C:\Users\subject\Desktop\SVRT Experiments\SVRT Experiment 3\svrt_images\generated_images\results_problem_4\sample_0_0003.png,,,,,,,,,,,,,,,,,,,0,4,4,4,0,11,11,11,,,,,,,,,,,,,,f,4,A,B,17,0,Incorrect!,0.3327796999947168,1189.2953364999848,None,1189.2953364999848,None,1189.6455944000045,None,,,,,68,001,2023-05-18_10h11.43.319,uncolored_sorted,2021.2.3,59.950313185943955,
C:\Users\subject\Desktop\SVRT Experiments\SVRT Experiment 3\svrt_images\generated_images\results_problem_4,,,,,C:\Users\subject\Desktop\SVRT Experiments\SVRT Experiment 3\svrt_images\generated_images\results_problem_4\sample_1_0004.png,,,,,,,,,,,,,,,,,,,0,4,4,4,0,12,12,12,,,,,,,,,,,,,,j,4,B,A,17,0,Incorrect!,0.393699900014326,1190.7463838999975,None,1190.7463838999975,None,1191.1633947999799,None,,,,,68,001,2023-05-18_10h11.43.319,uncolored_sorted,2021.2.3,59.950313185943955,
C:\Users\subject\Desktop\SVRT Experiments\SVRT Experiment 3\svrt_images\generated_images\results_problem_4,,,,,C:\Users\subject\Desktop\SVRT Experiments\SVRT Experiment 3\svrt_images\generated_images\results_problem_4\sample_0_0006.png,,,,,,,,,,,,,,,,,,,0,4,4,4,0,13,13,13,,,,,,,,,,,,,,f,4,A,B,17,0,Incorrect!,0.21917599998414516,1192.2809192999848,None,1192.2809192999848,None,1192.5310998000205,None,,,,,68,001,2023-05-18_10h11.43.319,uncolored_sorted,2021.2.3,59.950313185943955,
C:\Users\subject\Desktop\SVRT Experiments\SVRT Experiment 3\svrt_images\generated_images\results_problem_4,,,,,C:\Users\subject\Desktop\SVRT Experiments\SVRT Experiment 3\svrt_images\generated_images\results_problem_4\sample_0_0008.png,,,,,,,,,,,,,,,,,,,0,4,4,4,0,14,14,14,,,,,,,,,,,,,,j,4,B,B,17,1,Correct!,0.2668656999594532,1193.6652947000111,None,1193.6652947000111,None,1193.9488341999822,None,,,,,68,001,2023-05-18_10h11.43.319,uncolored_sorted,2021.2.3,59.950313185943955,
C:\Users\subject\Desktop\SVRT Experiments\SVRT Experiment 3\svrt_images\generated_images\results_problem_4,,,,,C:\Users\subject\Desktop\SVRT Experiments\SVRT Experiment 3\svrt_images\generated_images\results_problem_4\sample_1_0000.png,,,,,,,,,,,,,,,,,,,0,4,4,4,0,15,15,15,,,,,,,,,,,,,,f,4,A,A,17,1,Correct!,4.1370141000370495,1195.0830353000201,None,1195.0830353000201,None,1199.2528390000225,None,,,,,68,001,2023-05-18_10h11.43.319,uncolored_sorted,2021.2.3,59.950313185943955,
C:\Users\subject\Desktop\SVRT Experiments\SVRT Experiment 3\svrt_images\generated_images\results_problem_4,,,,,C:\Users\subject\Desktop\SVRT Experiments\SVRT Experiment 3\svrt_images\generated_images\results_problem_4\sample_0_0001.png,,,,,,,,,,,,,,,,,,,0,4,4,4,0,16,16,16,,,,,,,,,,,,,,j,4,B,B,17,1,Correct!,2.609002699959092,1200.3870260000112,None,1200.3870260000112,None,1203.0223886999884,None,,,,,68,001,2023-05-18_10h11.43.319,uncolored_sorted,2021.2.3,59.950313185943955,
C:\Users\subject\Desktop\SVRT Experiments\SVRT Experiment 3\svrt_images\generated_images\results_problem_4,,,,,C:\Users\subject\Desktop\SVRT Experiments\SVRT Experiment 3\svrt_images\generated_images\results_problem_4\sample_1_0001.png,,,,,,,,,,,,,,,,,,,0,4,4,4,0,17,17,17,,,,,,,,,,,,,,f,4,A,A,17,1,Correct!,1.014770400011912,1204.1732213000068,None,1204.1732213000068,None,1205.224001900002,None,,,,,68,001,2023-05-18_10h11.43.319,uncolored_sorted,2021.2.3,59.950313185943955,
C:\Users\subject\Desktop\SVRT Experiments\SVRT Experiment 3\svrt_images\generated_images\results_problem_4,,,,,C:\Users\subject\Desktop\SVRT Experiments\SVRT Experiment 3\svrt_images\generated_images\results_problem_4\sample_0_0004.png,,,,,,,,,,,,,,,,,,,0,4,4,4,0,18,18,18,,,,,,,,,,,,,,j,4,B,B,17,1,Correct!,0.5891065999749117,1206.3748796000145,None,1206.3748796000145,None,1206.9920050000073,None,,,,,68,001,2023-05-18_10h11.43.319,uncolored_sorted,2021.2.3,59.950313185943955,
C:\Users\subject\Desktop\SVRT Experiments\SVRT Experiment 3\svrt_images\generated_images\results_problem_4,,,,,C:\Users\subject\Desktop\SVRT Experiments\SVRT Experiment 3\svrt_images\generated_images\results_problem_4\sample_0_0011.png,,,,,,,,,,,,,,,,,,,0,4,4,4,0,19,19,19,,,,,,,,,,,,,,j,4,B,B,17,1,Correct!,0.6923792999587022,1208.1595603000023,None,1208.1595603000023,None,1208.8767364000087,None,,,,,68,001,2023-05-18_10h11.43.319,uncolored_sorted,2021.2.3,59.950313185943955,
C:\Users\subject\Desktop\SVRT Experiments\SVRT Experiment 3\svrt_images\generated_images\results_problem_4,,,,,C:\Users\subject\Desktop\SVRT Experiments\SVRT Experiment 3\svrt_images\generated_images\results_problem_4\sample_0_0005.png,,,,,,,,,,,,,,,,,,,0,4,4,4,0,20,20,20,,,,,,,,,,,,,,j,4,B,B,17,1,Correct!,1.2389750000438653,1210.0609887000173,None,1210.0609887000173,None,1211.3452868000022,None,,,,,68,001,2023-05-18_10h11.43.319,uncolored_sorted,2021.2.3,59.950313185943955,
C:\Users\subject\Desktop\SVRT Experiments\SVRT Experiment 3\svrt_images\generated_images\results_problem_4,,,,,C:\Users\subject\Desktop\SVRT Experiments\SVRT Experiment 3\svrt_images\generated_images\results_problem_4\sample_1_0005.png,,,,,,,,,,,,,,,,,,,0,4,4,4,0,21,21,21,,,,,,,,,,,,,,,,,,,,,,,,,,,,1212.346037900017,1212.346037900017,space,1.0659027000074275,68,001,2023-05-18_10h11.43.319,uncolored_sorted,2021.2.3,59.950313185943955,
C:\Users\subject\Desktop\SVRT Experiments\SVRT Experiment 3\svrt_images\generated_images\results_problem_19,,,,,C:\Users\subject\Desktop\SVRT Experiments\SVRT Experiment 3\svrt_images\generated_images\results_problem_4\sample_1_0005.png,C:\Users\subject\Desktop\SVRT Experiments\SVRT Experiment 3\svrt_images\generated_images\results_problem_19\sample_1_0009.png,,,,,,,,,,,,,,,,,,0,5,5,5,0,0,0,0,,,,,,,,,,,,,,j,19,B,A,17,0,Incorrect!,1.8378064000280574,1213.4301905999891,None,1213.4301905999891,None,1215.298247000028,None,,,,,68,001,2023-05-18_10h11.43.319,uncolored_sorted,2021.2.3,59.950313185943955,
C:\Users\subject\Desktop\SVRT Experiments\SVRT Experiment 3\svrt_images\generated_images\results_problem_19,,,,,C:\Users\subject\Desktop\SVRT Experiments\SVRT Experiment 3\svrt_images\generated_images\results_problem_4\sample_1_0005.png,C:\Users\subject\Desktop\SVRT Experiments\SVRT Experiment 3\svrt_images\generated_images\results_problem_19\sample_1_0012.png,,,,,,,,,,,,,,,,,,0,5,5,5,0,1,1,1,,,,,,,,,,,,,,j,19,B,A,17,0,Incorrect!,3.424951900029555,1216.2990271000308,None,1216.2990271000308,None,1219.7516177999787,None,,,,,68,001,2023-05-18_10h11.43.319,uncolored_sorted,2021.2.3,59.950313185943955,
C:\Users\subject\Desktop\SVRT Experiments\SVRT Experiment 3\svrt_images\generated_images\results_problem_19,,,,,C:\Users\subject\Desktop\SVRT Experiments\SVRT Experiment 3\svrt_images\generated_images\results_problem_4\sample_1_0005.png,C:\Users\subject\Desktop\SVRT Experiments\SVRT Experiment 3\svrt_images\generated_images\results_problem_19\sample_0_0013.png,,,,,,,,,,,,,,,,,,0,5,5,5,0,2,2,2,,,,,,,,,,,,,,f,19,A,B,17,0,Incorrect!,0.7307543999631889,1220.7690597000183,None,1220.7690597000183,None,1221.5196178000188,None,,,,,68,001,2023-05-18_10h11.43.319,uncolored_sorted,2021.2.3,59.950313185943955,
C:\Users\subject\Desktop\SVRT Experiments\SVRT Experiment 3\svrt_images\generated_images\results_problem_19,,,,,C:\Users\subject\Desktop\SVRT Experiments\SVRT Experiment 3\svrt_images\generated_images\results_problem_4\sample_1_0005.png,C:\Users\subject\Desktop\SVRT Experiments\SVRT Experiment 3\svrt_images\generated_images\results_problem_19\sample_0_0016.png,,,,,,,,,,,,,,,,,,0,5,5,5,0,3,3,3,,,,,,,,,,,,,,j,19,B,B,17,1,Correct!,7.546680099971127,1222.5370877999812,None,1222.5370877999812,None,1230.1094116999884,None,,,,,68,001,2023-05-18_10h11.43.319,uncolored_sorted,2021.2.3,59.950313185943955,
C:\Users\subject\Desktop\SVRT Experiments\SVRT Experiment 3\svrt_images\generated_images\results_problem_19,,,,,C:\Users\subject\Desktop\SVRT Experiments\SVRT Experiment 3\svrt_images\generated_images\results_problem_4\sample_1_0005.png,C:\Users\subject\Desktop\SVRT Experiments\SVRT Experiment 3\svrt_images\generated_images\results_problem_19\sample_0_0000.png,,,,,,,,,,,,,,,,,,0,5,5,5,0,4,4,4,,,,,,,,,,,,,,j,19,B,B,17,1,Correct!,1.0762652000412345,1231.1435486000264,None,1231.1435486000264,None,1232.2443738000002,None,,,,,68,001,2023-05-18_10h11.43.319,uncolored_sorted,2021.2.3,59.950313185943955,
C:\Users\subject\Desktop\SVRT Experiments\SVRT Experiment 3\svrt_images\generated_images\results_problem_19,,,,,C:\Users\subject\Desktop\SVRT Experiments\SVRT Experiment 3\svrt_images\generated_images\results_problem_4\sample_1_0005.png,C:\Users\subject\Desktop\SVRT Experiments\SVRT Experiment 3\svrt_images\generated_images\results_problem_19\sample_1_0002.png,,,,,,,,,,,,,,,,,,0,5,5,5,0,5,5,5,,,,,,,,,,,,,,f,19,A,A,17,1,Correct!,4.749228999949992,1233.278493800026,None,1233.278493800026,None,1238.048724799999,None,,,,,68,001,2023-05-18_10h11.43.319,uncolored_sorted,2021.2.3,59.950313185943955,
C:\Users\subject\Desktop\SVRT Experiments\SVRT Experiment 3\svrt_images\generated_images\results_problem_19,,,,,C:\Users\subject\Desktop\SVRT Experiments\SVRT Experiment 3\svrt_images\generated_images\results_problem_4\sample_1_0005.png,C:\Users\subject\Desktop\SVRT Experiments\SVRT Experiment 3\svrt_images\generated_images\results_problem_19\sample_0_0015.png,,,,,,,,,,,,,,,,,,0,5,5,5,0,6,6,6,,,,,,,,,,,,,,j,19,B,B,17,1,Correct!,1.8001881999662146,1239.0995528000058,None,1239.0995528000058,None,1240.917580600013,None,,,,,68,001,2023-05-18_10h11.43.319,uncolored_sorted,2021.2.3,59.950313185943955,
C:\Users\subject\Desktop\SVRT Experiments\SVRT Experiment 3\svrt_images\generated_images\results_problem_19,,,,,C:\Users\subject\Desktop\SVRT Experiments\SVRT Experiment 3\svrt_images\generated_images\results_problem_4\sample_1_0005.png,C:\Users\subject\Desktop\SVRT Experiments\SVRT Experiment 3\svrt_images\generated_images\results_problem_19\sample_1_0016.png,,,,,,,,,,,,,,,,,,0,5,5,5,0,7,7,7,,,,,,,,,,,,,,j,19,B,A,17,0,Incorrect!,2.7473350999644026,1241.9683771000127,None,1241.9683771000127,None,1244.7371229000273,None,,,,,68,001,2023-05-18_10h11.43.319,uncolored_sorted,2021.2.3,59.950313185943955,
C:\Users\subject\Desktop\SVRT Experiments\SVRT Experiment 3\svrt_images\generated_images\results_problem_19,,,,,C:\Users\subject\Desktop\SVRT Experiments\SVRT Experiment 3\svrt_images\generated_images\results_problem_4\sample_1_0005.png,C:\Users\subject\Desktop\SVRT Experiments\SVRT Experiment 3\svrt_images\generated_images\results_problem_19\sample_0_0006.png,,,,,,,,,,,,,,,,,,0,5,5,5,0,8,8,8,,,,,,,,,,,,,,f,19,A,B,17,0,Incorrect!,4.462771299993619,1245.8049088999978,None,1245.8049088999978,None,1250.2913116000127,None,,,,,68,001,2023-05-18_10h11.43.319,uncolored_sorted,2021.2.3,59.950313185943955,
C:\Users\subject\Desktop\SVRT Experiments\SVRT Experiment 3\svrt_images\generated_images\results_problem_19,,,,,C:\Users\subject\Desktop\SVRT Experiments\SVRT Experiment 3\svrt_images\generated_images\results_problem_4\sample_1_0005.png,C:\Users\subject\Desktop\SVRT Experiments\SVRT Experiment 3\svrt_images\generated_images\results_problem_19\sample_1_0000.png,,,,,,,,,,,,,,,,,,0,5,5,5,0,9,9,9,,,,,,,,,,,,,,j,19,B,A,17,0,Incorrect!,4.340925400028937,1251.3587892000214,None,1251.3587892000214,None,1255.7287441000226,None,,,,,68,001,2023-05-18_10h11.43.319,uncolored_sorted,2021.2.3,59.950313185943955,
C:\Users\subject\Desktop\SVRT Experiments\SVRT Experiment 3\svrt_images\generated_images\results_problem_19,,,,,C:\Users\subject\Desktop\SVRT Experiments\SVRT Experiment 3\svrt_images\generated_images\results_problem_4\sample_1_0005.png,C:\Users\subject\Desktop\SVRT Experiments\SVRT Experiment 3\svrt_images\generated_images\results_problem_19\sample_1_0005.png,,,,,,,,,,,,,,,,,,0,5,5,5,0,10,10,10,,,,,,,,,,,,,,f,19,A,A,17,1,Correct!,2.270714400045108,1256.812902399979,None,1256.812902399979,None,1259.1146333999932,None,,,,,68,001,2023-05-18_10h11.43.319,uncolored_sorted,2021.2.3,59.950313185943955,
C:\Users\subject\Desktop\SVRT Experiments\SVRT Experiment 3\svrt_images\generated_images\results_problem_19,,,,,C:\Users\subject\Desktop\SVRT Experiments\SVRT Experiment 3\svrt_images\generated_images\results_problem_4\sample_1_0005.png,C:\Users\subject\Desktop\SVRT Experiments\SVRT Experiment 3\svrt_images\generated_images\results_problem_19\sample_1_0013.png,,,,,,,,,,,,,,,,,,0,5,5,5,0,11,11,11,,,,,,,,,,,,,,j,19,B,A,17,0,Incorrect!,8.70884230005322,1260.198787100031,None,1260.198787100031,None,1268.9387031000224,None,,,,,68,001,2023-05-18_10h11.43.319,uncolored_sorted,2021.2.3,59.950313185943955,
C:\Users\subject\Desktop\SVRT Experiments\SVRT Experiment 3\svrt_images\generated_images\results_problem_19,,,,,C:\Users\subject\Desktop\SVRT Experiments\SVRT Experiment 3\svrt_images\generated_images\results_problem_4\sample_1_0005.png,C:\Users\subject\Desktop\SVRT Experiments\SVRT Experiment 3\svrt_images\generated_images\results_problem_19\sample_0_0012.png,,,,,,,,,,,,,,,,,,0,5,5,5,0,12,12,12,,,,,,,,,,,,,,f,19,A,B,17,0,Incorrect!,1.3639793999609537,1270.039539200021,None,1270.039539200021,None,1271.4239152999944,None,,,,,68,001,2023-05-18_10h11.43.319,uncolored_sorted,2021.2.3,59.950313185943955,
C:\Users\subject\Desktop\SVRT Experiments\SVRT Experiment 3\svrt_images\generated_images\results_problem_19,,,,,C:\Users\subject\Desktop\SVRT Experiments\SVRT Experiment 3\svrt_images\generated_images\results_problem_4\sample_1_0005.png,C:\Users\subject\Desktop\SVRT Experiments\SVRT Experiment 3\svrt_images\generated_images\results_problem_19\sample_0_0005.png,,,,,,,,,,,,,,,,,,0,5,5,5,0,13,13,13,,,,,,,,,,,,,,f,19,A,B,17,0,Incorrect!,6.5107130000251345,1272.5247441999963,None,1272.5247441999963,None,1279.063002699986,None,,,,,68,001,2023-05-18_10h11.43.319,uncolored_sorted,2021.2.3,59.950313185943955,
C:\Users\subject\Desktop\SVRT Experiments\SVRT Experiment 3\svrt_images\generated_images\results_problem_19,,,,,C:\Users\subject\Desktop\SVRT Experiments\SVRT Experiment 3\svrt_images\generated_images\results_problem_4\sample_1_0005.png,C:\Users\subject\Desktop\SVRT Experiments\SVRT Experiment 3\svrt_images\generated_images\results_problem_19\sample_1_0006.png,,,,,,,,,,,,,,,,,,0,5,5,5,0,14,14,14,,,,,,,,,,,,,,f,19,A,A,17,1,Correct!,2.6949059999897145,1280.1805178999784,None,1280.1805178999784,None,1282.8992305999855,None,,,,,68,001,2023-05-18_10h11.43.319,uncolored_sorted,2021.2.3,59.950313185943955,
C:\Users\subject\Desktop\SVRT Experiments\SVRT Experiment 3\svrt_images\generated_images\results_problem_19,,,,,C:\Users\subject\Desktop\SVRT Experiments\SVRT Experiment 3\svrt_images\generated_images\results_problem_4\sample_1_0005.png,C:\Users\subject\Desktop\SVRT Experiments\SVRT Experiment 3\svrt_images\generated_images\results_problem_19\sample_0_0003.png,,,,,,,,,,,,,,,,,,0,5,5,5,0,15,15,15,,,,,,,,,,,,,,j,19,B,B,17,1,Correct!,2.914664200041443,1284.0167523000273,None,1284.0167523000273,None,1286.9522806000314,None,,,,,68,001,2023-05-18_10h11.43.319,uncolored_sorted,2021.2.3,59.950313185943955,
C:\Users\subject\Desktop\SVRT Experiments\SVRT Experiment 3\svrt_images\generated_images\results_problem_19,,,,,C:\Users\subject\Desktop\SVRT Experiments\SVRT Experiment 3\svrt_images\generated_images\results_problem_4\sample_1_0005.png,C:\Users\subject\Desktop\SVRT Experiments\SVRT Experiment 3\svrt_images\generated_images\results_problem_19\sample_1_0007.png,,,,,,,,,,,,,,,,,,0,5,5,5,0,16,16,16,,,,,,,,,,,,,,f,19,A,A,17,1,Correct!,13.028831699979492,1288.0864947999944,None,1288.0864947999944,None,1301.146311199991,None,,,,,68,001,2023-05-18_10h11.43.319,uncolored_sorted,2021.2.3,59.950313185943955,
C:\Users\subject\Desktop\SVRT Experiments\SVRT Experiment 3\svrt_images\generated_images\results_problem_19,,,,,C:\Users\subject\Desktop\SVRT Experiments\SVRT Experiment 3\svrt_images\generated_images\results_problem_4\sample_1_0005.png,C:\Users\subject\Desktop\SVRT Experiments\SVRT Experiment 3\svrt_images\generated_images\results_problem_19\sample_1_0003.png,,,,,,,,,,,,,,,,,,0,5,5,5,0,17,17,17,,,,,,,,,,,,,,f,19,A,A,17,1,Correct!,3.466056299977936,1302.2971845000284,None,1302.2971845000284,None,1305.783120499982,None,,,,,68,001,2023-05-18_10h11.43.319,uncolored_sorted,2021.2.3,59.950313185943955,
C:\Users\subject\Desktop\SVRT Experiments\SVRT Experiment 3\svrt_images\generated_images\results_problem_19,,,,,C:\Users\subject\Desktop\SVRT Experiments\SVRT Experiment 3\svrt_images\generated_images\results_problem_4\sample_1_0005.png,C:\Users\subject\Desktop\SVRT Experiments\SVRT Experiment 3\svrt_images\generated_images\results_problem_19\sample_1_0001.png,,,,,,,,,,,,,,,,,,0,5,5,5,0,18,18,18,,,,,,,,,,,,,,j,19,B,A,17,0,Incorrect!,4.940512400004081,1306.9507021000027,None,1306.9507021000027,None,1311.9377903999994,None,,,,,68,001,2023-05-18_10h11.43.319,uncolored_sorted,2021.2.3,59.950313185943955,
C:\Users\subject\Desktop\SVRT Experiments\SVRT Experiment 3\svrt_images\generated_images\results_problem_19,,,,,C:\Users\subject\Desktop\SVRT Experiments\SVRT Experiment 3\svrt_images\generated_images\results_problem_4\sample_1_0005.png,C:\Users\subject\Desktop\SVRT Experiments\SVRT Experiment 3\svrt_images\generated_images\results_problem_19\sample_1_0011.png,,,,,,,,,,,,,,,,,,0,5,5,5,0,19,19,19,,,,,,,,,,,,,,f,19,A,A,17,1,Correct!,2.4418608999694698,1313.1053389000008,None,1313.1053389000008,None,1315.590543200029,None,,,,,68,001,2023-05-18_10h11.43.319,uncolored_sorted,2021.2.3,59.950313185943955,
C:\Users\subject\Desktop\SVRT Experiments\SVRT Experiment 3\svrt_images\generated_images\results_problem_19,,,,,C:\Users\subject\Desktop\SVRT Experiments\SVRT Experiment 3\svrt_images\generated_images\results_problem_4\sample_1_0005.png,C:\Users\subject\Desktop\SVRT Experiments\SVRT Experiment 3\svrt_images\generated_images\results_problem_19\sample_1_0010.png,,,,,,,,,,,,,,,,,,0,5,5,5,0,20,20,20,,,,,,,,,,,,,,f,19,A,A,17,1,Correct!,5.741039999993518,1316.7580970000126,None,1316.7580970000126,None,1322.5457586999983,None,,,,,68,001,2023-05-18_10h11.43.319,uncolored_sorted,2021.2.3,59.950313185943955,
C:\Users\subject\Desktop\SVRT Experiments\SVRT Experiment 3\svrt_images\generated_images\results_problem_19,,,,,C:\Users\subject\Desktop\SVRT Experiments\SVRT Experiment 3\svrt_images\generated_images\results_problem_4\sample_1_0005.png,C:\Users\subject\Desktop\SVRT Experiments\SVRT Experiment 3\svrt_images\generated_images\results_problem_19\sample_0_0001.png,,,,,,,,,,,,,,,,,,0,5,5,5,0,21,21,21,,,,,,,,,,,,,,j,19,B,B,17,1,Correct!,1.361114900035318,1323.7300152999815,None,1323.7300152999815,None,1325.1143883999903,None,,,,,68,001,2023-05-18_10h11.43.319,uncolored_sorted,2021.2.3,59.950313185943955,
C:\Users\subject\Desktop\SVRT Experiments\SVRT Experiment 3\svrt_images\generated_images\results_problem_19,,,,,C:\Users\subject\Desktop\SVRT Experiments\SVRT Experiment 3\svrt_images\generated_images\results_problem_4\sample_1_0005.png,C:\Users\subject\Desktop\SVRT Experiments\SVRT Experiment 3\svrt_images\generated_images\results_problem_19\sample_1_0008.png,,,,,,,,,,,,,,,,,,0,5,5,5,0,22,22,22,,,,,,,,,,,,,,f,19,A,A,17,1,Correct!,0.9759017000324093,1326.3153024999774,None,1326.3153024999774,None,1327.332725299988,None,,,,,68,001,2023-05-18_10h11.43.319,uncolored_sorted,2021.2.3,59.950313185943955,
C:\Users\subject\Desktop\SVRT Experiments\SVRT Experiment 3\svrt_images\generated_images\results_problem_19,,,,,C:\Users\subject\Desktop\SVRT Experiments\SVRT Experiment 3\svrt_images\generated_images\results_problem_4\sample_1_0005.png,C:\Users\subject\Desktop\SVRT Experiments\SVRT Experiment 3\svrt_images\generated_images\results_problem_19\sample_0_0009.png,,,,,,,,,,,,,,,,,,0,5,5,5,0,23,23,23,,,,,,,,,,,,,,j,19,B,B,17,1,Correct!,1.5174794000340626,1328.5336375000188,None,1328.5336375000188,None,1330.0848014000221,None,,,,,68,001,2023-05-18_10h11.43.319,uncolored_sorted,2021.2.3,59.950313185943955,
C:\Users\subject\Desktop\SVRT Experiments\SVRT Experiment 3\svrt_images\generated_images\results_problem_19,,,,,C:\Users\subject\Desktop\SVRT Experiments\SVRT Experiment 3\svrt_images\generated_images\results_problem_4\sample_1_0005.png,C:\Users\subject\Desktop\SVRT Experiments\SVRT Experiment 3\svrt_images\generated_images\results_problem_19\sample_0_0008.png,,,,,,,,,,,,,,,,,,0,5,5,5,0,24,24,24,,,,,,,,,,,,,,j,19,B,B,17,1,Correct!,1.0286471000290476,1331.3023893000209,None,1331.3023893000209,None,1332.3698284000275,None,,,,,68,001,2023-05-18_10h11.43.319,uncolored_sorted,2021.2.3,59.950313185943955,
C:\Users\subject\Desktop\SVRT Experiments\SVRT Experiment 3\svrt_images\generated_images\results_problem_19,,,,,C:\Users\subject\Desktop\SVRT Experiments\SVRT Experiment 3\svrt_images\generated_images\results_problem_4\sample_1_0005.png,C:\Users\subject\Desktop\SVRT Experiments\SVRT Experiment 3\svrt_images\generated_images\results_problem_19\sample_0_0007.png,,,,,,,,,,,,,,,,,,0,5,5,5,0,25,25,25,,,,,,,,,,,,,,j,19,B,B,17,1,Correct!,1.0629134000046179,1333.6041084000026,None,1333.6041084000026,None,1334.7216271000216,None,,,,,68,001,2023-05-18_10h11.43.319,uncolored_sorted,2021.2.3,59.950313185943955,
C:\Users\subject\Desktop\SVRT Experiments\SVRT Experiment 3\svrt_images\generated_images\results_problem_19,,,,,C:\Users\subject\Desktop\SVRT Experiments\SVRT Experiment 3\svrt_images\generated_images\results_problem_4\sample_1_0005.png,C:\Users\subject\Desktop\SVRT Experiments\SVRT Experiment 3\svrt_images\generated_images\results_problem_19\sample_1_0014.png,,,,,,,,,,,,,,,,,,0,5,5,5,0,26,26,26,,,,,,,,,,,,,,,,,,,,,,,,,,,,1335.7223580999998,1335.7223580999998,space,0.9286501000169665,68,001,2023-05-18_10h11.43.319,uncolored_sorted,2021.2.3,59.950313185943955,
C:\Users\subject\Desktop\SVRT Experiments\SVRT Experiment 3\svrt_images\generated_images\results_problem_10,,,,,C:\Users\subject\Desktop\SVRT Experiments\SVRT Experiment 3\svrt_images\generated_images\results_problem_4\sample_1_0005.png,C:\Users\subject\Desktop\SVRT Experiments\SVRT Experiment 3\svrt_images\generated_images\results_problem_19\sample_1_0014.png,C:\Users\subject\Desktop\SVRT Experiments\SVRT Experiment 3\svrt_images\generated_images\results_problem_10\sample_1_0000.png,,,,,,,,,,,,,,,,,0,6,6,6,0,0,0,0,,,,,,,,,,,,,,f,10,A,A,17,1,Correct!,5.2739086000365205,1336.673083600006,None,1336.673083600006,None,1341.977100900025,None,,,,,68,001,2023-05-18_10h11.43.319,uncolored_sorted,2021.2.3,59.950313185943955,
C:\Users\subject\Desktop\SVRT Experiments\SVRT Experiment 3\svrt_images\generated_images\results_problem_10,,,,,C:\Users\subject\Desktop\SVRT Experiments\SVRT Experiment 3\svrt_images\generated_images\results_problem_4\sample_1_0005.png,C:\Users\subject\Desktop\SVRT Experiments\SVRT Experiment 3\svrt_images\generated_images\results_problem_19\sample_1_0014.png,C:\Users\subject\Desktop\SVRT Experiments\SVRT Experiment 3\svrt_images\generated_images\results_problem_10\sample_1_0007.png,,,,,,,,,,,,,,,,,0,6,6,6,0,1,1,1,,,,,,,,,,,,,,f,10,A,A,17,1,Correct!,1.041133999999147,1342.9778283000342,None,1342.9778283000342,None,1344.0453062999877,None,,,,,68,001,2023-05-18_10h11.43.319,uncolored_sorted,2021.2.3,59.950313185943955,
C:\Users\subject\Desktop\SVRT Experiments\SVRT Experiment 3\svrt_images\generated_images\results_problem_10,,,,,C:\Users\subject\Desktop\SVRT Experiments\SVRT Experiment 3\svrt_images\generated_images\results_problem_4\sample_1_0005.png,C:\Users\subject\Desktop\SVRT Experiments\SVRT Experiment 3\svrt_images\generated_images\results_problem_19\sample_1_0014.png,C:\Users\subject\Desktop\SVRT Experiments\SVRT Experiment 3\svrt_images\generated_images\results_problem_10\sample_1_0003.png,,,,,,,,,,,,,,,,,0,6,6,6,0,2,2,2,,,,,,,,,,,,,,f,10,A,A,17,1,Correct!,0.5242408000049181,1345.0627531000064,None,1345.0627531000064,None,1345.6131523000076,None,,,,,68,001,2023-05-18_10h11.43.319,uncolored_sorted,2021.2.3,59.950313185943955,
C:\Users\subject\Desktop\SVRT Experiments\SVRT Experiment 3\svrt_images\generated_images\results_problem_10,,,,,C:\Users\subject\Desktop\SVRT Experiments\SVRT Experiment 3\svrt_images\generated_images\results_problem_4\sample_1_0005.png,C:\Users\subject\Desktop\SVRT Experiments\SVRT Experiment 3\svrt_images\generated_images\results_problem_19\sample_1_0014.png,C:\Users\subject\Desktop\SVRT Experiments\SVRT Experiment 3\svrt_images\generated_images\results_problem_10\sample_0_0008.png,,,,,,,,,,,,,,,,,0,6,6,6,0,3,3,3,,,,,,,,,,,,,,j,10,B,B,17,1,Correct!,0.6764794000191614,1346.6305711999885,None,1346.6305711999885,None,1347.3311189999804,None,,,,,68,001,2023-05-18_10h11.43.319,uncolored_sorted,2021.2.3,59.950313185943955,
C:\Users\subject\Desktop\SVRT Experiments\SVRT Experiment 3\svrt_images\generated_images\results_problem_10,,,,,C:\Users\subject\Desktop\SVRT Experiments\SVRT Experiment 3\svrt_images\generated_images\results_problem_4\sample_1_0005.png,C:\Users\subject\Desktop\SVRT Experiments\SVRT Experiment 3\svrt_images\generated_images\results_problem_19\sample_1_0014.png,C:\Users\subject\Desktop\SVRT Experiments\SVRT Experiment 3\svrt_images\generated_images\results_problem_10\sample_0_0011.png,,,,,,,,,,,,,,,,,0,6,6,6,0,4,4,4,,,,,,,,,,,,,,j,10,B,B,17,1,Correct!,1.2856168000143953,1348.3652519999887,None,1348.3652519999887,None,1349.6828838000074,None,,,,,68,001,2023-05-18_10h11.43.319,uncolored_sorted,2021.2.3,59.950313185943955,
C:\Users\subject\Desktop\SVRT Experiments\SVRT Experiment 3\svrt_images\generated_images\results_problem_10,,,,,C:\Users\subject\Desktop\SVRT Experiments\SVRT Experiment 3\svrt_images\generated_images\results_problem_4\sample_1_0005.png,C:\Users\subject\Desktop\SVRT Experiments\SVRT Experiment 3\svrt_images\generated_images\results_problem_19\sample_1_0014.png,C:\Users\subject\Desktop\SVRT Experiments\SVRT Experiment 3\svrt_images\generated_images\results_problem_10\sample_1_0016.png,,,,,,,,,,,,,,,,,0,6,6,6,0,5,5,5,,,,,,,,,,,,,,f,10,A,A,17,1,Correct!,0.7419083000277169,1350.717008000007,None,1350.717008000007,None,1351.4842668999918,None,,,,,68,001,2023-05-18_10h11.43.319,uncolored_sorted,2021.2.3,59.950313185943955,
C:\Users\subject\Desktop\SVRT Experiments\SVRT Experiment 3\svrt_images\generated_images\results_problem_10,,,,,C:\Users\subject\Desktop\SVRT Experiments\SVRT Experiment 3\svrt_images\generated_images\results_problem_4\sample_1_0005.png,C:\Users\subject\Desktop\SVRT Experiments\SVRT Experiment 3\svrt_images\generated_images\results_problem_19\sample_1_0014.png,C:\Users\subject\Desktop\SVRT Experiments\SVRT Experiment 3\svrt_images\generated_images\results_problem_10\sample_0_0009.png,,,,,,,,,,,,,,,,,0,6,6,6,0,6,6,6,,,,,,,,,,,,,,j,10,B,B,17,1,Correct!,0.7798492999863811,1352.5350646000006,None,1352.5350646000006,None,1353.335648200009,None,,,,,68,001,2023-05-18_10h11.43.319,uncolored_sorted,2021.2.3,59.950313185943955,
