folder,results_problem_16,results_problem_4,results_problem_8,results_problem_21,results_problem_14,results_problem_2,results_problem_6,results_problem_9,results_problem_5,results_problem_19,results_problem_18,results_problem_15,results_problem_11,results_problem_13,results_problem_12,results_problem_22,results_problem_20,results_problem_17,results_problem_7,results_problem_1,results_problem_10,results_problem_3,results_problem_23,categories.thisRepN,categories.thisTrialN,categories.thisN,categories.thisIndex,trials.thisRepN,trials.thisTrialN,trials.thisN,trials.thisIndex,consent_text.started,consent_kb.started,consent_kb.keys,consent_kb.rt,Gender.keys,Gender.rt,Age,instructions_text.started,instructions_text.stopped,instructions_kb.keys,instructions_kb.rt,instructions_kb.started,instructions_kb.stopped,trial_kb.keys,current_problem_num,category_resp,answer,seed,accuracy,feedback,trial_kb.rt,trial_kb.started,trial_kb.stopped,trial_image.started,trial_image.stopped,feedback_text.started,feedback_text.stopped,new_problem_kb.started,new_problem_text.started,new_problem_kb.keys,new_problem_kb.rt,Participant #,session,date,expName,psychopyVersion,frameRate,
,,,,,,,,,,,,,,,,,,,,,,,,,,,,,,,,18.127730400068685,18.127730400068685,y,9.25411990005523,,,,,,,,,,,,,,,,,,,,,,,,,,,,77,001,2023-05-23_09h10.43.665,colored_shuffled,2021.2.3,59.99995198570309,
,,,,,,,,,,,,,,,,,,,,,,,,,,,,,,,,,,,,w,10.326580199995078,,,,,,,,,,,,,,,,,,,,,,,,,,77,001,2023-05-23_09h10.43.665,colored_shuffled,2021.2.3,59.99995198570309,
,,,,,,,,,,,,,,,,,,,,,,,,,,,,,,,,,,,,,,20,43.048684300039895,None,space,48.628474200027995,43.048684300039895,None,,,,,,,,,,,,,,,,,,,77,001,2023-05-23_09h10.43.665,colored_shuffled,2021.2.3,59.99995198570309,
C:\Users\subject\Desktop\SVRT Experiments\SVRT Experiment 3\svrt_images\generated_images\results_problem_16,C:\Users\subject\Desktop\SVRT Experiments\SVRT Experiment 3\svrt_images\generated_images\results_problem_16\sample_1_0002.png,,,,,,,,,,,,,,,,,,,,,,,0,0,0,0,0,0,0,0,,,,,,,,,,,,,,f,16,A,A,20,1,Correct!,7.279617999913171,91.73350670002401,None,91.73350670002401,None,99.05072419997305,None,,,,,77,001,2023-05-23_09h10.43.665,colored_shuffled,2021.2.3,59.99995198570309,
C:\Users\subject\Desktop\SVRT Experiments\SVRT Experiment 3\svrt_images\generated_images\results_problem_16,C:\Users\subject\Desktop\SVRT Experiments\SVRT Experiment 3\svrt_images\generated_images\results_problem_16\sample_1_0015.png,,,,,,,,,,,,,,,,,,,,,,,0,0,0,0,0,1,1,1,,,,,,,,,,,,,,j,16,B,A,20,0,Incorrect!,3.4338733000913635,100.06731730001047,None,100.06731730001047,None,103.53413829999045,None,,,,,77,001,2023-05-23_09h10.43.665,colored_shuffled,2021.2.3,59.99995198570309,
C:\Users\subject\Desktop\SVRT Experiments\SVRT Experiment 3\svrt_images\generated_images\results_problem_16,C:\Users\subject\Desktop\SVRT Experiments\SVRT Experiment 3\svrt_images\generated_images\results_problem_16\sample_0_0001.png,,,,,,,,,,,,,,,,,,,,,,,0,0,0,0,0,2,2,2,,,,,,,,,,,,,,f,16,A,B,20,0,Incorrect!,2.078252900042571,104.55080420000013,None,104.55080420000013,None,106.65094469999894,None,,,,,77,001,2023-05-23_09h10.43.665,colored_shuffled,2021.2.3,59.99995198570309,
C:\Users\subject\Desktop\SVRT Experiments\SVRT Experiment 3\svrt_images\generated_images\results_problem_16,C:\Users\subject\Desktop\SVRT Experiments\SVRT Experiment 3\svrt_images\generated_images\results_problem_16\sample_1_0003.png,,,,,,,,,,,,,,,,,,,,,,,0,0,0,0,0,3,3,3,,,,,,,,,,,,,,f,16,A,A,20,1,Correct!,4.216829399927519,107.68420440005139,None,107.68420440005139,None,111.91772360005416,None,,,,,77,001,2023-05-23_09h10.43.665,colored_shuffled,2021.2.3,59.99995198570309,
C:\Users\subject\Desktop\SVRT Experiments\SVRT Experiment 3\svrt_images\generated_images\results_problem_16,C:\Users\subject\Desktop\SVRT Experiments\SVRT Experiment 3\svrt_images\generated_images\results_problem_16\sample_1_0016.png,,,,,,,,,,,,,,,,,,,,,,,0,0,0,0,0,4,4,4,,,,,,,,,,,,,,j,16,B,A,20,0,Incorrect!,1.0612325000111014,112.9677067999728,None,112.9677067999728,None,114.05111000000034,None,,,,,77,001,2023-05-23_09h10.43.665,colored_shuffled,2021.2.3,59.99995198570309,
C:\Users\subject\Desktop\SVRT Experiments\SVRT Experiment 3\svrt_images\generated_images\results_problem_16,C:\Users\subject\Desktop\SVRT Experiments\SVRT Experiment 3\svrt_images\generated_images\results_problem_16\sample_0_0004.png,,,,,,,,,,,,,,,,,,,,,,,0,0,0,0,0,5,5,5,,,,,,,,,,,,,,f,16,A,B,20,0,Incorrect!,7.303119899937883,115.11783820006531,None,115.11783820006531,None,122.4513680000091,None,,,,,77,001,2023-05-23_09h10.43.665,colored_shuffled,2021.2.3,59.99995198570309,
C:\Users\subject\Desktop\SVRT Experiments\SVRT Experiment 3\svrt_images\generated_images\results_problem_16,C:\Users\subject\Desktop\SVRT Experiments\SVRT Experiment 3\svrt_images\generated_images\results_problem_16\sample_0_0014.png,,,,,,,,,,,,,,,,,,,,,,,0,0,0,0,0,6,6,6,,,,,,,,,,,,,,j,16,B,B,20,1,Correct!,1.6148360000224784,123.5180723000085,None,123.5180723000085,None,125.15143109997734,None,,,,,77,001,2023-05-23_09h10.43.665,colored_shuffled,2021.2.3,59.99995198570309,
C:\Users\subject\Desktop\SVRT Experiments\SVRT Experiment 3\svrt_images\generated_images\results_problem_16,C:\Users\subject\Desktop\SVRT Experiments\SVRT Experiment 3\svrt_images\generated_images\results_problem_16\sample_1_0007.png,,,,,,,,,,,,,,,,,,,,,,,0,0,0,0,0,7,7,7,,,,,,,,,,,,,,j,16,B,A,20,0,Incorrect!,0.9141707000089809,126.23481419996824,None,126.23481419996824,None,127.16819190001115,None,,,,,77,001,2023-05-23_09h10.43.665,colored_shuffled,2021.2.3,59.99995198570309,
C:\Users\subject\Desktop\SVRT Experiments\SVRT Experiment 3\svrt_images\generated_images\results_problem_16,C:\Users\subject\Desktop\SVRT Experiments\SVRT Experiment 3\svrt_images\generated_images\results_problem_16\sample_0_0015.png,,,,,,,,,,,,,,,,,,,,,,,0,0,0,0,0,8,8,8,,,,,,,,,,,,,,j,16,B,B,20,1,Correct!,0.8888010999653488,128.26823929999955,None,128.26823929999955,None,129.18491720000748,None,,,,,77,001,2023-05-23_09h10.43.665,colored_shuffled,2021.2.3,59.99995198570309,
C:\Users\subject\Desktop\SVRT Experiments\SVRT Experiment 3\svrt_images\generated_images\results_problem_16,C:\Users\subject\Desktop\SVRT Experiments\SVRT Experiment 3\svrt_images\generated_images\results_problem_16\sample_0_0008.png,,,,,,,,,,,,,,,,,,,,,,,0,0,0,0,0,9,9,9,,,,,,,,,,,,,,f,16,A,B,20,0,Incorrect!,10.199971900088713,130.28493379999418,None,130.28493379999418,None,140.50194490002468,None,,,,,77,001,2023-05-23_09h10.43.665,colored_shuffled,2021.2.3,59.99995198570309,
C:\Users\subject\Desktop\SVRT Experiments\SVRT Experiment 3\svrt_images\generated_images\results_problem_16,C:\Users\subject\Desktop\SVRT Experiments\SVRT Experiment 3\svrt_images\generated_images\results_problem_16\sample_1_0004.png,,,,,,,,,,,,,,,,,,,,,,,0,0,0,0,0,10,10,10,,,,,,,,,,,,,,j,16,B,A,20,0,Incorrect!,1.3469404999632388,141.60195449995808,None,141.60195449995808,None,142.96868030005135,None,,,,,77,001,2023-05-23_09h10.43.665,colored_shuffled,2021.2.3,59.99995198570309,
C:\Users\subject\Desktop\SVRT Experiments\SVRT Experiment 3\svrt_images\generated_images\results_problem_16,C:\Users\subject\Desktop\SVRT Experiments\SVRT Experiment 3\svrt_images\generated_images\results_problem_16\sample_1_0001.png,,,,,,,,,,,,,,,,,,,,,,,0,0,0,0,0,11,11,11,,,,,,,,,,,,,,f,16,A,A,20,1,Correct!,2.31872119999025,144.10201849997975,None,144.10201849997975,None,146.45211029995698,None,,,,,77,001,2023-05-23_09h10.43.665,colored_shuffled,2021.2.3,59.99995198570309,
C:\Users\subject\Desktop\SVRT Experiments\SVRT Experiment 3\svrt_images\generated_images\results_problem_16,C:\Users\subject\Desktop\SVRT Experiments\SVRT Experiment 3\svrt_images\generated_images\results_problem_16\sample_0_0007.png,,,,,,,,,,,,,,,,,,,,,,,0,0,0,0,0,12,12,12,,,,,,,,,,,,,,f,16,A,B,20,0,Incorrect!,0.5393556000199169,147.5854924999876,None,147.5854924999876,None,148.16885170002934,None,,,,,77,001,2023-05-23_09h10.43.665,colored_shuffled,2021.2.3,59.99995198570309,
C:\Users\subject\Desktop\SVRT Experiments\SVRT Experiment 3\svrt_images\generated_images\results_problem_16,C:\Users\subject\Desktop\SVRT Experiments\SVRT Experiment 3\svrt_images\generated_images\results_problem_16\sample_0_0000.png,,,,,,,,,,,,,,,,,,,,,,,0,0,0,0,0,13,13,13,,,,,,,,,,,,,,f,16,A,B,20,0,Incorrect!,0.6219389999751002,149.31887439999264,None,149.31887439999264,None,149.96889739995822,None,,,,,77,001,2023-05-23_09h10.43.665,colored_shuffled,2021.2.3,59.99995198570309,
C:\Users\subject\Desktop\SVRT Experiments\SVRT Experiment 3\svrt_images\generated_images\results_problem_16,C:\Users\subject\Desktop\SVRT Experiments\SVRT Experiment 3\svrt_images\generated_images\results_problem_16\sample_0_0005.png,,,,,,,,,,,,,,,,,,,,,,,0,0,0,0,0,14,14,14,,,,,,,,,,,,,,f,16,A,B,20,0,Incorrect!,6.277191699948162,151.13559840002563,None,151.13559840002563,None,157.45247570006177,None,,,,,77,001,2023-05-23_09h10.43.665,colored_shuffled,2021.2.3,59.99995198570309,
C:\Users\subject\Desktop\SVRT Experiments\SVRT Experiment 3\svrt_images\generated_images\results_problem_16,C:\Users\subject\Desktop\SVRT Experiments\SVRT Experiment 3\svrt_images\generated_images\results_problem_16\sample_0_0013.png,,,,,,,,,,,,,,,,,,,,,,,0,0,0,0,0,15,15,15,,,,,,,,,,,,,,f,16,A,B,20,0,Incorrect!,0.7454548999667168,158.61928099999204,None,158.61928099999204,None,159.4025599999586,None,,,,,77,001,2023-05-23_09h10.43.665,colored_shuffled,2021.2.3,59.99995198570309,
C:\Users\subject\Desktop\SVRT Experiments\SVRT Experiment 3\svrt_images\generated_images\results_problem_16,C:\Users\subject\Desktop\SVRT Experiments\SVRT Experiment 3\svrt_images\generated_images\results_problem_16\sample_1_0000.png,,,,,,,,,,,,,,,,,,,,,,,0,0,0,0,0,16,16,16,,,,,,,,,,,,,,f,16,A,A,20,1,Correct!,1.2188001000322402,160.58590219996404,None,160.58590219996404,None,161.83597460004967,None,,,,,77,001,2023-05-23_09h10.43.665,colored_shuffled,2021.2.3,59.99995198570309,
C:\Users\subject\Desktop\SVRT Experiments\SVRT Experiment 3\svrt_images\generated_images\results_problem_16,C:\Users\subject\Desktop\SVRT Experiments\SVRT Experiment 3\svrt_images\generated_images\results_problem_16\sample_1_0013.png,,,,,,,,,,,,,,,,,,,,,,,0,0,0,0,0,17,17,17,,,,,,,,,,,,,,f,16,A,A,20,1,Correct!,1.0326587000163272,163.03597500000615,None,163.03597500000615,None,164.08596890000626,None,,,,,77,001,2023-05-23_09h10.43.665,colored_shuffled,2021.2.3,59.99995198570309,
C:\Users\subject\Desktop\SVRT Experiments\SVRT Experiment 3\svrt_images\generated_images\results_problem_16,C:\Users\subject\Desktop\SVRT Experiments\SVRT Experiment 3\svrt_images\generated_images\results_problem_16\sample_0_0003.png,,,,,,,,,,,,,,,,,,,,,,,0,0,0,0,0,18,18,18,,,,,,,,,,,,,,f,16,A,B,20,0,Incorrect!,1.1586272999411449,165.28602030000184,None,165.28602030000184,None,166.50270519999322,None,,,,,77,001,2023-05-23_09h10.43.665,colored_shuffled,2021.2.3,59.99995198570309,
C:\Users\subject\Desktop\SVRT Experiments\SVRT Experiment 3\svrt_images\generated_images\results_problem_16,C:\Users\subject\Desktop\SVRT Experiments\SVRT Experiment 3\svrt_images\generated_images\results_problem_16\sample_1_0009.png,,,,,,,,,,,,,,,,,,,,,,,0,0,0,0,0,19,19,19,,,,,,,,,,,,,,j,16,B,A,20,0,Incorrect!,1.0845264999661595,167.73609250003938,None,167.73609250003938,None,168.85285450005904,None,,,,,77,001,2023-05-23_09h10.43.665,colored_shuffled,2021.2.3,59.99995198570309,
C:\Users\subject\Desktop\SVRT Experiments\SVRT Experiment 3\svrt_images\generated_images\results_problem_16,C:\Users\subject\Desktop\SVRT Experiments\SVRT Experiment 3\svrt_images\generated_images\results_problem_16\sample_0_0016.png,,,,,,,,,,,,,,,,,,,,,,,0,0,0,0,0,20,20,20,,,,,,,,,,,,,,f,16,A,B,20,0,Incorrect!,0.8464554999954998,170.08619870000985,None,170.08619870000985,None,170.9528602999635,None,,,,,77,001,2023-05-23_09h10.43.665,colored_shuffled,2021.2.3,59.99995198570309,
C:\Users\subject\Desktop\SVRT Experiments\SVRT Experiment 3\svrt_images\generated_images\results_problem_16,C:\Users\subject\Desktop\SVRT Experiments\SVRT Experiment 3\svrt_images\generated_images\results_problem_16\sample_0_0010.png,,,,,,,,,,,,,,,,,,,,,,,0,0,0,0,0,21,21,21,,,,,,,,,,,,,,f,16,A,B,20,0,Incorrect!,0.7528412999818102,172.21962960006204,None,172.21962960006204,None,173.03628030000255,None,,,,,77,001,2023-05-23_09h10.43.665,colored_shuffled,2021.2.3,59.99995198570309,
C:\Users\subject\Desktop\SVRT Experiments\SVRT Experiment 3\svrt_images\generated_images\results_problem_16,C:\Users\subject\Desktop\SVRT Experiments\SVRT Experiment 3\svrt_images\generated_images\results_problem_16\sample_1_0005.png,,,,,,,,,,,,,,,,,,,,,,,0,0,0,0,0,22,22,22,,,,,,,,,,,,,,j,16,B,A,20,0,Incorrect!,0.46889529994223267,174.31962359999306,None,174.31962359999306,None,174.85298490000423,None,,,,,77,001,2023-05-23_09h10.43.665,colored_shuffled,2021.2.3,59.99995198570309,
C:\Users\subject\Desktop\SVRT Experiments\SVRT Experiment 3\svrt_images\generated_images\results_problem_16,C:\Users\subject\Desktop\SVRT Experiments\SVRT Experiment 3\svrt_images\generated_images\results_problem_16\sample_1_0010.png,,,,,,,,,,,,,,,,,,,,,,,0,0,0,0,0,23,23,23,,,,,,,,,,,,,,f,16,A,A,20,1,Correct!,1.6208992999745533,176.11972840002272,None,176.11972840002272,None,177.78644200006966,None,,,,,77,001,2023-05-23_09h10.43.665,colored_shuffled,2021.2.3,59.99995198570309,
C:\Users\subject\Desktop\SVRT Experiments\SVRT Experiment 3\svrt_images\generated_images\results_problem_16,C:\Users\subject\Desktop\SVRT Experiments\SVRT Experiment 3\svrt_images\generated_images\results_problem_16\sample_1_0006.png,,,,,,,,,,,,,,,,,,,,,,,0,0,0,0,0,24,24,24,,,,,,,,,,,,,,f,16,A,A,20,1,Correct!,0.7020694001112133,179.08644810004625,None,179.08644810004625,None,179.83645040006377,None,,,,,77,001,2023-05-23_09h10.43.665,colored_shuffled,2021.2.3,59.99995198570309,
C:\Users\subject\Desktop\SVRT Experiments\SVRT Experiment 3\svrt_images\generated_images\results_problem_16,C:\Users\subject\Desktop\SVRT Experiments\SVRT Experiment 3\svrt_images\generated_images\results_problem_16\sample_1_0008.png,,,,,,,,,,,,,,,,,,,,,,,0,0,0,0,0,25,25,25,,,,,,,,,,,,,,f,16,A,A,20,1,Correct!,0.6913367999950424,181.153215700062,None,181.153215700062,None,181.9032607000554,None,,,,,77,001,2023-05-23_09h10.43.665,colored_shuffled,2021.2.3,59.99995198570309,
C:\Users\subject\Desktop\SVRT Experiments\SVRT Experiment 3\svrt_images\generated_images\results_problem_16,C:\Users\subject\Desktop\SVRT Experiments\SVRT Experiment 3\svrt_images\generated_images\results_problem_16\sample_0_0012.png,,,,,,,,,,,,,,,,,,,,,,,0,0,0,0,0,26,26,26,,,,,,,,,,,,,,f,16,A,B,20,0,Incorrect!,0.513235199963674,183.20326169999316,None,183.20326169999316,None,183.75328990002163,None,,,,,77,001,2023-05-23_09h10.43.665,colored_shuffled,2021.2.3,59.99995198570309,
C:\Users\subject\Desktop\SVRT Experiments\SVRT Experiment 3\svrt_images\generated_images\results_problem_16,C:\Users\subject\Desktop\SVRT Experiments\SVRT Experiment 3\svrt_images\generated_images\results_problem_16\sample_1_0011.png,,,,,,,,,,,,,,,,,,,,,,,0,0,0,0,0,27,27,27,,,,,,,,,,,,,,f,16,A,A,20,1,Correct!,0.8944182000122964,185.0699864999624,None,185.0699864999624,None,186.03667349996977,None,,,,,77,001,2023-05-23_09h10.43.665,colored_shuffled,2021.2.3,59.99995198570309,
C:\Users\subject\Desktop\SVRT Experiments\SVRT Experiment 3\svrt_images\generated_images\results_problem_16,C:\Users\subject\Desktop\SVRT Experiments\SVRT Experiment 3\svrt_images\generated_images\results_problem_16\sample_0_0011.png,,,,,,,,,,,,,,,,,,,,,,,0,0,0,0,0,28,28,28,,,,,,,,,,,,,,f,16,A,B,20,0,Incorrect!,0.6583461998961866,187.37005819997285,None,187.37005819997285,None,188.08673650003038,None,,,,,77,001,2023-05-23_09h10.43.665,colored_shuffled,2021.2.3,59.99995198570309,
C:\Users\subject\Desktop\SVRT Experiments\SVRT Experiment 3\svrt_images\generated_images\results_problem_16,C:\Users\subject\Desktop\SVRT Experiments\SVRT Experiment 3\svrt_images\generated_images\results_problem_16\sample_0_0002.png,,,,,,,,,,,,,,,,,,,,,,,0,0,0,0,0,29,29,29,,,,,,,,,,,,,,f,16,A,B,20,0,Incorrect!,0.6722551999846473,189.4201280999696,None,189.4201280999696,None,190.18680899997707,None,,,,,77,001,2023-05-23_09h10.43.665,colored_shuffled,2021.2.3,59.99995198570309,
C:\Users\subject\Desktop\SVRT Experiments\SVRT Experiment 3\svrt_images\generated_images\results_problem_16,C:\Users\subject\Desktop\SVRT Experiments\SVRT Experiment 3\svrt_images\generated_images\results_problem_16\sample_1_0012.png,,,,,,,,,,,,,,,,,,,,,,,0,0,0,0,0,30,30,30,,,,,,,,,,,,,,f,16,A,A,20,1,Correct!,0.9388343999162316,191.55353450006805,None,191.55353450006805,None,192.57019670004956,None,,,,,77,001,2023-05-23_09h10.43.665,colored_shuffled,2021.2.3,59.99995198570309,
C:\Users\subject\Desktop\SVRT Experiments\SVRT Experiment 3\svrt_images\generated_images\results_problem_16,C:\Users\subject\Desktop\SVRT Experiments\SVRT Experiment 3\svrt_images\generated_images\results_problem_16\sample_1_0014.png,,,,,,,,,,,,,,,,,,,,,,,0,0,0,0,0,31,31,31,,,,,,,,,,,,,,j,16,B,A,20,0,Incorrect!,1.04343359998893,193.93692879995797,None,193.93692879995797,None,195.0369323999621,None,,,,,77,001,2023-05-23_09h10.43.665,colored_shuffled,2021.2.3,59.99995198570309,
C:\Users\subject\Desktop\SVRT Experiments\SVRT Experiment 3\svrt_images\generated_images\results_problem_16,C:\Users\subject\Desktop\SVRT Experiments\SVRT Experiment 3\svrt_images\generated_images\results_problem_16\sample_0_0009.png,,,,,,,,,,,,,,,,,,,,,,,0,0,0,0,0,32,32,32,,,,,,,,,,,,,,f,16,A,B,20,0,Incorrect!,1.5760214000474662,196.4203503000317,None,196.4203503000317,None,198.03704219998326,None,,,,,77,001,2023-05-23_09h10.43.665,colored_shuffled,2021.2.3,59.99995198570309,
C:\Users\subject\Desktop\SVRT Experiments\SVRT Experiment 3\svrt_images\generated_images\results_problem_16,C:\Users\subject\Desktop\SVRT Experiments\SVRT Experiment 3\svrt_images\generated_images\results_problem_16\sample_0_0006.png,,,,,,,,,,,,,,,,,,,,,,,0,0,0,0,0,33,33,33,,,,,,,,,,,,,,j,16,B,B,20,1,Correct!,5.575192200019956,199.4370712999953,None,199.4370712999953,None,205.0706041000085,None,,,,,77,001,2023-05-23_09h10.43.665,colored_shuffled,2021.2.3,59.99995198570309,
C:\Users\subject\Desktop\SVRT Experiments\SVRT Experiment 3\svrt_images\generated_images\results_problem_16,,,,,,,,,,,,,,,,,,,,,,,,0,0,0,0,,,,,,,,,,,,,,,,,,,,,,,,,,,,,,,,206.07066500000656,206.07066500000656,space,1.6775511999148875,77,001,2023-05-23_09h10.43.665,colored_shuffled,2021.2.3,59.99995198570309,
C:\Users\subject\Desktop\SVRT Experiments\SVRT Experiment 3\svrt_images\generated_images\results_problem_4,,C:\Users\subject\Desktop\SVRT Experiments\SVRT Experiment 3\svrt_images\generated_images\results_problem_4\sample_1_0002.png,,,,,,,,,,,,,,,,,,,,,,0,1,1,1,0,0,0,0,,,,,,,,,,,,,,f,4,A,A,20,1,Correct!,4.553546000039205,207.77068600000348,None,207.77068600000348,None,212.35411630000453,None,,,,,77,001,2023-05-23_09h10.43.665,colored_shuffled,2021.2.3,59.99995198570309,
C:\Users\subject\Desktop\SVRT Experiments\SVRT Experiment 3\svrt_images\generated_images\results_problem_4,,C:\Users\subject\Desktop\SVRT Experiments\SVRT Experiment 3\svrt_images\generated_images\results_problem_4\sample_0_0015.png,,,,,,,,,,,,,,,,,,,,,,0,1,1,1,0,1,1,1,,,,,,,,,,,,,,j,4,B,B,20,1,Correct!,2.4733655999880284,213.3708741000155,None,213.3708741000155,None,215.87100739998277,None,,,,,77,001,2023-05-23_09h10.43.665,colored_shuffled,2021.2.3,59.99995198570309,
C:\Users\subject\Desktop\SVRT Experiments\SVRT Experiment 3\svrt_images\generated_images\results_problem_4,,C:\Users\subject\Desktop\SVRT Experiments\SVRT Experiment 3\svrt_images\generated_images\results_problem_4\sample_0_0008.png,,,,,,,,,,,,,,,,,,,,,,0,1,1,1,0,2,2,2,,,,,,,,,,,,,,j,4,B,B,20,1,Correct!,1.0126226000720635,216.8875987000065,None,216.8875987000065,None,217.92098659998737,None,,,,,77,001,2023-05-23_09h10.43.665,colored_shuffled,2021.2.3,59.99995198570309,
C:\Users\subject\Desktop\SVRT Experiments\SVRT Experiment 3\svrt_images\generated_images\results_problem_4,,C:\Users\subject\Desktop\SVRT Experiments\SVRT Experiment 3\svrt_images\generated_images\results_problem_4\sample_0_0003.png,,,,,,,,,,,,,,,,,,,,,,0,1,1,1,0,3,3,3,,,,,,,,,,,,,,f,4,A,B,20,0,Incorrect!,1.361808200017549,218.95431160007138,None,218.95431160007138,None,220.33771150000393,None,,,,,77,001,2023-05-23_09h10.43.665,colored_shuffled,2021.2.3,59.99995198570309,
C:\Users\subject\Desktop\SVRT Experiments\SVRT Experiment 3\svrt_images\generated_images\results_problem_4,,C:\Users\subject\Desktop\SVRT Experiments\SVRT Experiment 3\svrt_images\generated_images\results_problem_4\sample_0_0004.png,,,,,,,,,,,,,,,,,,,,,,0,1,1,1,0,4,4,4,,,,,,,,,,,,,,f,4,A,B,20,0,Incorrect!,1.3203735999995843,221.38773299998138,None,221.38773299998138,None,222.73782759997994,None,,,,,77,001,2023-05-23_09h10.43.665,colored_shuffled,2021.2.3,59.99995198570309,
C:\Users\subject\Desktop\SVRT Experiments\SVRT Experiment 3\svrt_images\generated_images\results_problem_4,,C:\Users\subject\Desktop\SVRT Experiments\SVRT Experiment 3\svrt_images\generated_images\results_problem_4\sample_0_0006.png,,,,,,,,,,,,,,,,,,,,,,0,1,1,1,0,5,5,5,,,,,,,,,,,,,,f,4,A,B,20,0,Incorrect!,0.7596960999071598,223.80456780001987,None,223.80456780001987,None,224.58787980000488,None,,,,,77,001,2023-05-23_09h10.43.665,colored_shuffled,2021.2.3,59.99995198570309,
C:\Users\subject\Desktop\SVRT Experiments\SVRT Experiment 3\svrt_images\generated_images\results_problem_4,,C:\Users\subject\Desktop\SVRT Experiments\SVRT Experiment 3\svrt_images\generated_images\results_problem_4\sample_0_0009.png,,,,,,,,,,,,,,,,,,,,,,0,1,1,1,0,6,6,6,,,,,,,,,,,,,,j,4,B,B,20,1,Correct!,0.4295784999849275,225.65462250006385,None,225.65462250006385,None,226.10455429996364,None,,,,,77,001,2023-05-23_09h10.43.665,colored_shuffled,2021.2.3,59.99995198570309,
C:\Users\subject\Desktop\SVRT Experiments\SVRT Experiment 3\svrt_images\generated_images\results_problem_4,,C:\Users\subject\Desktop\SVRT Experiments\SVRT Experiment 3\svrt_images\generated_images\results_problem_4\sample_0_0002.png,,,,,,,,,,,,,,,,,,,,,,0,1,1,1,0,7,7,7,,,,,,,,,,,,,,j,4,B,B,20,1,Correct!,0.4961272000800818,227.18795240006875,None,227.18795240006875,None,227.70462530001532,None,,,,,77,001,2023-05-23_09h10.43.665,colored_shuffled,2021.2.3,59.99995198570309,
C:\Users\subject\Desktop\SVRT Experiments\SVRT Experiment 3\svrt_images\generated_images\results_problem_4,,C:\Users\subject\Desktop\SVRT Experiments\SVRT Experiment 3\svrt_images\generated_images\results_problem_4\sample_1_0014.png,,,,,,,,,,,,,,,,,,,,,,0,1,1,1,0,8,8,8,,,,,,,,,,,,,,f,4,A,A,20,1,Correct!,0.8081696999724954,228.787975299987,None,228.787975299987,None,229.6213636000175,None,,,,,77,001,2023-05-23_09h10.43.665,colored_shuffled,2021.2.3,59.99995198570309,
C:\Users\subject\Desktop\SVRT Experiments\SVRT Experiment 3\svrt_images\generated_images\results_problem_4,,C:\Users\subject\Desktop\SVRT Experiments\SVRT Experiment 3\svrt_images\generated_images\results_problem_4\sample_0_0014.png,,,,,,,,,,,,,,,,,,,,,,0,1,1,1,0,9,9,9,,,,,,,,,,,,,,j,4,B,B,20,1,Correct!,0.5146486000157893,230.7214136000257,None,230.7214136000257,None,231.25471250002738,None,,,,,77,001,2023-05-23_09h10.43.665,colored_shuffled,2021.2.3,59.99995198570309,
C:\Users\subject\Desktop\SVRT Experiments\SVRT Experiment 3\svrt_images\generated_images\results_problem_4,,C:\Users\subject\Desktop\SVRT Experiments\SVRT Experiment 3\svrt_images\generated_images\results_problem_4\sample_1_0004.png,,,,,,,,,,,,,,,,,,,,,,0,1,1,1,0,10,10,10,,,,,,,,,,,,,,j,4,B,A,20,0,Incorrect!,0.6487280000001192,232.3714199999813,None,232.3714199999813,None,233.03814750001766,None,,,,,77,001,2023-05-23_09h10.43.665,colored_shuffled,2021.2.3,59.99995198570309,
C:\Users\subject\Desktop\SVRT Experiments\SVRT Experiment 3\svrt_images\generated_images\results_problem_4,,C:\Users\subject\Desktop\SVRT Experiments\SVRT Experiment 3\svrt_images\generated_images\results_problem_4\sample_1_0006.png,,,,,,,,,,,,,,,,,,,,,,0,1,1,1,0,11,11,11,,,,,,,,,,,,,,j,4,B,A,20,0,Incorrect!,3.4572621000697836,234.154786100029,None,234.154786100029,None,237.63827480003238,None,,,,,77,001,2023-05-23_09h10.43.665,colored_shuffled,2021.2.3,59.99995198570309,
C:\Users\subject\Desktop\SVRT Experiments\SVRT Experiment 3\svrt_images\generated_images\results_problem_4,,C:\Users\subject\Desktop\SVRT Experiments\SVRT Experiment 3\svrt_images\generated_images\results_problem_4\sample_1_0016.png,,,,,,,,,,,,,,,,,,,,,,0,1,1,1,0,12,12,12,,,,,,,,,,,,,,j,4,B,A,20,0,Incorrect!,0.7762966000009328,238.77169520000461,None,238.77169520000461,None,239.57167059998028,None,,,,,77,001,2023-05-23_09h10.43.665,colored_shuffled,2021.2.3,59.99995198570309,
C:\Users\subject\Desktop\SVRT Experiments\SVRT Experiment 3\svrt_images\generated_images\results_problem_4,,C:\Users\subject\Desktop\SVRT Experiments\SVRT Experiment 3\svrt_images\generated_images\results_problem_4\sample_1_0008.png,,,,,,,,,,,,,,,,,,,,,,0,1,1,1,0,13,13,13,,,,,,,,,,,,,,j,4,B,A,20,0,Incorrect!,0.6736207000212744,240.7384026000509,None,240.7384026000509,None,241.45502730004955,None,,,,,77,001,2023-05-23_09h10.43.665,colored_shuffled,2021.2.3,59.99995198570309,
C:\Users\subject\Desktop\SVRT Experiments\SVRT Experiment 3\svrt_images\generated_images\results_problem_4,,C:\Users\subject\Desktop\SVRT Experiments\SVRT Experiment 3\svrt_images\generated_images\results_problem_4\sample_1_0009.png,,,,,,,,,,,,,,,,,,,,,,0,1,1,1,0,14,14,14,,,,,,,,,,,,,,f,4,A,A,20,1,Correct!,0.6862461999990046,242.62177129997872,None,242.62177129997872,None,243.33845420007128,None,,,,,77,001,2023-05-23_09h10.43.665,colored_shuffled,2021.2.3,59.99995198570309,
C:\Users\subject\Desktop\SVRT Experiments\SVRT Experiment 3\svrt_images\generated_images\results_problem_4,,C:\Users\subject\Desktop\SVRT Experiments\SVRT Experiment 3\svrt_images\generated_images\results_problem_4\sample_1_0010.png,,,,,,,,,,,,,,,,,,,,,,0,1,1,1,0,15,15,15,,,,,,,,,,,,,,f,4,A,A,20,1,Correct!,0.9068080999422818,244.5051475999644,None,244.5051475999644,None,245.45516859996133,None,,,,,77,001,2023-05-23_09h10.43.665,colored_shuffled,2021.2.3,59.99995198570309,
C:\Users\subject\Desktop\SVRT Experiments\SVRT Experiment 3\svrt_images\generated_images\results_problem_4,,C:\Users\subject\Desktop\SVRT Experiments\SVRT Experiment 3\svrt_images\generated_images\results_problem_4\sample_0_0005.png,,,,,,,,,,,,,,,,,,,,,,0,1,1,1,0,16,16,16,,,,,,,,,,,,,,f,4,A,B,20,0,Incorrect!,0.7334942000452429,246.6386121000396,None,246.6386121000396,None,247.4219260000391,None,,,,,77,001,2023-05-23_09h10.43.665,colored_shuffled,2021.2.3,59.99995198570309,
C:\Users\subject\Desktop\SVRT Experiments\SVRT Experiment 3\svrt_images\generated_images\results_problem_4,,C:\Users\subject\Desktop\SVRT Experiments\SVRT Experiment 3\svrt_images\generated_images\results_problem_4\sample_0_0001.png,,,,,,,,,,,,,,,,,,,,,,0,1,1,1,0,17,17,17,,,,,,,,,,,,,,j,4,B,B,20,1,Correct!,0.25395199994090945,248.6219892000081,None,248.6219892000081,None,248.90530760004185,None,,,,,77,001,2023-05-23_09h10.43.665,colored_shuffled,2021.2.3,59.99995198570309,
C:\Users\subject\Desktop\SVRT Experiments\SVRT Experiment 3\svrt_images\generated_images\results_problem_4,,C:\Users\subject\Desktop\SVRT Experiments\SVRT Experiment 3\svrt_images\generated_images\results_problem_4\sample_1_0011.png,,,,,,,,,,,,,,,,,,,,,,0,1,1,1,0,18,18,18,,,,,,,,,,,,,,j,4,B,A,20,0,Incorrect!,0.7685894999885932,250.15541390003636,None,250.15541390003636,None,250.95535619999282,None,,,,,77,001,2023-05-23_09h10.43.665,colored_shuffled,2021.2.3,59.99995198570309,
C:\Users\subject\Desktop\SVRT Experiments\SVRT Experiment 3\svrt_images\generated_images\results_problem_4,,C:\Users\subject\Desktop\SVRT Experiments\SVRT Experiment 3\svrt_images\generated_images\results_problem_4\sample_1_0005.png,,,,,,,,,,,,,,,,,,,,,,0,1,1,1,0,19,19,19,,,,,,,,,,,,,,f,4,A,A,20,1,Correct!,0.6559203999349847,252.1720102999825,None,252.1720102999825,None,252.8887200000463,None,,,,,77,001,2023-05-23_09h10.43.665,colored_shuffled,2021.2.3,59.99995198570309,
C:\Users\subject\Desktop\SVRT Experiments\SVRT Experiment 3\svrt_images\generated_images\results_problem_4,,C:\Users\subject\Desktop\SVRT Experiments\SVRT Experiment 3\svrt_images\generated_images\results_problem_4\sample_0_0000.png,,,,,,,,,,,,,,,,,,,,,,0,1,1,1,0,20,20,20,,,,,,,,,,,,,,j,4,B,B,20,1,Correct!,0.3377490999409929,254.1220831000246,None,254.1220831000246,None,254.48873520002235,None,,,,,77,001,2023-05-23_09h10.43.665,colored_shuffled,2021.2.3,59.99995198570309,
C:\Users\subject\Desktop\SVRT Experiments\SVRT Experiment 3\svrt_images\generated_images\results_problem_4,,C:\Users\subject\Desktop\SVRT Experiments\SVRT Experiment 3\svrt_images\generated_images\results_problem_4\sample_0_0007.png,,,,,,,,,,,,,,,,,,,,,,0,1,1,1,0,21,21,21,,,,,,,,,,,,,,f,4,A,B,20,0,Incorrect!,0.4970874000573531,255.73879059997853,None,255.73879059997853,None,256.25558270001784,None,,,,,77,001,2023-05-23_09h10.43.665,colored_shuffled,2021.2.3,59.99995198570309,
C:\Users\subject\Desktop\SVRT Experiments\SVRT Experiment 3\svrt_images\generated_images\results_problem_4,,C:\Users\subject\Desktop\SVRT Experiments\SVRT Experiment 3\svrt_images\generated_images\results_problem_4\sample_0_0012.png,,,,,,,,,,,,,,,,,,,,,,0,1,1,1,0,22,22,22,,,,,,,,,,,,,,j,4,B,B,20,1,Correct!,0.3126178999664262,257.55558360007126,None,257.55558360007126,None,257.888890500064,None,,,,,77,001,2023-05-23_09h10.43.665,colored_shuffled,2021.2.3,59.99995198570309,
C:\Users\subject\Desktop\SVRT Experiments\SVRT Experiment 3\svrt_images\generated_images\results_problem_4,,C:\Users\subject\Desktop\SVRT Experiments\SVRT Experiment 3\svrt_images\generated_images\results_problem_4\sample_1_0013.png,,,,,,,,,,,,,,,,,,,,,,0,1,1,1,0,23,23,23,,,,,,,,,,,,,,f,4,A,A,20,1,Correct!,0.8962385000195354,259.15559790004045,None,259.15559790004045,None,260.0723091000691,None,,,,,77,001,2023-05-23_09h10.43.665,colored_shuffled,2021.2.3,59.99995198570309,
C:\Users\subject\Desktop\SVRT Experiments\SVRT Experiment 3\svrt_images\generated_images\results_problem_4,,C:\Users\subject\Desktop\SVRT Experiments\SVRT Experiment 3\svrt_images\generated_images\results_problem_4\sample_0_0011.png,,,,,,,,,,,,,,,,,,,,,,0,1,1,1,0,24,24,24,,,,,,,,,,,,,,f,4,A,B,20,0,Incorrect!,0.7354485000250861,261.3723553000018,None,261.3723553000018,None,262.139048299985,None,,,,,77,001,2023-05-23_09h10.43.665,colored_shuffled,2021.2.3,59.99995198570309,
C:\Users\subject\Desktop\SVRT Experiments\SVRT Experiment 3\svrt_images\generated_images\results_problem_4,,C:\Users\subject\Desktop\SVRT Experiments\SVRT Experiment 3\svrt_images\generated_images\results_problem_4\sample_1_0007.png,,,,,,,,,,,,,,,,,,,,,,0,1,1,1,0,25,25,25,,,,,,,,,,,,,,j,4,B,A,20,0,Incorrect!,0.39608739991672337,263.4558008000022,None,263.4558008000022,None,263.87240980006754,None,,,,,77,001,2023-05-23_09h10.43.665,colored_shuffled,2021.2.3,59.99995198570309,
C:\Users\subject\Desktop\SVRT Experiments\SVRT Experiment 3\svrt_images\generated_images\results_problem_4,,C:\Users\subject\Desktop\SVRT Experiments\SVRT Experiment 3\svrt_images\generated_images\results_problem_4\sample_0_0013.png,,,,,,,,,,,,,,,,,,,,,,0,1,1,1,0,26,26,26,,,,,,,,,,,,,,f,4,A,B,20,0,Incorrect!,0.4873525999719277,265.1724579000147,None,265.1724579000147,None,265.72248950006906,None,,,,,77,001,2023-05-23_09h10.43.665,colored_shuffled,2021.2.3,59.99995198570309,
C:\Users\subject\Desktop\SVRT Experiments\SVRT Experiment 3\svrt_images\generated_images\results_problem_4,,C:\Users\subject\Desktop\SVRT Experiments\SVRT Experiment 3\svrt_images\generated_images\results_problem_4\sample_1_0015.png,,,,,,,,,,,,,,,,,,,,,,0,1,1,1,0,27,27,27,,,,,,,,,,,,,,j,4,B,A,20,0,Incorrect!,0.23593520000576973,267.0558681000257,None,267.0558681000257,None,267.33920330007095,None,,,,,77,001,2023-05-23_09h10.43.665,colored_shuffled,2021.2.3,59.99995198570309,
C:\Users\subject\Desktop\SVRT Experiments\SVRT Experiment 3\svrt_images\generated_images\results_problem_4,,C:\Users\subject\Desktop\SVRT Experiments\SVRT Experiment 3\svrt_images\generated_images\results_problem_4\sample_1_0012.png,,,,,,,,,,,,,,,,,,,,,,0,1,1,1,0,28,28,28,,,,,,,,,,,,,,f,4,A,A,20,1,Correct!,0.2592250999296084,268.67258350003976,None,268.67258350003976,None,269.0225902000675,None,,,,,77,001,2023-05-23_09h10.43.665,colored_shuffled,2021.2.3,59.99995198570309,
C:\Users\subject\Desktop\SVRT Experiments\SVRT Experiment 3\svrt_images\generated_images\results_problem_4,,C:\Users\subject\Desktop\SVRT Experiments\SVRT Experiment 3\svrt_images\generated_images\results_problem_4\sample_1_0003.png,,,,,,,,,,,,,,,,,,,,,,0,1,1,1,0,29,29,29,,,,,,,,,,,,,,f,4,A,A,20,1,Correct!,0.367793699959293,270.3559564000461,None,270.3559564000461,None,270.78929420001805,None,,,,,77,001,2023-05-23_09h10.43.665,colored_shuffled,2021.2.3,59.99995198570309,
C:\Users\subject\Desktop\SVRT Experiments\SVRT Experiment 3\svrt_images\generated_images\results_problem_4,,C:\Users\subject\Desktop\SVRT Experiments\SVRT Experiment 3\svrt_images\generated_images\results_problem_4\sample_1_0001.png,,,,,,,,,,,,,,,,,,,,,,0,1,1,1,0,30,30,30,,,,,,,,,,,,,,f,4,A,A,20,1,Correct!,0.5670476000523195,272.17267969995737,None,272.17267969995737,None,272.7727095000446,None,,,,,77,001,2023-05-23_09h10.43.665,colored_shuffled,2021.2.3,59.99995198570309,
C:\Users\subject\Desktop\SVRT Experiments\SVRT Experiment 3\svrt_images\generated_images\results_problem_4,,C:\Users\subject\Desktop\SVRT Experiments\SVRT Experiment 3\svrt_images\generated_images\results_problem_4\sample_0_0016.png,,,,,,,,,,,,,,,,,,,,,,0,1,1,1,0,31,31,31,,,,,,,,,,,,,,f,4,A,B,20,0,Incorrect!,0.3683132999576628,274.1394079000456,None,274.1394079000456,None,274.58941080002114,None,,,,,77,001,2023-05-23_09h10.43.665,colored_shuffled,2021.2.3,59.99995198570309,
C:\Users\subject\Desktop\SVRT Experiments\SVRT Experiment 3\svrt_images\generated_images\results_problem_4,,C:\Users\subject\Desktop\SVRT Experiments\SVRT Experiment 3\svrt_images\generated_images\results_problem_4\sample_0_0010.png,,,,,,,,,,,,,,,,,,,,,,0,1,1,1,0,32,32,32,,,,,,,,,,,,,,f,4,A,B,20,0,Incorrect!,0.31094120000489056,275.97282410005573,None,275.97282410005573,None,276.37281960004475,None,,,,,77,001,2023-05-23_09h10.43.665,colored_shuffled,2021.2.3,59.99995198570309,
C:\Users\subject\Desktop\SVRT Experiments\SVRT Experiment 3\svrt_images\generated_images\results_problem_4,,C:\Users\subject\Desktop\SVRT Experiments\SVRT Experiment 3\svrt_images\generated_images\results_problem_4\sample_1_0000.png,,,,,,,,,,,,,,,,,,,,,,0,1,1,1,0,33,33,33,,,,,,,,,,,,,,j,4,B,A,20,0,Incorrect!,0.9959616999840364,277.8637316999957,None,277.8637316999957,None,278.88956130004954,None,,,,,77,001,2023-05-23_09h10.43.665,colored_shuffled,2021.2.3,59.99995198570309,
C:\Users\subject\Desktop\SVRT Experiments\SVRT Experiment 3\svrt_images\generated_images\results_problem_4,,,,,,,,,,,,,,,,,,,,,,,,0,1,1,1,,,,,,,,,,,,,,,,,,,,,,,,,,,,,,,,279.8896167000057,279.8896167000057,space,0.5380848000058904,77,001,2023-05-23_09h10.43.665,colored_shuffled,2021.2.3,59.99995198570309,
C:\Users\subject\Desktop\SVRT Experiments\SVRT Experiment 3\svrt_images\generated_images\results_problem_8,,,C:\Users\subject\Desktop\SVRT Experiments\SVRT Experiment 3\svrt_images\generated_images\results_problem_8\sample_1_0007.png,,,,,,,,,,,,,,,,,,,,,0,2,2,2,0,0,0,0,,,,,,,,,,,,,,f,8,A,A,20,1,Correct!,1.7154097000602633,280.4562960000476,None,280.4562960000476,None,282.1896665999666,None,,,,,77,001,2023-05-23_09h10.43.665,colored_shuffled,2021.2.3,59.99995198570309,
C:\Users\subject\Desktop\SVRT Experiments\SVRT Experiment 3\svrt_images\generated_images\results_problem_8,,,C:\Users\subject\Desktop\SVRT Experiments\SVRT Experiment 3\svrt_images\generated_images\results_problem_8\sample_0_0001.png,,,,,,,,,,,,,,,,,,,,,0,2,2,2,0,1,1,1,,,,,,,,,,,,,,f,8,A,B,20,0,Incorrect!,0.26133430004119873,283.20636720000766,None,283.20636720000766,None,283.4896885000635,None,,,,,77,001,2023-05-23_09h10.43.665,colored_shuffled,2021.2.3,59.99995198570309,
C:\Users\subject\Desktop\SVRT Experiments\SVRT Experiment 3\svrt_images\generated_images\results_problem_8,,,C:\Users\subject\Desktop\SVRT Experiments\SVRT Experiment 3\svrt_images\generated_images\results_problem_8\sample_0_0008.png,,,,,,,,,,,,,,,,,,,,,0,2,2,2,0,2,2,2,,,,,,,,,,,,,,j,8,B,B,20,1,Correct!,0.39325159997679293,284.5064095000271,None,284.5064095000271,None,284.92308029998094,None,,,,,77,001,2023-05-23_09h10.43.665,colored_shuffled,2021.2.3,59.99995198570309,
C:\Users\subject\Desktop\SVRT Experiments\SVRT Experiment 3\svrt_images\generated_images\results_problem_8,,,C:\Users\subject\Desktop\SVRT Experiments\SVRT Experiment 3\svrt_images\generated_images\results_problem_8\sample_1_0009.png,,,,,,,,,,,,,,,,,,,,,0,2,2,2,0,3,3,3,,,,,,,,,,,,,,f,8,A,A,20,1,Correct!,0.303222700022161,285.9564565999899,None,285.9564565999899,None,286.2897973000072,None,,,,,77,001,2023-05-23_09h10.43.665,colored_shuffled,2021.2.3,59.99995198570309,
C:\Users\subject\Desktop\SVRT Experiments\SVRT Experiment 3\svrt_images\generated_images\results_problem_8,,,C:\Users\subject\Desktop\SVRT Experiments\SVRT Experiment 3\svrt_images\generated_images\results_problem_8\sample_0_0003.png,,,,,,,,,,,,,,,,,,,,,0,2,2,2,0,4,4,4,,,,,,,,,,,,,,j,8,B,B,20,1,Correct!,0.9999003999400884,287.3398261000402,None,287.3398261000402,None,288.35652599995956,None,,,,,77,001,2023-05-23_09h10.43.665,colored_shuffled,2021.2.3,59.99995198570309,
C:\Users\subject\Desktop\SVRT Experiments\SVRT Experiment 3\svrt_images\generated_images\results_problem_8,,,C:\Users\subject\Desktop\SVRT Experiments\SVRT Experiment 3\svrt_images\generated_images\results_problem_8\sample_0_0005.png,,,,,,,,,,,,,,,,,,,,,0,2,2,2,0,5,5,5,,,,,,,,,,,,,,f,8,A,B,20,0,Incorrect!,0.25310840003658086,289.40652459999546,None,289.40652459999546,None,289.6899010000052,None,,,,,77,001,2023-05-23_09h10.43.665,colored_shuffled,2021.2.3,59.99995198570309,
C:\Users\subject\Desktop\SVRT Experiments\SVRT Experiment 3\svrt_images\generated_images\results_problem_8,,,C:\Users\subject\Desktop\SVRT Experiments\SVRT Experiment 3\svrt_images\generated_images\results_problem_8\sample_1_0002.png,,,,,,,,,,,,,,,,,,,,,0,2,2,2,0,6,6,6,,,,,,,,,,,,,,j,8,B,A,20,0,Incorrect!,0.22301590000279248,290.7566034999909,None,290.7566034999909,None,291.0066044999985,None,,,,,77,001,2023-05-23_09h10.43.665,colored_shuffled,2021.2.3,59.99995198570309,
C:\Users\subject\Desktop\SVRT Experiments\SVRT Experiment 3\svrt_images\generated_images\results_problem_8,,,C:\Users\subject\Desktop\SVRT Experiments\SVRT Experiment 3\svrt_images\generated_images\results_problem_8\sample_1_0016.png,,,,,,,,,,,,,,,,,,,,,0,2,2,2,0,7,7,7,,,,,,,,,,,,,,f,8,A,A,20,1,Correct!,0.28162150003481656,292.0899786000373,None,292.0899786000373,None,292.38997320004273,None,,,,,77,001,2023-05-23_09h10.43.665,colored_shuffled,2021.2.3,59.99995198570309,
C:\Users\subject\Desktop\SVRT Experiments\SVRT Experiment 3\svrt_images\generated_images\results_problem_8,,,C:\Users\subject\Desktop\SVRT Experiments\SVRT Experiment 3\svrt_images\generated_images\results_problem_8\sample_0_0004.png,,,,,,,,,,,,,,,,,,,,,0,2,2,2,0,8,8,8,,,,,,,,,,,,,,f,8,A,B,20,0,Incorrect!,0.3782756000291556,293.47331540007144,None,293.47331540007144,None,293.8733506000135,None,,,,,77,001,2023-05-23_09h10.43.665,colored_shuffled,2021.2.3,59.99995198570309,
C:\Users\subject\Desktop\SVRT Experiments\SVRT Experiment 3\svrt_images\generated_images\results_problem_8,,,C:\Users\subject\Desktop\SVRT Experiments\SVRT Experiment 3\svrt_images\generated_images\results_problem_8\sample_0_0002.png,,,,,,,,,,,,,,,,,,,,,0,2,2,2,0,9,9,9,,,,,,,,,,,,,,j,8,B,B,20,1,Correct!,2.8221400000620633,294.9734017000301,None,294.9734017000301,None,297.82348390005063,None,,,,,77,001,2023-05-23_09h10.43.665,colored_shuffled,2021.2.3,59.99995198570309,
C:\Users\subject\Desktop\SVRT Experiments\SVRT Experiment 3\svrt_images\generated_images\results_problem_8,,,C:\Users\subject\Desktop\SVRT Experiments\SVRT Experiment 3\svrt_images\generated_images\results_problem_8\sample_0_0011.png,,,,,,,,,,,,,,,,,,,,,0,2,2,2,0,10,10,10,,,,,,,,,,,,,,j,8,B,B,20,1,Correct!,4.647951100021601,298.92348780005705,None,298.92348780005705,None,303.59033060004003,None,,,,,77,001,2023-05-23_09h10.43.665,colored_shuffled,2021.2.3,59.99995198570309,
C:\Users\subject\Desktop\SVRT Experiments\SVRT Experiment 3\svrt_images\generated_images\results_problem_8,,,C:\Users\subject\Desktop\SVRT Experiments\SVRT Experiment 3\svrt_images\generated_images\results_problem_8\sample_1_0012.png,,,,,,,,,,,,,,,,,,,,,0,2,2,2,0,11,11,11,,,,,,,,,,,,,,f,8,A,A,20,1,Correct!,2.0005016000941396,304.70701969997026,None,304.70701969997026,None,306.740417300025,None,,,,,77,001,2023-05-23_09h10.43.665,colored_shuffled,2021.2.3,59.99995198570309,
C:\Users\subject\Desktop\SVRT Experiments\SVRT Experiment 3\svrt_images\generated_images\results_problem_8,,,C:\Users\subject\Desktop\SVRT Experiments\SVRT Experiment 3\svrt_images\generated_images\results_problem_8\sample_1_0000.png,,,,,,,,,,,,,,,,,,,,,0,2,2,2,0,12,12,12,,,,,,,,,,,,,,f,8,A,A,20,1,Correct!,0.7216769999358803,307.87376780004706,None,307.87376780004706,None,308.64046699996106,None,,,,,77,001,2023-05-23_09h10.43.665,colored_shuffled,2021.2.3,59.99995198570309,
C:\Users\subject\Desktop\SVRT Experiments\SVRT Experiment 3\svrt_images\generated_images\results_problem_8,,,C:\Users\subject\Desktop\SVRT Experiments\SVRT Experiment 3\svrt_images\generated_images\results_problem_8\sample_0_0013.png,,,,,,,,,,,,,,,,,,,,,0,2,2,2,0,13,13,13,,,,,,,,,,,,,,f,8,A,B,20,0,Incorrect!,0.524893100024201,309.79054249997716,None,309.79054249997716,None,310.3405090000015,None,,,,,77,001,2023-05-23_09h10.43.665,colored_shuffled,2021.2.3,59.99995198570309,
C:\Users\subject\Desktop\SVRT Experiments\SVRT Experiment 3\svrt_images\generated_images\results_problem_8,,,C:\Users\subject\Desktop\SVRT Experiments\SVRT Experiment 3\svrt_images\generated_images\results_problem_8\sample_0_0016.png,,,,,,,,,,,,,,,,,,,,,0,2,2,2,0,14,14,14,,,,,,,,,,,,,,j,8,B,B,20,1,Correct!,1.0722813999745995,311.50726490002126,None,311.50726490002126,None,312.62396210001316,None,,,,,77,001,2023-05-23_09h10.43.665,colored_shuffled,2021.2.3,59.99995198570309,
C:\Users\subject\Desktop\SVRT Experiments\SVRT Experiment 3\svrt_images\generated_images\results_problem_8,,,C:\Users\subject\Desktop\SVRT Experiments\SVRT Experiment 3\svrt_images\generated_images\results_problem_8\sample_1_0013.png,,,,,,,,,,,,,,,,,,,,,0,2,2,2,0,15,15,15,,,,,,,,,,,,,,f,8,A,A,20,1,Correct!,0.7240519999759272,313.80737599998247,None,313.80737599998247,None,314.5573424999602,None,,,,,77,001,2023-05-23_09h10.43.665,colored_shuffled,2021.2.3,59.99995198570309,
C:\Users\subject\Desktop\SVRT Experiments\SVRT Experiment 3\svrt_images\generated_images\results_problem_8,,,C:\Users\subject\Desktop\SVRT Experiments\SVRT Experiment 3\svrt_images\generated_images\results_problem_8\sample_0_0014.png,,,,,,,,,,,,,,,,,,,,,0,2,2,2,0,16,16,16,,,,,,,,,,,,,,j,8,B,B,20,1,Correct!,0.6067339999135584,315.74075140000787,None,315.74075140000787,None,316.39074050006457,None,,,,,77,001,2023-05-23_09h10.43.665,colored_shuffled,2021.2.3,59.99995198570309,
C:\Users\subject\Desktop\SVRT Experiments\SVRT Experiment 3\svrt_images\generated_images\results_problem_8,,,C:\Users\subject\Desktop\SVRT Experiments\SVRT Experiment 3\svrt_images\generated_images\results_problem_8\sample_1_0011.png,,,,,,,,,,,,,,,,,,,,,0,2,2,2,0,17,17,17,,,,,,,,,,,,,,f,8,A,A,20,1,Correct!,0.6366957999998704,317.59075019997545,None,317.59075019997545,None,318.2574730999768,None,,,,,77,001,2023-05-23_09h10.43.665,colored_shuffled,2021.2.3,59.99995198570309,
C:\Users\subject\Desktop\SVRT Experiments\SVRT Experiment 3\svrt_images\generated_images\results_problem_8,,,C:\Users\subject\Desktop\SVRT Experiments\SVRT Experiment 3\svrt_images\generated_images\results_problem_8\sample_1_0001.png,,,,,,,,,,,,,,,,,,,,,0,2,2,2,0,18,18,18,,,,,,,,,,,,,,f,8,A,A,20,1,Correct!,0.4245329999830574,319.49085960001685,None,319.49085960001685,None,319.9575227999594,None,,,,,77,001,2023-05-23_09h10.43.665,colored_shuffled,2021.2.3,59.99995198570309,
C:\Users\subject\Desktop\SVRT Experiments\SVRT Experiment 3\svrt_images\generated_images\results_problem_8,,,C:\Users\subject\Desktop\SVRT Experiments\SVRT Experiment 3\svrt_images\generated_images\results_problem_8\sample_0_0009.png,,,,,,,,,,,,,,,,,,,,,0,2,2,2,0,19,19,19,,,,,,,,,,,,,,j,8,B,B,20,1,Correct!,0.4524435999337584,321.19088140001986,None,321.19088140001986,None,321.70759020000696,None,,,,,77,001,2023-05-23_09h10.43.665,colored_shuffled,2021.2.3,59.99995198570309,
C:\Users\subject\Desktop\SVRT Experiments\SVRT Experiment 3\svrt_images\generated_images\results_problem_8,,,C:\Users\subject\Desktop\SVRT Experiments\SVRT Experiment 3\svrt_images\generated_images\results_problem_8\sample_1_0015.png,,,,,,,,,,,,,,,,,,,,,0,2,2,2,0,20,20,20,,,,,,,,,,,,,,f,8,A,A,20,1,Correct!,0.9410975000355393,322.9742377999937,None,322.9742377999937,None,323.9410505000269,None,,,,,77,001,2023-05-23_09h10.43.665,colored_shuffled,2021.2.3,59.99995198570309,
C:\Users\subject\Desktop\SVRT Experiments\SVRT Experiment 3\svrt_images\generated_images\results_problem_8,,,C:\Users\subject\Desktop\SVRT Experiments\SVRT Experiment 3\svrt_images\generated_images\results_problem_8\sample_1_0008.png,,,,,,,,,,,,,,,,,,,,,0,2,2,2,0,21,21,21,,,,,,,,,,,,,,,,,,,,,,,,,,,,324.94099599996116,324.94099599996116,space,1.2943249000236392,77,001,2023-05-23_09h10.43.665,colored_shuffled,2021.2.3,59.99995198570309,
C:\Users\subject\Desktop\SVRT Experiments\SVRT Experiment 3\svrt_images\generated_images\results_problem_21,,,C:\Users\subject\Desktop\SVRT Experiments\SVRT Experiment 3\svrt_images\generated_images\results_problem_8\sample_1_0008.png,C:\Users\subject\Desktop\SVRT Experiments\SVRT Experiment 3\svrt_images\generated_images\results_problem_21\sample_0_0002.png,,,,,,,,,,,,,,,,,,,,0,3,3,3,0,0,0,0,,,,,,,,,,,,,,f,21,A,B,20,0,Incorrect!,1.3376789999892935,326.25770780001767,None,326.25770780001767,None,327.62442030000966,None,,,,,77,001,2023-05-23_09h10.43.665,colored_shuffled,2021.2.3,59.99995198570309,
C:\Users\subject\Desktop\SVRT Experiments\SVRT Experiment 3\svrt_images\generated_images\results_problem_21,,,C:\Users\subject\Desktop\SVRT Experiments\SVRT Experiment 3\svrt_images\generated_images\results_problem_8\sample_1_0008.png,C:\Users\subject\Desktop\SVRT Experiments\SVRT Experiment 3\svrt_images\generated_images\results_problem_21\sample_1_0005.png,,,,,,,,,,,,,,,,,,,,0,3,3,3,0,1,1,1,,,,,,,,,,,,,,j,21,B,A,20,0,Incorrect!,1.3701338999671862,328.6411621000152,None,328.6411621000152,None,330.04114460002165,None,,,,,77,001,2023-05-23_09h10.43.665,colored_shuffled,2021.2.3,59.99995198570309,
C:\Users\subject\Desktop\SVRT Experiments\SVRT Experiment 3\svrt_images\generated_images\results_problem_21,,,C:\Users\subject\Desktop\SVRT Experiments\SVRT Experiment 3\svrt_images\generated_images\results_problem_8\sample_1_0008.png,C:\Users\subject\Desktop\SVRT Experiments\SVRT Experiment 3\svrt_images\generated_images\results_problem_21\sample_1_0014.png,,,,,,,,,,,,,,,,,,,,0,3,3,3,0,2,2,2,,,,,,,,,,,,,,j,21,B,A,20,0,Incorrect!,1.4887848000507802,331.0744871000061,None,331.0744871000061,None,332.59123090002686,None,,,,,77,001,2023-05-23_09h10.43.665,colored_shuffled,2021.2.3,59.99995198570309,
C:\Users\subject\Desktop\SVRT Experiments\SVRT Experiment 3\svrt_images\generated_images\results_problem_21,,,C:\Users\subject\Desktop\SVRT Experiments\SVRT Experiment 3\svrt_images\generated_images\results_problem_8\sample_1_0008.png,C:\Users\subject\Desktop\SVRT Experiments\SVRT Experiment 3\svrt_images\generated_images\results_problem_21\sample_1_0006.png,,,,,,,,,,,,,,,,,,,,0,3,3,3,0,3,3,3,,,,,,,,,,,,,,j,21,B,A,20,0,Incorrect!,1.0827093999832869,333.62460189999547,None,333.62460189999547,None,334.7246310999617,None,,,,,77,001,2023-05-23_09h10.43.665,colored_shuffled,2021.2.3,59.99995198570309,
C:\Users\subject\Desktop\SVRT Experiments\SVRT Experiment 3\svrt_images\generated_images\results_problem_21,,,C:\Users\subject\Desktop\SVRT Experiments\SVRT Experiment 3\svrt_images\generated_images\results_problem_8\sample_1_0008.png,C:\Users\subject\Desktop\SVRT Experiments\SVRT Experiment 3\svrt_images\generated_images\results_problem_21\sample_1_0010.png,,,,,,,,,,,,,,,,,,,,0,3,3,3,0,4,4,4,,,,,,,,,,,,,,j,21,B,A,20,0,Incorrect!,0.9405129998922348,335.7747210999951,None,335.7747210999951,None,336.7413289999822,None,,,,,77,001,2023-05-23_09h10.43.665,colored_shuffled,2021.2.3,59.99995198570309,
C:\Users\subject\Desktop\SVRT Experiments\SVRT Experiment 3\svrt_images\generated_images\results_problem_21,,,C:\Users\subject\Desktop\SVRT Experiments\SVRT Experiment 3\svrt_images\generated_images\results_problem_8\sample_1_0008.png,C:\Users\subject\Desktop\SVRT Experiments\SVRT Experiment 3\svrt_images\generated_images\results_problem_21\sample_1_0000.png,,,,,,,,,,,,,,,,,,,,0,3,3,3,0,5,5,5,,,,,,,,,,,,,,f,21,A,A,20,1,Correct!,0.5477793000172824,337.7914017000003,None,337.7914017000003,None,338.35803620005026,None,,,,,77,001,2023-05-23_09h10.43.665,colored_shuffled,2021.2.3,59.99995198570309,
C:\Users\subject\Desktop\SVRT Experiments\SVRT Experiment 3\svrt_images\generated_images\results_problem_21,,,C:\Users\subject\Desktop\SVRT Experiments\SVRT Experiment 3\svrt_images\generated_images\results_problem_8\sample_1_0008.png,C:\Users\subject\Desktop\SVRT Experiments\SVRT Experiment 3\svrt_images\generated_images\results_problem_21\sample_0_0007.png,,,,,,,,,,,,,,,,,,,,0,3,3,3,0,6,6,6,,,,,,,,,,,,,,f,21,A,B,20,0,Incorrect!,0.7864399999380112,339.4247860000469,None,339.4247860000469,None,340.2414766000584,None,,,,,77,001,2023-05-23_09h10.43.665,colored_shuffled,2021.2.3,59.99995198570309,
C:\Users\subject\Desktop\SVRT Experiments\SVRT Experiment 3\svrt_images\generated_images\results_problem_21,,,C:\Users\subject\Desktop\SVRT Experiments\SVRT Experiment 3\svrt_images\generated_images\results_problem_8\sample_1_0008.png,C:\Users\subject\Desktop\SVRT Experiments\SVRT Experiment 3\svrt_images\generated_images\results_problem_21\sample_0_0006.png,,,,,,,,,,,,,,,,,,,,0,3,3,3,0,7,7,7,,,,,,,,,,,,,,f,21,A,B,20,0,Incorrect!,0.4630460999906063,341.3081754000159,None,341.3081754000159,None,341.7915182999568,None,,,,,77,001,2023-05-23_09h10.43.665,colored_shuffled,2021.2.3,59.99995198570309,
C:\Users\subject\Desktop\SVRT Experiments\SVRT Experiment 3\svrt_images\generated_images\results_problem_21,,,C:\Users\subject\Desktop\SVRT Experiments\SVRT Experiment 3\svrt_images\generated_images\results_problem_8\sample_1_0008.png,C:\Users\subject\Desktop\SVRT Experiments\SVRT Experiment 3\svrt_images\generated_images\results_problem_21\sample_1_0007.png,,,,,,,,,,,,,,,,,,,,0,3,3,3,0,8,8,8,,,,,,,,,,,,,,f,21,A,A,20,1,Correct!,1.0083123999647796,342.87489410000853,None,342.87489410000853,None,343.9082554000197,None,,,,,77,001,2023-05-23_09h10.43.665,colored_shuffled,2021.2.3,59.99995198570309,
C:\Users\subject\Desktop\SVRT Experiments\SVRT Experiment 3\svrt_images\generated_images\results_problem_21,,,C:\Users\subject\Desktop\SVRT Experiments\SVRT Experiment 3\svrt_images\generated_images\results_problem_8\sample_1_0008.png,C:\Users\subject\Desktop\SVRT Experiments\SVRT Experiment 3\svrt_images\generated_images\results_problem_21\sample_1_0011.png,,,,,,,,,,,,,,,,,,,,0,3,3,3,0,9,9,9,,,,,,,,,,,,,,f,21,A,A,20,1,Correct!,0.2915792999556288,344.9916250000242,None,344.9916250000242,None,345.3082988000242,None,,,,,77,001,2023-05-23_09h10.43.665,colored_shuffled,2021.2.3,59.99995198570309,
C:\Users\subject\Desktop\SVRT Experiments\SVRT Experiment 3\svrt_images\generated_images\results_problem_21,,,C:\Users\subject\Desktop\SVRT Experiments\SVRT Experiment 3\svrt_images\generated_images\results_problem_8\sample_1_0008.png,C:\Users\subject\Desktop\SVRT Experiments\SVRT Experiment 3\svrt_images\generated_images\results_problem_21\sample_0_0013.png,,,,,,,,,,,,,,,,,,,,0,3,3,3,0,10,10,10,,,,,,,,,,,,,,f,21,A,B,20,0,Incorrect!,0.29084839997813106,346.4083406999707,None,346.4083406999707,None,346.7250071000308,None,,,,,77,001,2023-05-23_09h10.43.665,colored_shuffled,2021.2.3,59.99995198570309,
C:\Users\subject\Desktop\SVRT Experiments\SVRT Experiment 3\svrt_images\generated_images\results_problem_21,,,C:\Users\subject\Desktop\SVRT Experiments\SVRT Experiment 3\svrt_images\generated_images\results_problem_8\sample_1_0008.png,C:\Users\subject\Desktop\SVRT Experiments\SVRT Experiment 3\svrt_images\generated_images\results_problem_21\sample_1_0004.png,,,,,,,,,,,,,,,,,,,,0,3,3,3,0,11,11,11,,,,,,,,,,,,,,f,21,A,A,20,1,Correct!,0.7934271999401972,347.8417190000182,None,347.8417190000182,None,348.6584075000137,None,,,,,77,001,2023-05-23_09h10.43.665,colored_shuffled,2021.2.3,59.99995198570309,
C:\Users\subject\Desktop\SVRT Experiments\SVRT Experiment 3\svrt_images\generated_images\results_problem_21,,,C:\Users\subject\Desktop\SVRT Experiments\SVRT Experiment 3\svrt_images\generated_images\results_problem_8\sample_1_0008.png,C:\Users\subject\Desktop\SVRT Experiments\SVRT Experiment 3\svrt_images\generated_images\results_problem_21\sample_1_0016.png,,,,,,,,,,,,,,,,,,,,0,3,3,3,0,12,12,12,,,,,,,,,,,,,,f,21,A,A,20,1,Correct!,0.26740259991493076,349.79177620005794,None,349.79177620005794,None,350.091798700043,None,,,,,77,001,2023-05-23_09h10.43.665,colored_shuffled,2021.2.3,59.99995198570309,
C:\Users\subject\Desktop\SVRT Experiments\SVRT Experiment 3\svrt_images\generated_images\results_problem_21,,,C:\Users\subject\Desktop\SVRT Experiments\SVRT Experiment 3\svrt_images\generated_images\results_problem_8\sample_1_0008.png,C:\Users\subject\Desktop\SVRT Experiments\SVRT Experiment 3\svrt_images\generated_images\results_problem_21\sample_1_0013.png,,,,,,,,,,,,,,,,,,,,0,3,3,3,0,13,13,13,,,,,,,,,,,,,,f,21,A,A,20,1,Correct!,0.26599630003329366,351.2251489000628,None,351.2251489000628,None,351.5084920000518,None,,,,,77,001,2023-05-23_09h10.43.665,colored_shuffled,2021.2.3,59.99995198570309,
C:\Users\subject\Desktop\SVRT Experiments\SVRT Experiment 3\svrt_images\generated_images\results_problem_21,,,C:\Users\subject\Desktop\SVRT Experiments\SVRT Experiment 3\svrt_images\generated_images\results_problem_8\sample_1_0008.png,C:\Users\subject\Desktop\SVRT Experiments\SVRT Experiment 3\svrt_images\generated_images\results_problem_21\sample_0_0015.png,,,,,,,,,,,,,,,,,,,,0,3,3,3,0,14,14,14,,,,,,,,,,,,,,f,21,A,B,20,0,Incorrect!,0.24060350004583597,352.65853390004486,None,352.65853390004486,None,352.9418706999859,None,,,,,77,001,2023-05-23_09h10.43.665,colored_shuffled,2021.2.3,59.99995198570309,
C:\Users\subject\Desktop\SVRT Experiments\SVRT Experiment 3\svrt_images\generated_images\results_problem_21,,,C:\Users\subject\Desktop\SVRT Experiments\SVRT Experiment 3\svrt_images\generated_images\results_problem_8\sample_1_0008.png,C:\Users\subject\Desktop\SVRT Experiments\SVRT Experiment 3\svrt_images\generated_images\results_problem_21\sample_1_0008.png,,,,,,,,,,,,,,,,,,,,0,3,3,3,0,15,15,15,,,,,,,,,,,,,,f,21,A,A,20,1,Correct!,0.2704780000494793,354.10859399999026,None,354.10859399999026,None,354.4252317000646,None,,,,,77,001,2023-05-23_09h10.43.665,colored_shuffled,2021.2.3,59.99995198570309,
C:\Users\subject\Desktop\SVRT Experiments\SVRT Experiment 3\svrt_images\generated_images\results_problem_21,,,C:\Users\subject\Desktop\SVRT Experiments\SVRT Experiment 3\svrt_images\generated_images\results_problem_8\sample_1_0008.png,C:\Users\subject\Desktop\SVRT Experiments\SVRT Experiment 3\svrt_images\generated_images\results_problem_21\sample_0_0009.png,,,,,,,,,,,,,,,,,,,,0,3,3,3,0,16,16,16,,,,,,,,,,,,,,f,21,A,B,20,0,Incorrect!,0.2431675000116229,355.59195460006595,None,355.59195460006595,None,355.87529660004657,None,,,,,77,001,2023-05-23_09h10.43.665,colored_shuffled,2021.2.3,59.99995198570309,
C:\Users\subject\Desktop\SVRT Experiments\SVRT Experiment 3\svrt_images\generated_images\results_problem_21,,,C:\Users\subject\Desktop\SVRT Experiments\SVRT Experiment 3\svrt_images\generated_images\results_problem_8\sample_1_0008.png,C:\Users\subject\Desktop\SVRT Experiments\SVRT Experiment 3\svrt_images\generated_images\results_problem_21\sample_1_0012.png,,,,,,,,,,,,,,,,,,,,0,3,3,3,0,17,17,17,,,,,,,,,,,,,,f,21,A,A,20,1,Correct!,0.16035580006428063,357.0586717000697,None,357.0586717000697,None,357.2420080000302,None,,,,,77,001,2023-05-23_09h10.43.665,colored_shuffled,2021.2.3,59.99995198570309,
C:\Users\subject\Desktop\SVRT Experiments\SVRT Experiment 3\svrt_images\generated_images\results_problem_21,,,C:\Users\subject\Desktop\SVRT Experiments\SVRT Experiment 3\svrt_images\generated_images\results_problem_8\sample_1_0008.png,C:\Users\subject\Desktop\SVRT Experiments\SVRT Experiment 3\svrt_images\generated_images\results_problem_21\sample_0_0011.png,,,,,,,,,,,,,,,,,,,,0,3,3,3,0,18,18,18,,,,,,,,,,,,,,f,21,A,B,20,0,Incorrect!,0.9049946999875829,358.4420471000485,None,358.4420471000485,None,359.39205330004916,None,,,,,77,001,2023-05-23_09h10.43.665,colored_shuffled,2021.2.3,59.99995198570309,
C:\Users\subject\Desktop\SVRT Experiments\SVRT Experiment 3\svrt_images\generated_images\results_problem_21,,,C:\Users\subject\Desktop\SVRT Experiments\SVRT Experiment 3\svrt_images\generated_images\results_problem_8\sample_1_0008.png,C:\Users\subject\Desktop\SVRT Experiments\SVRT Experiment 3\svrt_images\generated_images\results_problem_21\sample_0_0005.png,,,,,,,,,,,,,,,,,,,,0,3,3,3,0,19,19,19,,,,,,,,,,,,,,f,21,A,B,20,0,Incorrect!,0.25825549999717623,360.6087777999928,None,360.6087777999928,None,360.9254505999852,None,,,,,77,001,2023-05-23_09h10.43.665,colored_shuffled,2021.2.3,59.99995198570309,
C:\Users\subject\Desktop\SVRT Experiments\SVRT Experiment 3\svrt_images\generated_images\results_problem_21,,,C:\Users\subject\Desktop\SVRT Experiments\SVRT Experiment 3\svrt_images\generated_images\results_problem_8\sample_1_0008.png,C:\Users\subject\Desktop\SVRT Experiments\SVRT Experiment 3\svrt_images\generated_images\results_problem_21\sample_1_0001.png,,,,,,,,,,,,,,,,,,,,0,3,3,3,0,20,20,20,,,,,,,,,,,,,,f,21,A,A,20,1,Correct!,0.10889909998513758,362.14217410003766,None,362.14217410003766,None,362.30883190000895,None,,,,,77,001,2023-05-23_09h10.43.665,colored_shuffled,2021.2.3,59.99995198570309,
C:\Users\subject\Desktop\SVRT Experiments\SVRT Experiment 3\svrt_images\generated_images\results_problem_21,,,C:\Users\subject\Desktop\SVRT Experiments\SVRT Experiment 3\svrt_images\generated_images\results_problem_8\sample_1_0008.png,C:\Users\subject\Desktop\SVRT Experiments\SVRT Experiment 3\svrt_images\generated_images\results_problem_21\sample_0_0000.png,,,,,,,,,,,,,,,,,,,,0,3,3,3,0,21,21,21,,,,,,,,,,,,,,j,21,B,B,20,1,Correct!,0.7008442999795079,363.5421986000147,None,363.5421986000147,None,364.3088639000198,None,,,,,77,001,2023-05-23_09h10.43.665,colored_shuffled,2021.2.3,59.99995198570309,
C:\Users\subject\Desktop\SVRT Experiments\SVRT Experiment 3\svrt_images\generated_images\results_problem_21,,,C:\Users\subject\Desktop\SVRT Experiments\SVRT Experiment 3\svrt_images\generated_images\results_problem_8\sample_1_0008.png,C:\Users\subject\Desktop\SVRT Experiments\SVRT Experiment 3\svrt_images\generated_images\results_problem_21\sample_0_0003.png,,,,,,,,,,,,,,,,,,,,0,3,3,3,0,22,22,22,,,,,,,,,,,,,,f,21,A,B,20,0,Incorrect!,0.2680726000107825,365.55894959997386,None,365.55894959997386,None,365.875589900068,None,,,,,77,001,2023-05-23_09h10.43.665,colored_shuffled,2021.2.3,59.99995198570309,
C:\Users\subject\Desktop\SVRT Experiments\SVRT Experiment 3\svrt_images\generated_images\results_problem_21,,,C:\Users\subject\Desktop\SVRT Experiments\SVRT Experiment 3\svrt_images\generated_images\results_problem_8\sample_1_0008.png,C:\Users\subject\Desktop\SVRT Experiments\SVRT Experiment 3\svrt_images\generated_images\results_problem_21\sample_0_0016.png,,,,,,,,,,,,,,,,,,,,0,3,3,3,0,23,23,23,,,,,,,,,,,,,,j,21,B,B,20,1,Correct!,0.8926919000223279,367.1422524000518,None,367.1422524000518,None,368.0589929999551,None,,,,,77,001,2023-05-23_09h10.43.665,colored_shuffled,2021.2.3,59.99995198570309,
C:\Users\subject\Desktop\SVRT Experiments\SVRT Experiment 3\svrt_images\generated_images\results_problem_21,,,C:\Users\subject\Desktop\SVRT Experiments\SVRT Experiment 3\svrt_images\generated_images\results_problem_8\sample_1_0008.png,C:\Users\subject\Desktop\SVRT Experiments\SVRT Experiment 3\svrt_images\generated_images\results_problem_21\sample_0_0014.png,,,,,,,,,,,,,,,,,,,,0,3,3,3,0,24,24,24,,,,,,,,,,,,,,j,21,B,B,20,1,Correct!,0.3246268999064341,369.34237940004095,None,369.34237940004095,None,369.69242580002174,None,,,,,77,001,2023-05-23_09h10.43.665,colored_shuffled,2021.2.3,59.99995198570309,
C:\Users\subject\Desktop\SVRT Experiments\SVRT Experiment 3\svrt_images\generated_images\results_problem_21,,,C:\Users\subject\Desktop\SVRT Experiments\SVRT Experiment 3\svrt_images\generated_images\results_problem_8\sample_1_0008.png,C:\Users\subject\Desktop\SVRT Experiments\SVRT Experiment 3\svrt_images\generated_images\results_problem_21\sample_0_0001.png,,,,,,,,,,,,,,,,,,,,0,3,3,3,0,25,25,25,,,,,,,,,,,,,,j,21,B,B,20,1,Correct!,0.22717849991749972,370.9757731000427,None,370.9757731000427,None,371.25907470006496,None,,,,,77,001,2023-05-23_09h10.43.665,colored_shuffled,2021.2.3,59.99995198570309,
C:\Users\subject\Desktop\SVRT Experiments\SVRT Experiment 3\svrt_images\generated_images\results_problem_21,,,C:\Users\subject\Desktop\SVRT Experiments\SVRT Experiment 3\svrt_images\generated_images\results_problem_8\sample_1_0008.png,C:\Users\subject\Desktop\SVRT Experiments\SVRT Experiment 3\svrt_images\generated_images\results_problem_21\sample_0_0012.png,,,,,,,,,,,,,,,,,,,,0,3,3,3,0,26,26,26,,,,,,,,,,,,,,j,21,B,B,20,1,Correct!,0.1718263999791816,372.55915660003666,None,372.55915660003666,None,372.7758166999556,None,,,,,77,001,2023-05-23_09h10.43.665,colored_shuffled,2021.2.3,59.99995198570309,
C:\Users\subject\Desktop\SVRT Experiments\SVRT Experiment 3\svrt_images\generated_images\results_problem_21,,,C:\Users\subject\Desktop\SVRT Experiments\SVRT Experiment 3\svrt_images\generated_images\results_problem_8\sample_1_0008.png,C:\Users\subject\Desktop\SVRT Experiments\SVRT Experiment 3\svrt_images\generated_images\results_problem_21\sample_0_0008.png,,,,,,,,,,,,,,,,,,,,0,3,3,3,0,27,27,27,,,,,,,,,,,,,,j,21,B,B,20,1,Correct!,0.07909589994233102,374.07586800004356,None,374.07586800004356,None,374.2258658000501,None,,,,,77,001,2023-05-23_09h10.43.665,colored_shuffled,2021.2.3,59.99995198570309,
C:\Users\subject\Desktop\SVRT Experiments\SVRT Experiment 3\svrt_images\generated_images\results_problem_21,,,C:\Users\subject\Desktop\SVRT Experiments\SVRT Experiment 3\svrt_images\generated_images\results_problem_8\sample_1_0008.png,C:\Users\subject\Desktop\SVRT Experiments\SVRT Experiment 3\svrt_images\generated_images\results_problem_21\sample_1_0002.png,,,,,,,,,,,,,,,,,,,,0,3,3,3,0,28,28,28,,,,,,,,,,,,,,j,21,B,A,20,0,Incorrect!,0.47568869998212904,375.5592426999938,None,375.5592426999938,None,376.075902499957,None,,,,,77,001,2023-05-23_09h10.43.665,colored_shuffled,2021.2.3,59.99995198570309,
C:\Users\subject\Desktop\SVRT Experiments\SVRT Experiment 3\svrt_images\generated_images\results_problem_21,,,C:\Users\subject\Desktop\SVRT Experiments\SVRT Experiment 3\svrt_images\generated_images\results_problem_8\sample_1_0008.png,C:\Users\subject\Desktop\SVRT Experiments\SVRT Experiment 3\svrt_images\generated_images\results_problem_21\sample_1_0009.png,,,,,,,,,,,,,,,,,,,,0,3,3,3,0,29,29,29,,,,,,,,,,,,,,f,21,A,A,20,1,Correct!,0.4088809998938814,377.4259769000346,None,377.4259769000346,None,377.859295799979,None,,,,,77,001,2023-05-23_09h10.43.665,colored_shuffled,2021.2.3,59.99995198570309,
C:\Users\subject\Desktop\SVRT Experiments\SVRT Experiment 3\svrt_images\generated_images\results_problem_21,,,C:\Users\subject\Desktop\SVRT Experiments\SVRT Experiment 3\svrt_images\generated_images\results_problem_8\sample_1_0008.png,C:\Users\subject\Desktop\SVRT Experiments\SVRT Experiment 3\svrt_images\generated_images\results_problem_21\sample_1_0015.png,,,,,,,,,,,,,,,,,,,,0,3,3,3,0,30,30,30,,,,,,,,,,,,,,f,21,A,A,20,1,Correct!,0.32958709995727986,379.20937080006115,None,379.20937080006115,None,379.55933560000267,None,,,,,77,001,2023-05-23_09h10.43.665,colored_shuffled,2021.2.3,59.99995198570309,
C:\Users\subject\Desktop\SVRT Experiments\SVRT Experiment 3\svrt_images\generated_images\results_problem_21,,,C:\Users\subject\Desktop\SVRT Experiments\SVRT Experiment 3\svrt_images\generated_images\results_problem_8\sample_1_0008.png,C:\Users\subject\Desktop\SVRT Experiments\SVRT Experiment 3\svrt_images\generated_images\results_problem_21\sample_0_0004.png,,,,,,,,,,,,,,,,,,,,0,3,3,3,0,31,31,31,,,,,,,,,,,,,,f,21,A,B,20,0,Incorrect!,0.3255092999897897,380.90941439999733,None,380.90941439999733,None,381.25939679995645,None,,,,,77,001,2023-05-23_09h10.43.665,colored_shuffled,2021.2.3,59.99995198570309,
C:\Users\subject\Desktop\SVRT Experiments\SVRT Experiment 3\svrt_images\generated_images\results_problem_21,,,C:\Users\subject\Desktop\SVRT Experiments\SVRT Experiment 3\svrt_images\generated_images\results_problem_8\sample_1_0008.png,C:\Users\subject\Desktop\SVRT Experiments\SVRT Experiment 3\svrt_images\generated_images\results_problem_21\sample_0_0010.png,,,,,,,,,,,,,,,,,,,,0,3,3,3,0,32,32,32,,,,,,,,,,,,,,j,21,B,B,20,1,Correct!,0.18352630001027137,382.6594818000449,None,382.6594818000449,None,382.8761376000475,None,,,,,77,001,2023-05-23_09h10.43.665,colored_shuffled,2021.2.3,59.99995198570309,
C:\Users\subject\Desktop\SVRT Experiments\SVRT Experiment 3\svrt_images\generated_images\results_problem_21,,,C:\Users\subject\Desktop\SVRT Experiments\SVRT Experiment 3\svrt_images\generated_images\results_problem_8\sample_1_0008.png,C:\Users\subject\Desktop\SVRT Experiments\SVRT Experiment 3\svrt_images\generated_images\results_problem_21\sample_1_0003.png,,,,,,,,,,,,,,,,,,,,0,3,3,3,0,33,33,33,,,,,,,,,,,,,,j,21,B,A,20,0,Incorrect!,0.34277559991460294,384.276190900011,None,384.276190900011,None,384.69286040007137,None,,,,,77,001,2023-05-23_09h10.43.665,colored_shuffled,2021.2.3,59.99995198570309,
C:\Users\subject\Desktop\SVRT Experiments\SVRT Experiment 3\svrt_images\generated_images\results_problem_21,,,C:\Users\subject\Desktop\SVRT Experiments\SVRT Experiment 3\svrt_images\generated_images\results_problem_8\sample_1_0008.png,,,,,,,,,,,,,,,,,,,,,0,3,3,3,0,21,21,21,,,,,,,,,,,,,,,,,,,,,,,,,,,,385.6928867000388,385.6928867000388,space,0.7340924000600353,77,001,2023-05-23_09h10.43.665,colored_shuffled,2021.2.3,59.99995198570309,
C:\Users\subject\Desktop\SVRT Experiments\SVRT Experiment 3\svrt_images\generated_images\results_problem_14,,,C:\Users\subject\Desktop\SVRT Experiments\SVRT Experiment 3\svrt_images\generated_images\results_problem_8\sample_1_0008.png,,C:\Users\subject\Desktop\SVRT Experiments\SVRT Experiment 3\svrt_images\generated_images\results_problem_14\sample_0_0013.png,,,,,,,,,,,,,,,,,,,0,4,4,4,0,0,0,0,,,,,,,,,,,,,,f,14,A,B,20,0,Incorrect!,0.6472427999833599,386.45963060006034,None,386.45963060006034,None,387.1262687999988,None,,,,,77,001,2023-05-23_09h10.43.665,colored_shuffled,2021.2.3,59.99995198570309,
C:\Users\subject\Desktop\SVRT Experiments\SVRT Experiment 3\svrt_images\generated_images\results_problem_14,,,C:\Users\subject\Desktop\SVRT Experiments\SVRT Experiment 3\svrt_images\generated_images\results_problem_8\sample_1_0008.png,,C:\Users\subject\Desktop\SVRT Experiments\SVRT Experiment 3\svrt_images\generated_images\results_problem_14\sample_1_0005.png,,,,,,,,,,,,,,,,,,,0,4,4,4,0,1,1,1,,,,,,,,,,,,,,f,14,A,A,20,1,Correct!,5.459842200041749,388.1429649000056,None,388.1429649000056,None,393.6264703000197,None,,,,,77,001,2023-05-23_09h10.43.665,colored_shuffled,2021.2.3,59.99995198570309,
C:\Users\subject\Desktop\SVRT Experiments\SVRT Experiment 3\svrt_images\generated_images\results_problem_14,,,C:\Users\subject\Desktop\SVRT Experiments\SVRT Experiment 3\svrt_images\generated_images\results_problem_8\sample_1_0008.png,,C:\Users\subject\Desktop\SVRT Experiments\SVRT Experiment 3\svrt_images\generated_images\results_problem_14\sample_0_0015.png,,,,,,,,,,,,,,,,,,,0,4,4,4,0,2,2,2,,,,,,,,,,,,,,j,14,B,B,20,1,Correct!,0.3516222001053393,394.6431317999959,None,394.6431317999959,None,395.02649650000967,None,,,,,77,001,2023-05-23_09h10.43.665,colored_shuffled,2021.2.3,59.99995198570309,
C:\Users\subject\Desktop\SVRT Experiments\SVRT Experiment 3\svrt_images\generated_images\results_problem_14,,,C:\Users\subject\Desktop\SVRT Experiments\SVRT Experiment 3\svrt_images\generated_images\results_problem_8\sample_1_0008.png,,C:\Users\subject\Desktop\SVRT Experiments\SVRT Experiment 3\svrt_images\generated_images\results_problem_14\sample_1_0008.png,,,,,,,,,,,,,,,,,,,0,4,4,4,0,3,3,3,,,,,,,,,,,,,,f,14,A,A,20,1,Correct!,0.21488069999031723,396.05988129996695,None,396.05988129996695,None,396.29323459998704,None,,,,,77,001,2023-05-23_09h10.43.665,colored_shuffled,2021.2.3,59.99995198570309,
C:\Users\subject\Desktop\SVRT Experiments\SVRT Experiment 3\svrt_images\generated_images\results_problem_14,,,C:\Users\subject\Desktop\SVRT Experiments\SVRT Experiment 3\svrt_images\generated_images\results_problem_8\sample_1_0008.png,,C:\Users\subject\Desktop\SVRT Experiments\SVRT Experiment 3\svrt_images\generated_images\results_problem_14\sample_0_0008.png,,,,,,,,,,,,,,,,,,,0,4,4,4,0,4,4,4,,,,,,,,,,,,,,j,14,B,B,20,1,Correct!,0.23550589999649674,397.34326009999495,None,397.34326009999495,None,397.6099091999931,None,,,,,77,001,2023-05-23_09h10.43.665,colored_shuffled,2021.2.3,59.99995198570309,
C:\Users\subject\Desktop\SVRT Experiments\SVRT Experiment 3\svrt_images\generated_images\results_problem_14,,,C:\Users\subject\Desktop\SVRT Experiments\SVRT Experiment 3\svrt_images\generated_images\results_problem_8\sample_1_0008.png,,C:\Users\subject\Desktop\SVRT Experiments\SVRT Experiment 3\svrt_images\generated_images\results_problem_14\sample_0_0014.png,,,,,,,,,,,,,,,,,,,0,4,4,4,0,5,5,5,,,,,,,,,,,,,,j,14,B,B,20,1,Correct!,0.25486410001758486,398.6599689000286,None,398.6599689000286,None,398.94328400003724,None,,,,,77,001,2023-05-23_09h10.43.665,colored_shuffled,2021.2.3,59.99995198570309,
C:\Users\subject\Desktop\SVRT Experiments\SVRT Experiment 3\svrt_images\generated_images\results_problem_14,,,C:\Users\subject\Desktop\SVRT Experiments\SVRT Experiment 3\svrt_images\generated_images\results_problem_8\sample_1_0008.png,,C:\Users\subject\Desktop\SVRT Experiments\SVRT Experiment 3\svrt_images\generated_images\results_problem_14\sample_1_0004.png,,,,,,,,,,,,,,,,,,,0,4,4,4,0,6,6,6,,,,,,,,,,,,,,f,14,A,A,20,1,Correct!,0.21672420005779713,400.0100187000353,None,400.0100187000353,None,400.2600047000451,None,,,,,77,001,2023-05-23_09h10.43.665,colored_shuffled,2021.2.3,59.99995198570309,
C:\Users\subject\Desktop\SVRT Experiments\SVRT Experiment 3\svrt_images\generated_images\results_problem_14,,,C:\Users\subject\Desktop\SVRT Experiments\SVRT Experiment 3\svrt_images\generated_images\results_problem_8\sample_1_0008.png,,C:\Users\subject\Desktop\SVRT Experiments\SVRT Experiment 3\svrt_images\generated_images\results_problem_14\sample_0_0009.png,,,,,,,,,,,,,,,,,,,0,4,4,4,0,7,7,7,,,,,,,,,,,,,,j,14,B,B,20,1,Correct!,0.23606670007575303,401.32667390001006,None,401.32667390001006,None,401.5933891000459,None,,,,,77,001,2023-05-23_09h10.43.665,colored_shuffled,2021.2.3,59.99995198570309,
C:\Users\subject\Desktop\SVRT Experiments\SVRT Experiment 3\svrt_images\generated_images\results_problem_14,,,C:\Users\subject\Desktop\SVRT Experiments\SVRT Experiment 3\svrt_images\generated_images\results_problem_8\sample_1_0008.png,,C:\Users\subject\Desktop\SVRT Experiments\SVRT Experiment 3\svrt_images\generated_images\results_problem_14\sample_1_0011.png,,,,,,,,,,,,,,,,,,,0,4,4,4,0,8,8,8,,,,,,,,,,,,,,,,,,,,,,,,,,,,402.59341980004683,402.59341980004683,space,1.2733482999028638,77,001,2023-05-23_09h10.43.665,colored_shuffled,2021.2.3,59.99995198570309,
C:\Users\subject\Desktop\SVRT Experiments\SVRT Experiment 3\svrt_images\generated_images\results_problem_2,,,C:\Users\subject\Desktop\SVRT Experiments\SVRT Experiment 3\svrt_images\generated_images\results_problem_8\sample_1_0008.png,,C:\Users\subject\Desktop\SVRT Experiments\SVRT Experiment 3\svrt_images\generated_images\results_problem_14\sample_1_0011.png,C:\Users\subject\Desktop\SVRT Experiments\SVRT Experiment 3\svrt_images\generated_images\results_problem_2\sample_0_0009.png,,,,,,,,,,,,,,,,,,0,5,5,5,0,0,0,0,,,,,,,,,,,,,,f,2,A,B,20,0,Incorrect!,0.9732580999843776,403.8934570000274,None,403.8934570000274,None,404.8934915000573,None,,,,,77,001,2023-05-23_09h10.43.665,colored_shuffled,2021.2.3,59.99995198570309,
C:\Users\subject\Desktop\SVRT Experiments\SVRT Experiment 3\svrt_images\generated_images\results_problem_2,,,C:\Users\subject\Desktop\SVRT Experiments\SVRT Experiment 3\svrt_images\generated_images\results_problem_8\sample_1_0008.png,,C:\Users\subject\Desktop\SVRT Experiments\SVRT Experiment 3\svrt_images\generated_images\results_problem_14\sample_1_0011.png,C:\Users\subject\Desktop\SVRT Experiments\SVRT Experiment 3\svrt_images\generated_images\results_problem_2\sample_0_0014.png,,,,,,,,,,,,,,,,,,0,5,5,5,0,1,1,1,,,,,,,,,,,,,,j,2,B,B,20,1,Correct!,0.3245165999978781,405.9101911999751,None,405.9101911999751,None,406.260201600031,None,,,,,77,001,2023-05-23_09h10.43.665,colored_shuffled,2021.2.3,59.99995198570309,
C:\Users\subject\Desktop\SVRT Experiments\SVRT Experiment 3\svrt_images\generated_images\results_problem_2,,,C:\Users\subject\Desktop\SVRT Experiments\SVRT Experiment 3\svrt_images\generated_images\results_problem_8\sample_1_0008.png,,C:\Users\subject\Desktop\SVRT Experiments\SVRT Experiment 3\svrt_images\generated_images\results_problem_14\sample_1_0011.png,C:\Users\subject\Desktop\SVRT Experiments\SVRT Experiment 3\svrt_images\generated_images\results_problem_2\sample_1_0014.png,,,,,,,,,,,,,,,,,,0,5,5,5,0,2,2,2,,,,,,,,,,,,,,f,2,A,A,20,1,Correct!,0.20508930005598813,407.29360069998074,None,407.29360069998074,None,407.5269019000698,None,,,,,77,001,2023-05-23_09h10.43.665,colored_shuffled,2021.2.3,59.99995198570309,
C:\Users\subject\Desktop\SVRT Experiments\SVRT Experiment 3\svrt_images\generated_images\results_problem_2,,,C:\Users\subject\Desktop\SVRT Experiments\SVRT Experiment 3\svrt_images\generated_images\results_problem_8\sample_1_0008.png,,C:\Users\subject\Desktop\SVRT Experiments\SVRT Experiment 3\svrt_images\generated_images\results_problem_14\sample_1_0011.png,C:\Users\subject\Desktop\SVRT Experiments\SVRT Experiment 3\svrt_images\generated_images\results_problem_2\sample_1_0005.png,,,,,,,,,,,,,,,,,,0,5,5,5,0,3,3,3,,,,,,,,,,,,,,f,2,A,A,20,1,Correct!,0.2024299999466166,408.56023469998036,None,408.56023469998036,None,408.7936075000325,None,,,,,77,001,2023-05-23_09h10.43.665,colored_shuffled,2021.2.3,59.99995198570309,
C:\Users\subject\Desktop\SVRT Experiments\SVRT Experiment 3\svrt_images\generated_images\results_problem_2,,,C:\Users\subject\Desktop\SVRT Experiments\SVRT Experiment 3\svrt_images\generated_images\results_problem_8\sample_1_0008.png,,C:\Users\subject\Desktop\SVRT Experiments\SVRT Experiment 3\svrt_images\generated_images\results_problem_14\sample_1_0011.png,C:\Users\subject\Desktop\SVRT Experiments\SVRT Experiment 3\svrt_images\generated_images\results_problem_2\sample_0_0001.png,,,,,,,,,,,,,,,,,,0,5,5,5,0,4,4,4,,,,,,,,,,,,,,j,2,B,B,20,1,Correct!,0.21504689997527748,409.84364850004204,None,409.84364850004204,None,410.07698570005596,None,,,,,77,001,2023-05-23_09h10.43.665,colored_shuffled,2021.2.3,59.99995198570309,
C:\Users\subject\Desktop\SVRT Experiments\SVRT Experiment 3\svrt_images\generated_images\results_problem_2,,,C:\Users\subject\Desktop\SVRT Experiments\SVRT Experiment 3\svrt_images\generated_images\results_problem_8\sample_1_0008.png,,C:\Users\subject\Desktop\SVRT Experiments\SVRT Experiment 3\svrt_images\generated_images\results_problem_14\sample_1_0011.png,C:\Users\subject\Desktop\SVRT Experiments\SVRT Experiment 3\svrt_images\generated_images\results_problem_2\sample_0_0012.png,,,,,,,,,,,,,,,,,,0,5,5,5,0,5,5,5,,,,,,,,,,,,,,f,2,A,B,20,0,Incorrect!,0.2436957999598235,411.12702080002055,None,411.12702080002055,None,411.3936934999656,None,,,,,77,001,2023-05-23_09h10.43.665,colored_shuffled,2021.2.3,59.99995198570309,
C:\Users\subject\Desktop\SVRT Experiments\SVRT Experiment 3\svrt_images\generated_images\results_problem_2,,,C:\Users\subject\Desktop\SVRT Experiments\SVRT Experiment 3\svrt_images\generated_images\results_problem_8\sample_1_0008.png,,C:\Users\subject\Desktop\SVRT Experiments\SVRT Experiment 3\svrt_images\generated_images\results_problem_14\sample_1_0011.png,C:\Users\subject\Desktop\SVRT Experiments\SVRT Experiment 3\svrt_images\generated_images\results_problem_2\sample_1_0007.png,,,,,,,,,,,,,,,,,,0,5,5,5,0,6,6,6,,,,,,,,,,,,,,j,2,B,A,20,0,Incorrect!,0.6222372999181971,412.4603945000563,None,412.4603945000563,None,413.11040720005985,None,,,,,77,001,2023-05-23_09h10.43.665,colored_shuffled,2021.2.3,59.99995198570309,
C:\Users\subject\Desktop\SVRT Experiments\SVRT Experiment 3\svrt_images\generated_images\results_problem_2,,,C:\Users\subject\Desktop\SVRT Experiments\SVRT Experiment 3\svrt_images\generated_images\results_problem_8\sample_1_0008.png,,C:\Users\subject\Desktop\SVRT Experiments\SVRT Experiment 3\svrt_images\generated_images\results_problem_14\sample_1_0011.png,C:\Users\subject\Desktop\SVRT Experiments\SVRT Experiment 3\svrt_images\generated_images\results_problem_2\sample_1_0013.png,,,,,,,,,,,,,,,,,,0,5,5,5,0,7,7,7,,,,,,,,,,,,,,j,2,B,A,20,0,Incorrect!,0.29753169999457896,414.1771197000053,None,414.1771197000053,None,414.49379119998775,None,,,,,77,001,2023-05-23_09h10.43.665,colored_shuffled,2021.2.3,59.99995198570309,
C:\Users\subject\Desktop\SVRT Experiments\SVRT Experiment 3\svrt_images\generated_images\results_problem_2,,,C:\Users\subject\Desktop\SVRT Experiments\SVRT Experiment 3\svrt_images\generated_images\results_problem_8\sample_1_0008.png,,C:\Users\subject\Desktop\SVRT Experiments\SVRT Experiment 3\svrt_images\generated_images\results_problem_14\sample_1_0011.png,C:\Users\subject\Desktop\SVRT Experiments\SVRT Experiment 3\svrt_images\generated_images\results_problem_2\sample_0_0005.png,,,,,,,,,,,,,,,,,,0,5,5,5,0,8,8,8,,,,,,,,,,,,,,f,2,A,B,20,0,Incorrect!,0.2494771999772638,415.5771594999824,None,415.5771594999824,None,415.84383110003546,None,,,,,77,001,2023-05-23_09h10.43.665,colored_shuffled,2021.2.3,59.99995198570309,
C:\Users\subject\Desktop\SVRT Experiments\SVRT Experiment 3\svrt_images\generated_images\results_problem_2,,,C:\Users\subject\Desktop\SVRT Experiments\SVRT Experiment 3\svrt_images\generated_images\results_problem_8\sample_1_0008.png,,C:\Users\subject\Desktop\SVRT Experiments\SVRT Experiment 3\svrt_images\generated_images\results_problem_14\sample_1_0011.png,C:\Users\subject\Desktop\SVRT Experiments\SVRT Experiment 3\svrt_images\generated_images\results_problem_2\sample_1_0016.png,,,,,,,,,,,,,,,,,,0,5,5,5,0,9,9,9,,,,,,,,,,,,,,f,2,A,A,20,1,Correct!,0.20276679995004088,416.94386770005804,None,416.94386770005804,None,417.17717439995613,None,,,,,77,001,2023-05-23_09h10.43.665,colored_shuffled,2021.2.3,59.99995198570309,
C:\Users\subject\Desktop\SVRT Experiments\SVRT Experiment 3\svrt_images\generated_images\results_problem_2,,,C:\Users\subject\Desktop\SVRT Experiments\SVRT Experiment 3\svrt_images\generated_images\results_problem_8\sample_1_0008.png,,C:\Users\subject\Desktop\SVRT Experiments\SVRT Experiment 3\svrt_images\generated_images\results_problem_14\sample_1_0011.png,C:\Users\subject\Desktop\SVRT Experiments\SVRT Experiment 3\svrt_images\generated_images\results_problem_2\sample_0_0007.png,,,,,,,,,,,,,,,,,,0,5,5,5,0,10,10,10,,,,,,,,,,,,,,f,2,A,B,20,0,Incorrect!,0.7493649999378249,418.27724820002913,None,418.27724820002913,None,419.04393240006175,None,,,,,77,001,2023-05-23_09h10.43.665,colored_shuffled,2021.2.3,59.99995198570309,
C:\Users\subject\Desktop\SVRT Experiments\SVRT Experiment 3\svrt_images\generated_images\results_problem_2,,,C:\Users\subject\Desktop\SVRT Experiments\SVRT Experiment 3\svrt_images\generated_images\results_problem_8\sample_1_0008.png,,C:\Users\subject\Desktop\SVRT Experiments\SVRT Experiment 3\svrt_images\generated_images\results_problem_14\sample_1_0011.png,C:\Users\subject\Desktop\SVRT Experiments\SVRT Experiment 3\svrt_images\generated_images\results_problem_2\sample_1_0003.png,,,,,,,,,,,,,,,,,,0,5,5,5,0,11,11,11,,,,,,,,,,,,,,f,2,A,A,20,1,Correct!,0.11401789996307343,420.16061310004443,None,420.16061310004443,None,420.29399989999365,None,,,,,77,001,2023-05-23_09h10.43.665,colored_shuffled,2021.2.3,59.99995198570309,
C:\Users\subject\Desktop\SVRT Experiments\SVRT Experiment 3\svrt_images\generated_images\results_problem_2,,,C:\Users\subject\Desktop\SVRT Experiments\SVRT Experiment 3\svrt_images\generated_images\results_problem_8\sample_1_0008.png,,C:\Users\subject\Desktop\SVRT Experiments\SVRT Experiment 3\svrt_images\generated_images\results_problem_14\sample_1_0011.png,C:\Users\subject\Desktop\SVRT Experiments\SVRT Experiment 3\svrt_images\generated_images\results_problem_2\sample_0_0006.png,,,,,,,,,,,,,,,,,,0,5,5,5,0,12,12,12,,,,,,,,,,,,,,f,2,A,B,20,0,Incorrect!,1.279228600091301,421.4273430999601,None,421.4273430999601,None,422.72737820004113,None,,,,,77,001,2023-05-23_09h10.43.665,colored_shuffled,2021.2.3,59.99995198570309,
C:\Users\subject\Desktop\SVRT Experiments\SVRT Experiment 3\svrt_images\generated_images\results_problem_2,,,C:\Users\subject\Desktop\SVRT Experiments\SVRT Experiment 3\svrt_images\generated_images\results_problem_8\sample_1_0008.png,,C:\Users\subject\Desktop\SVRT Experiments\SVRT Experiment 3\svrt_images\generated_images\results_problem_14\sample_1_0011.png,C:\Users\subject\Desktop\SVRT Experiments\SVRT Experiment 3\svrt_images\generated_images\results_problem_2\sample_1_0011.png,,,,,,,,,,,,,,,,,,0,5,5,5,0,13,13,13,,,,,,,,,,,,,,f,2,A,A,20,1,Correct!,0.7338019999442622,423.8607572000474,None,423.8607572000474,None,424.6441044000676,None,,,,,77,001,2023-05-23_09h10.43.665,colored_shuffled,2021.2.3,59.99995198570309,
C:\Users\subject\Desktop\SVRT Experiments\SVRT Experiment 3\svrt_images\generated_images\results_problem_2,,,C:\Users\subject\Desktop\SVRT Experiments\SVRT Experiment 3\svrt_images\generated_images\results_problem_8\sample_1_0008.png,,C:\Users\subject\Desktop\SVRT Experiments\SVRT Experiment 3\svrt_images\generated_images\results_problem_14\sample_1_0011.png,C:\Users\subject\Desktop\SVRT Experiments\SVRT Experiment 3\svrt_images\generated_images\results_problem_2\sample_0_0011.png,,,,,,,,,,,,,,,,,,0,5,5,5,0,14,14,14,,,,,,,,,,,,,,f,2,A,B,20,0,Incorrect!,0.6084261999931186,425.79413990001194,None,425.79413990001194,None,426.44416029995773,None,,,,,77,001,2023-05-23_09h10.43.665,colored_shuffled,2021.2.3,59.99995198570309,
C:\Users\subject\Desktop\SVRT Experiments\SVRT Experiment 3\svrt_images\generated_images\results_problem_2,,,C:\Users\subject\Desktop\SVRT Experiments\SVRT Experiment 3\svrt_images\generated_images\results_problem_8\sample_1_0008.png,,C:\Users\subject\Desktop\SVRT Experiments\SVRT Experiment 3\svrt_images\generated_images\results_problem_14\sample_1_0011.png,C:\Users\subject\Desktop\SVRT Experiments\SVRT Experiment 3\svrt_images\generated_images\results_problem_2\sample_1_0002.png,,,,,,,,,,,,,,,,,,0,5,5,5,0,15,15,15,,,,,,,,,,,,,,f,2,A,A,20,1,Correct!,0.6076784000033513,427.61086819996126,None,427.61086819996126,None,428.2608817999717,None,,,,,77,001,2023-05-23_09h10.43.665,colored_shuffled,2021.2.3,59.99995198570309,
C:\Users\subject\Desktop\SVRT Experiments\SVRT Experiment 3\svrt_images\generated_images\results_problem_2,,,C:\Users\subject\Desktop\SVRT Experiments\SVRT Experiment 3\svrt_images\generated_images\results_problem_8\sample_1_0008.png,,C:\Users\subject\Desktop\SVRT Experiments\SVRT Experiment 3\svrt_images\generated_images\results_problem_14\sample_1_0011.png,C:\Users\subject\Desktop\SVRT Experiments\SVRT Experiment 3\svrt_images\generated_images\results_problem_2\sample_0_0015.png,,,,,,,,,,,,,,,,,,0,5,5,5,0,16,16,16,,,,,,,,,,,,,,f,2,A,B,20,0,Incorrect!,0.42288869991898537,429.42759740003385,None,429.42759740003385,None,429.87760030000936,None,,,,,77,001,2023-05-23_09h10.43.665,colored_shuffled,2021.2.3,59.99995198570309,
C:\Users\subject\Desktop\SVRT Experiments\SVRT Experiment 3\svrt_images\generated_images\results_problem_2,,,C:\Users\subject\Desktop\SVRT Experiments\SVRT Experiment 3\svrt_images\generated_images\results_problem_8\sample_1_0008.png,,C:\Users\subject\Desktop\SVRT Experiments\SVRT Experiment 3\svrt_images\generated_images\results_problem_14\sample_1_0011.png,C:\Users\subject\Desktop\SVRT Experiments\SVRT Experiment 3\svrt_images\generated_images\results_problem_2\sample_1_0006.png,,,,,,,,,,,,,,,,,,0,5,5,5,0,17,17,17,,,,,,,,,,,,,,f,2,A,A,20,1,Correct!,0.3495101999724284,431.0609780000523,None,431.0609780000523,None,431.4443173999898,None,,,,,77,001,2023-05-23_09h10.43.665,colored_shuffled,2021.2.3,59.99995198570309,
C:\Users\subject\Desktop\SVRT Experiments\SVRT Experiment 3\svrt_images\generated_images\results_problem_2,,,C:\Users\subject\Desktop\SVRT Experiments\SVRT Experiment 3\svrt_images\generated_images\results_problem_8\sample_1_0008.png,,C:\Users\subject\Desktop\SVRT Experiments\SVRT Experiment 3\svrt_images\generated_images\results_problem_14\sample_1_0011.png,C:\Users\subject\Desktop\SVRT Experiments\SVRT Experiment 3\svrt_images\generated_images\results_problem_2\sample_0_0016.png,,,,,,,,,,,,,,,,,,0,5,5,5,0,18,18,18,,,,,,,,,,,,,,f,2,A,B,20,0,Incorrect!,5.91804629995022,432.6443615000462,None,432.6443615000462,None,438.5945401999634,None,,,,,77,001,2023-05-23_09h10.43.665,colored_shuffled,2021.2.3,59.99995198570309,
C:\Users\subject\Desktop\SVRT Experiments\SVRT Experiment 3\svrt_images\generated_images\results_problem_2,,,C:\Users\subject\Desktop\SVRT Experiments\SVRT Experiment 3\svrt_images\generated_images\results_problem_8\sample_1_0008.png,,C:\Users\subject\Desktop\SVRT Experiments\SVRT Experiment 3\svrt_images\generated_images\results_problem_14\sample_1_0011.png,C:\Users\subject\Desktop\SVRT Experiments\SVRT Experiment 3\svrt_images\generated_images\results_problem_2\sample_1_0015.png,,,,,,,,,,,,,,,,,,0,5,5,5,0,19,19,19,,,,,,,,,,,,,,j,2,B,A,20,0,Incorrect!,0.5351627999916673,439.811250400031,None,439.811250400031,None,440.37791110004764,None,,,,,77,001,2023-05-23_09h10.43.665,colored_shuffled,2021.2.3,59.99995198570309,
C:\Users\subject\Desktop\SVRT Experiments\SVRT Experiment 3\svrt_images\generated_images\results_problem_2,,,C:\Users\subject\Desktop\SVRT Experiments\SVRT Experiment 3\svrt_images\generated_images\results_problem_8\sample_1_0008.png,,C:\Users\subject\Desktop\SVRT Experiments\SVRT Experiment 3\svrt_images\generated_images\results_problem_14\sample_1_0011.png,C:\Users\subject\Desktop\SVRT Experiments\SVRT Experiment 3\svrt_images\generated_images\results_problem_2\sample_1_0004.png,,,,,,,,,,,,,,,,,,0,5,5,5,0,20,20,20,,,,,,,,,,,,,,j,2,B,A,20,0,Incorrect!,0.27109120006207377,441.6113056000322,None,441.6113056000322,None,441.927973199985,None,,,,,77,001,2023-05-23_09h10.43.665,colored_shuffled,2021.2.3,59.99995198570309,
C:\Users\subject\Desktop\SVRT Experiments\SVRT Experiment 3\svrt_images\generated_images\results_problem_2,,,C:\Users\subject\Desktop\SVRT Experiments\SVRT Experiment 3\svrt_images\generated_images\results_problem_8\sample_1_0008.png,,C:\Users\subject\Desktop\SVRT Experiments\SVRT Experiment 3\svrt_images\generated_images\results_problem_14\sample_1_0011.png,C:\Users\subject\Desktop\SVRT Experiments\SVRT Experiment 3\svrt_images\generated_images\results_problem_2\sample_0_0013.png,,,,,,,,,,,,,,,,,,0,5,5,5,0,21,21,21,,,,,,,,,,,,,,f,2,A,B,20,0,Incorrect!,0.273061600048095,443.161354699987,None,443.161354699987,None,443.47802260005847,None,,,,,77,001,2023-05-23_09h10.43.665,colored_shuffled,2021.2.3,59.99995198570309,
C:\Users\subject\Desktop\SVRT Experiments\SVRT Experiment 3\svrt_images\generated_images\results_problem_2,,,C:\Users\subject\Desktop\SVRT Experiments\SVRT Experiment 3\svrt_images\generated_images\results_problem_8\sample_1_0008.png,,C:\Users\subject\Desktop\SVRT Experiments\SVRT Experiment 3\svrt_images\generated_images\results_problem_14\sample_1_0011.png,C:\Users\subject\Desktop\SVRT Experiments\SVRT Experiment 3\svrt_images\generated_images\results_problem_2\sample_1_0009.png,,,,,,,,,,,,,,,,,,0,5,5,5,0,22,22,22,,,,,,,,,,,,,,f,2,A,A,20,1,Correct!,0.6503312999848276,444.72807049995754,None,444.72807049995754,None,445.4447511000326,None,,,,,77,001,2023-05-23_09h10.43.665,colored_shuffled,2021.2.3,59.99995198570309,
C:\Users\subject\Desktop\SVRT Experiments\SVRT Experiment 3\svrt_images\generated_images\results_problem_2,,,C:\Users\subject\Desktop\SVRT Experiments\SVRT Experiment 3\svrt_images\generated_images\results_problem_8\sample_1_0008.png,,C:\Users\subject\Desktop\SVRT Experiments\SVRT Experiment 3\svrt_images\generated_images\results_problem_14\sample_1_0011.png,C:\Users\subject\Desktop\SVRT Experiments\SVRT Experiment 3\svrt_images\generated_images\results_problem_2\sample_0_0010.png,,,,,,,,,,,,,,,,,,0,5,5,5,0,23,23,23,,,,,,,,,,,,,,f,2,A,B,20,0,Incorrect!,1.8828481999225914,446.7114711999893,None,446.7114711999893,None,448.62818989995867,None,,,,,77,001,2023-05-23_09h10.43.665,colored_shuffled,2021.2.3,59.99995198570309,
C:\Users\subject\Desktop\SVRT Experiments\SVRT Experiment 3\svrt_images\generated_images\results_problem_2,,,C:\Users\subject\Desktop\SVRT Experiments\SVRT Experiment 3\svrt_images\generated_images\results_problem_8\sample_1_0008.png,,C:\Users\subject\Desktop\SVRT Experiments\SVRT Experiment 3\svrt_images\generated_images\results_problem_14\sample_1_0011.png,C:\Users\subject\Desktop\SVRT Experiments\SVRT Experiment 3\svrt_images\generated_images\results_problem_2\sample_1_0000.png,,,,,,,,,,,,,,,,,,0,5,5,5,0,24,24,24,,,,,,,,,,,,,,f,2,A,A,20,1,Correct!,1.8907849000534043,449.9115686999867,None,449.9115686999867,None,451.8616083000088,None,,,,,77,001,2023-05-23_09h10.43.665,colored_shuffled,2021.2.3,59.99995198570309,
C:\Users\subject\Desktop\SVRT Experiments\SVRT Experiment 3\svrt_images\generated_images\results_problem_2,,,C:\Users\subject\Desktop\SVRT Experiments\SVRT Experiment 3\svrt_images\generated_images\results_problem_8\sample_1_0008.png,,C:\Users\subject\Desktop\SVRT Experiments\SVRT Experiment 3\svrt_images\generated_images\results_problem_14\sample_1_0011.png,C:\Users\subject\Desktop\SVRT Experiments\SVRT Experiment 3\svrt_images\generated_images\results_problem_2\sample_1_0001.png,,,,,,,,,,,,,,,,,,0,5,5,5,0,25,25,25,,,,,,,,,,,,,,f,2,A,A,20,1,Correct!,0.27338579995557666,453.144990800065,None,453.144990800065,None,453.4950159,None,,,,,77,001,2023-05-23_09h10.43.665,colored_shuffled,2021.2.3,59.99995198570309,
C:\Users\subject\Desktop\SVRT Experiments\SVRT Experiment 3\svrt_images\generated_images\results_problem_2,,,C:\Users\subject\Desktop\SVRT Experiments\SVRT Experiment 3\svrt_images\generated_images\results_problem_8\sample_1_0008.png,,C:\Users\subject\Desktop\SVRT Experiments\SVRT Experiment 3\svrt_images\generated_images\results_problem_14\sample_1_0011.png,C:\Users\subject\Desktop\SVRT Experiments\SVRT Experiment 3\svrt_images\generated_images\results_problem_2\sample_1_0008.png,,,,,,,,,,,,,,,,,,0,5,5,5,0,26,26,26,,,,,,,,,,,,,,f,2,A,A,20,1,Correct!,0.4232653999933973,454.79506170004606,None,454.79506170004606,None,455.2783927000128,None,,,,,77,001,2023-05-23_09h10.43.665,colored_shuffled,2021.2.3,59.99995198570309,
C:\Users\subject\Desktop\SVRT Experiments\SVRT Experiment 3\svrt_images\generated_images\results_problem_2,,,C:\Users\subject\Desktop\SVRT Experiments\SVRT Experiment 3\svrt_images\generated_images\results_problem_8\sample_1_0008.png,,C:\Users\subject\Desktop\SVRT Experiments\SVRT Experiment 3\svrt_images\generated_images\results_problem_14\sample_1_0011.png,C:\Users\subject\Desktop\SVRT Experiments\SVRT Experiment 3\svrt_images\generated_images\results_problem_2\sample_0_0004.png,,,,,,,,,,,,,,,,,,0,5,5,5,0,27,27,27,,,,,,,,,,,,,,f,2,A,B,20,0,Incorrect!,2.4312172000063583,456.5950736000668,None,456.5950736000668,None,459.07851560006384,None,,,,,77,001,2023-05-23_09h10.43.665,colored_shuffled,2021.2.3,59.99995198570309,
C:\Users\subject\Desktop\SVRT Experiments\SVRT Experiment 3\svrt_images\generated_images\results_problem_2,,,C:\Users\subject\Desktop\SVRT Experiments\SVRT Experiment 3\svrt_images\generated_images\results_problem_8\sample_1_0008.png,,C:\Users\subject\Desktop\SVRT Experiments\SVRT Experiment 3\svrt_images\generated_images\results_problem_14\sample_1_0011.png,C:\Users\subject\Desktop\SVRT Experiments\SVRT Experiment 3\svrt_images\generated_images\results_problem_2\sample_1_0012.png,,,,,,,,,,,,,,,,,,0,5,5,5,0,28,28,28,,,,,,,,,,,,,,j,2,B,A,20,0,Incorrect!,0.5743305999785662,460.41190279996954,None,460.41190279996954,None,461.01190080004744,None,,,,,77,001,2023-05-23_09h10.43.665,colored_shuffled,2021.2.3,59.99995198570309,
C:\Users\subject\Desktop\SVRT Experiments\SVRT Experiment 3\svrt_images\generated_images\results_problem_2,,,C:\Users\subject\Desktop\SVRT Experiments\SVRT Experiment 3\svrt_images\generated_images\results_problem_8\sample_1_0008.png,,C:\Users\subject\Desktop\SVRT Experiments\SVRT Experiment 3\svrt_images\generated_images\results_problem_14\sample_1_0011.png,C:\Users\subject\Desktop\SVRT Experiments\SVRT Experiment 3\svrt_images\generated_images\results_problem_2\sample_0_0002.png,,,,,,,,,,,,,,,,,,0,5,5,5,0,29,29,29,,,,,,,,,,,,,,f,2,A,B,20,0,Incorrect!,0.5842628999380395,462.36197920003906,None,462.36197920003906,None,463.0452975999797,None,,,,,77,001,2023-05-23_09h10.43.665,colored_shuffled,2021.2.3,59.99995198570309,
C:\Users\subject\Desktop\SVRT Experiments\SVRT Experiment 3\svrt_images\generated_images\results_problem_2,,,C:\Users\subject\Desktop\SVRT Experiments\SVRT Experiment 3\svrt_images\generated_images\results_problem_8\sample_1_0008.png,,C:\Users\subject\Desktop\SVRT Experiments\SVRT Experiment 3\svrt_images\generated_images\results_problem_14\sample_1_0011.png,C:\Users\subject\Desktop\SVRT Experiments\SVRT Experiment 3\svrt_images\generated_images\results_problem_2\sample_0_0003.png,,,,,,,,,,,,,,,,,,0,5,5,5,0,30,30,30,,,,,,,,,,,,,,j,2,B,B,20,1,Correct!,1.5582056998973712,464.4120173000265,None,464.4120173000265,None,466.01206009997986,None,,,,,77,001,2023-05-23_09h10.43.665,colored_shuffled,2021.2.3,59.99995198570309,
C:\Users\subject\Desktop\SVRT Experiments\SVRT Experiment 3\svrt_images\generated_images\results_problem_2,,,C:\Users\subject\Desktop\SVRT Experiments\SVRT Experiment 3\svrt_images\generated_images\results_problem_8\sample_1_0008.png,,C:\Users\subject\Desktop\SVRT Experiments\SVRT Experiment 3\svrt_images\generated_images\results_problem_14\sample_1_0011.png,C:\Users\subject\Desktop\SVRT Experiments\SVRT Experiment 3\svrt_images\generated_images\results_problem_2\sample_0_0000.png,,,,,,,,,,,,,,,,,,0,5,5,5,0,31,31,31,,,,,,,,,,,,,,j,2,B,B,20,1,Correct!,0.6074374999152496,467.3787785000168,None,467.3787785000168,None,468.0621235000435,None,,,,,77,001,2023-05-23_09h10.43.665,colored_shuffled,2021.2.3,59.99995198570309,
C:\Users\subject\Desktop\SVRT Experiments\SVRT Experiment 3\svrt_images\generated_images\results_problem_2,,,C:\Users\subject\Desktop\SVRT Experiments\SVRT Experiment 3\svrt_images\generated_images\results_problem_8\sample_1_0008.png,,C:\Users\subject\Desktop\SVRT Experiments\SVRT Experiment 3\svrt_images\generated_images\results_problem_14\sample_1_0011.png,C:\Users\subject\Desktop\SVRT Experiments\SVRT Experiment 3\svrt_images\generated_images\results_problem_2\sample_0_0008.png,,,,,,,,,,,,,,,,,,0,5,5,5,0,32,32,32,,,,,,,,,,,,,,f,2,A,B,20,0,Incorrect!,0.5320261999731883,469.4621763000032,None,469.4621763000032,None,470.07885389996227,None,,,,,77,001,2023-05-23_09h10.43.665,colored_shuffled,2021.2.3,59.99995198570309,
C:\Users\subject\Desktop\SVRT Experiments\SVRT Experiment 3\svrt_images\generated_images\results_problem_2,,,C:\Users\subject\Desktop\SVRT Experiments\SVRT Experiment 3\svrt_images\generated_images\results_problem_8\sample_1_0008.png,,C:\Users\subject\Desktop\SVRT Experiments\SVRT Experiment 3\svrt_images\generated_images\results_problem_14\sample_1_0011.png,C:\Users\subject\Desktop\SVRT Experiments\SVRT Experiment 3\svrt_images\generated_images\results_problem_2\sample_1_0010.png,,,,,,,,,,,,,,,,,,0,5,5,5,0,33,33,33,,,,,,,,,,,,,,j,2,B,A,20,0,Incorrect!,0.17931009992025793,471.5988748000236,None,471.5988748000236,None,471.81225019996054,None,,,,,77,001,2023-05-23_09h10.43.665,colored_shuffled,2021.2.3,59.99995198570309,
C:\Users\subject\Desktop\SVRT Experiments\SVRT Experiment 3\svrt_images\generated_images\results_problem_2,,,C:\Users\subject\Desktop\SVRT Experiments\SVRT Experiment 3\svrt_images\generated_images\results_problem_8\sample_1_0008.png,,C:\Users\subject\Desktop\SVRT Experiments\SVRT Experiment 3\svrt_images\generated_images\results_problem_14\sample_1_0011.png,,,,,,,,,,,,,,,,,,,0,5,5,5,0,8,8,8,,,,,,,,,,,,,,,,,,,,,,,,,,,,472.81226879998576,472.81226879998576,space,0.869868699926883,77,001,2023-05-23_09h10.43.665,colored_shuffled,2021.2.3,59.99995198570309,
C:\Users\subject\Desktop\SVRT Experiments\SVRT Experiment 3\svrt_images\generated_images\results_problem_6,,,C:\Users\subject\Desktop\SVRT Experiments\SVRT Experiment 3\svrt_images\generated_images\results_problem_8\sample_1_0008.png,,C:\Users\subject\Desktop\SVRT Experiments\SVRT Experiment 3\svrt_images\generated_images\results_problem_14\sample_1_0011.png,,C:\Users\subject\Desktop\SVRT Experiments\SVRT Experiment 3\svrt_images\generated_images\results_problem_6\sample_1_0012.png,,,,,,,,,,,,,,,,,0,6,6,6,0,0,0,0,,,,,,,,,,,,,,f,6,A,A,20,1,Correct!,1.0978535000467673,473.7123064000625,None,473.7123064000625,None,474.8290037000552,None,,,,,77,001,2023-05-23_09h10.43.665,colored_shuffled,2021.2.3,59.99995198570309,
C:\Users\subject\Desktop\SVRT Experiments\SVRT Experiment 3\svrt_images\generated_images\results_problem_6,,,C:\Users\subject\Desktop\SVRT Experiments\SVRT Experiment 3\svrt_images\generated_images\results_problem_8\sample_1_0008.png,,C:\Users\subject\Desktop\SVRT Experiments\SVRT Experiment 3\svrt_images\generated_images\results_problem_14\sample_1_0011.png,,C:\Users\subject\Desktop\SVRT Experiments\SVRT Experiment 3\svrt_images\generated_images\results_problem_6\sample_1_0011.png,,,,,,,,,,,,,,,,,0,6,6,6,0,1,1,1,,,,,,,,,,,,,,f,6,A,A,20,1,Correct!,1.9884766999166459,475.8456612000009,None,475.8456612000009,None,477.8624256000621,None,,,,,77,001,2023-05-23_09h10.43.665,colored_shuffled,2021.2.3,59.99995198570309,
C:\Users\subject\Desktop\SVRT Experiments\SVRT Experiment 3\svrt_images\generated_images\results_problem_6,,,C:\Users\subject\Desktop\SVRT Experiments\SVRT Experiment 3\svrt_images\generated_images\results_problem_8\sample_1_0008.png,,C:\Users\subject\Desktop\SVRT Experiments\SVRT Experiment 3\svrt_images\generated_images\results_problem_14\sample_1_0011.png,,C:\Users\subject\Desktop\SVRT Experiments\SVRT Experiment 3\svrt_images\generated_images\results_problem_6\sample_1_0003.png,,,,,,,,,,,,,,,,,0,6,6,6,0,2,2,2,,,,,,,,,,,,,,j,6,B,A,20,0,Incorrect!,0.45832670002710074,478.89580399997067,None,478.89580399997067,None,479.37914570001885,None,,,,,77,001,2023-05-23_09h10.43.665,colored_shuffled,2021.2.3,59.99995198570309,
C:\Users\subject\Desktop\SVRT Experiments\SVRT Experiment 3\svrt_images\generated_images\results_problem_6,,,C:\Users\subject\Desktop\SVRT Experiments\SVRT Experiment 3\svrt_images\generated_images\results_problem_8\sample_1_0008.png,,C:\Users\subject\Desktop\SVRT Experiments\SVRT Experiment 3\svrt_images\generated_images\results_problem_14\sample_1_0011.png,,C:\Users\subject\Desktop\SVRT Experiments\SVRT Experiment 3\svrt_images\generated_images\results_problem_6\sample_1_0005.png,,,,,,,,,,,,,,,,,0,6,6,6,0,3,3,3,,,,,,,,,,,,,,j,6,B,A,20,0,Incorrect!,0.8048956000711769,480.4291814999888,None,480.4291814999888,None,481.2625212999992,None,,,,,77,001,2023-05-23_09h10.43.665,colored_shuffled,2021.2.3,59.99995198570309,
