folder,results_problem_16,results_problem_4,results_problem_8,results_problem_21,results_problem_14,results_problem_2,results_problem_6,results_problem_9,results_problem_5,results_problem_19,results_problem_18,results_problem_15,results_problem_11,results_problem_13,results_problem_12,results_problem_22,results_problem_20,results_problem_17,results_problem_7,results_problem_1,results_problem_10,results_problem_3,results_problem_23,categories.thisRepN,categories.thisTrialN,categories.thisN,categories.thisIndex,trials.thisRepN,trials.thisTrialN,trials.thisN,trials.thisIndex,consent_text.started,consent_kb.started,consent_kb.keys,consent_kb.rt,Gender.keys,Gender.rt,Age,instructions_text.started,instructions_text.stopped,instructions_kb.keys,instructions_kb.rt,instructions_kb.started,instructions_kb.stopped,trial_kb.keys,current_problem_num,category_resp,answer,seed,accuracy,feedback,trial_kb.rt,trial_kb.started,trial_kb.stopped,trial_image.started,trial_image.stopped,feedback_text.started,feedback_text.stopped,new_problem_kb.started,new_problem_text.started,new_problem_kb.keys,new_problem_kb.rt,Participant #,session,date,expName,psychopyVersion,frameRate,
,,,,,,,,,,,,,,,,,,,,,,,,,,,,,,,,21.675863899989054,21.675863899989054,y,457.0704675000161,,,,,,,,,,,,,,,,,,,,,,,,,,,,79,001,2023-05-23_13h03.13.797,uncolored_shuffled,2021.2.3,59.946791227714485,
,,,,,,,,,,,,,,,,,,,,,,,,,,,,,,,,,,,,m,2.71575499989558,,,,,,,,,,,,,,,,,,,,,,,,,,79,001,2023-05-23_13h03.13.797,uncolored_shuffled,2021.2.3,59.946791227714485,
,,,,,,,,,,,,,,,,,,,,,,,,,,,,,,,,,,,,,,21,485.57970459992066,None,space,21.34248930006288,485.57970459992066,None,,,,,,,,,,,,,,,,,,,79,001,2023-05-23_13h03.13.797,uncolored_shuffled,2021.2.3,59.946791227714485,
C:\Users\subject\Desktop\SVRT Experiments\SVRT Experiment 3\svrt_images\generated_images\results_problem_16,C:\Users\subject\Desktop\SVRT Experiments\SVRT Experiment 3\svrt_images\generated_images\results_problem_16\sample_1_0012.png,,,,,,,,,,,,,,,,,,,,,,,0,0,0,0,0,0,0,0,,,,,,,,,,,,,,f,16,A,A,20,1,Correct!,10.576359700062312,506.9457731000148,None,506.9457731000148,None,517.5537732999073,None,,,,,79,001,2023-05-23_13h03.13.797,uncolored_shuffled,2021.2.3,59.946791227714485,
C:\Users\subject\Desktop\SVRT Experiments\SVRT Experiment 3\svrt_images\generated_images\results_problem_16,C:\Users\subject\Desktop\SVRT Experiments\SVRT Experiment 3\svrt_images\generated_images\results_problem_16\sample_1_0006.png,,,,,,,,,,,,,,,,,,,,,,,0,0,0,0,0,1,1,1,,,,,,,,,,,,,,f,16,A,A,20,1,Correct!,5.407391799963079,518.5545654000016,None,518.5545654000016,None,523.9919913999038,None,,,,,79,001,2023-05-23_13h03.13.797,uncolored_shuffled,2021.2.3,59.946791227714485,
C:\Users\subject\Desktop\SVRT Experiments\SVRT Experiment 3\svrt_images\generated_images\results_problem_16,C:\Users\subject\Desktop\SVRT Experiments\SVRT Experiment 3\svrt_images\generated_images\results_problem_16\sample_1_0013.png,,,,,,,,,,,,,,,,,,,,,,,0,0,0,0,0,2,2,2,,,,,,,,,,,,,,j,16,B,A,20,0,Incorrect!,2.9685081999050453,525.0094324999955,None,525.0094324999955,None,527.9949820999755,None,,,,,79,001,2023-05-23_13h03.13.797,uncolored_shuffled,2021.2.3,59.946791227714485,
C:\Users\subject\Desktop\SVRT Experiments\SVRT Experiment 3\svrt_images\generated_images\results_problem_16,C:\Users\subject\Desktop\SVRT Experiments\SVRT Experiment 3\svrt_images\generated_images\results_problem_16\sample_0_0011.png,,,,,,,,,,,,,,,,,,,,,,,0,0,0,0,0,3,3,3,,,,,,,,,,,,,,f,16,A,B,20,0,Incorrect!,9.037457600003108,529.0124214999378,None,529.0124214999378,None,538.0692714999896,None,,,,,79,001,2023-05-23_13h03.13.797,uncolored_shuffled,2021.2.3,59.946791227714485,
C:\Users\subject\Desktop\SVRT Experiments\SVRT Experiment 3\svrt_images\generated_images\results_problem_16,C:\Users\subject\Desktop\SVRT Experiments\SVRT Experiment 3\svrt_images\generated_images\results_problem_16\sample_0_0002.png,,,,,,,,,,,,,,,,,,,,,,,0,0,0,0,0,4,4,4,,,,,,,,,,,,,,j,16,B,B,20,1,Correct!,0.09850550000555813,539.1033930999693,None,539.1033930999693,None,539.2201448999112,None,,,,,79,001,2023-05-23_13h03.13.797,uncolored_shuffled,2021.2.3,59.946791227714485,
C:\Users\subject\Desktop\SVRT Experiments\SVRT Experiment 3\svrt_images\generated_images\results_problem_16,C:\Users\subject\Desktop\SVRT Experiments\SVRT Experiment 3\svrt_images\generated_images\results_problem_16\sample_1_0007.png,,,,,,,,,,,,,,,,,,,,,,,0,0,0,0,0,5,5,5,,,,,,,,,,,,,,f,16,A,A,20,1,Correct!,2.81090280006174,540.2709346999181,None,540.2709346999181,None,543.1064037999604,None,,,,,79,001,2023-05-23_13h03.13.797,uncolored_shuffled,2021.2.3,59.946791227714485,
C:\Users\subject\Desktop\SVRT Experiments\SVRT Experiment 3\svrt_images\generated_images\results_problem_16,C:\Users\subject\Desktop\SVRT Experiments\SVRT Experiment 3\svrt_images\generated_images\results_problem_16\sample_0_0007.png,,,,,,,,,,,,,,,,,,,,,,,0,0,0,0,0,6,6,6,,,,,,,,,,,,,,f,16,A,B,20,0,Incorrect!,39.86836919991765,544.1572084999643,None,544.1572084999643,None,584.0539303999394,None,,,,,79,001,2023-05-23_13h03.13.797,uncolored_shuffled,2021.2.3,59.946791227714485,
C:\Users\subject\Desktop\SVRT Experiments\SVRT Experiment 3\svrt_images\generated_images\results_problem_16,C:\Users\subject\Desktop\SVRT Experiments\SVRT Experiment 3\svrt_images\generated_images\results_problem_16\sample_1_0014.png,,,,,,,,,,,,,,,,,,,,,,,0,0,0,0,0,7,7,7,,,,,,,,,,,,,,f,16,A,A,20,1,Correct!,2.600104399956763,585.1214332999662,None,585.1214332999662,None,587.740046299994,None,,,,,79,001,2023-05-23_13h03.13.797,uncolored_shuffled,2021.2.3,59.946791227714485,
C:\Users\subject\Desktop\SVRT Experiments\SVRT Experiment 3\svrt_images\generated_images\results_problem_16,C:\Users\subject\Desktop\SVRT Experiments\SVRT Experiment 3\svrt_images\generated_images\results_problem_16\sample_0_0016.png,,,,,,,,,,,,,,,,,,,,,,,0,0,0,0,0,8,8,8,,,,,,,,,,,,,,j,16,B,B,20,1,Correct!,22.097892199992202,588.8074928999413,None,588.8074928999413,None,610.9241871999111,None,,,,,79,001,2023-05-23_13h03.13.797,uncolored_shuffled,2021.2.3,59.946791227714485,
C:\Users\subject\Desktop\SVRT Experiments\SVRT Experiment 3\svrt_images\generated_images\results_problem_16,C:\Users\subject\Desktop\SVRT Experiments\SVRT Experiment 3\svrt_images\generated_images\results_problem_16\sample_1_0001.png,,,,,,,,,,,,,,,,,,,,,,,0,0,0,0,0,9,9,9,,,,,,,,,,,,,,f,16,A,A,20,1,Correct!,1.95366879994981,611.991664399975,None,611.991664399975,None,613.9764899999136,None,,,,,79,001,2023-05-23_13h03.13.797,uncolored_shuffled,2021.2.3,59.946791227714485,
C:\Users\subject\Desktop\SVRT Experiments\SVRT Experiment 3\svrt_images\generated_images\results_problem_16,C:\Users\subject\Desktop\SVRT Experiments\SVRT Experiment 3\svrt_images\generated_images\results_problem_16\sample_0_0000.png,,,,,,,,,,,,,,,,,,,,,,,0,0,0,0,0,10,10,10,,,,,,,,,,,,,,f,16,A,B,20,0,Incorrect!,2.6687621999299154,615.0606644999934,None,615.0606644999934,None,617.7626771999057,None,,,,,79,001,2023-05-23_13h03.13.797,uncolored_shuffled,2021.2.3,59.946791227714485,
C:\Users\subject\Desktop\SVRT Experiments\SVRT Experiment 3\svrt_images\generated_images\results_problem_16,C:\Users\subject\Desktop\SVRT Experiments\SVRT Experiment 3\svrt_images\generated_images\results_problem_16\sample_0_0006.png,,,,,,,,,,,,,,,,,,,,,,,0,0,0,0,0,11,11,11,,,,,,,,,,,,,,j,16,B,B,20,1,Correct!,20.162291100015864,618.846836599987,None,618.846836599987,None,639.028719099937,None,,,,,79,001,2023-05-23_13h03.13.797,uncolored_shuffled,2021.2.3,59.946791227714485,
C:\Users\subject\Desktop\SVRT Experiments\SVRT Experiment 3\svrt_images\generated_images\results_problem_16,C:\Users\subject\Desktop\SVRT Experiments\SVRT Experiment 3\svrt_images\generated_images\results_problem_16\sample_0_0008.png,,,,,,,,,,,,,,,,,,,,,,,0,0,0,0,0,12,12,12,,,,,,,,,,,,,,f,16,A,B,20,0,Incorrect!,2.1035833000205457,640.1295127999038,None,640.1295127999038,None,642.2644801000133,None,,,,,79,001,2023-05-23_13h03.13.797,uncolored_shuffled,2021.2.3,59.946791227714485,
C:\Users\subject\Desktop\SVRT Experiments\SVRT Experiment 3\svrt_images\generated_images\results_problem_16,C:\Users\subject\Desktop\SVRT Experiments\SVRT Experiment 3\svrt_images\generated_images\results_problem_16\sample_0_0004.png,,,,,,,,,,,,,,,,,,,,,,,0,0,0,0,0,13,13,13,,,,,,,,,,,,,,j,16,B,B,20,1,Correct!,67.42670269997325,643.3819588999031,None,643.3819588999031,None,710.8328299999703,None,,,,,79,001,2023-05-23_13h03.13.797,uncolored_shuffled,2021.2.3,59.946791227714485,
C:\Users\subject\Desktop\SVRT Experiments\SVRT Experiment 3\svrt_images\generated_images\results_problem_16,C:\Users\subject\Desktop\SVRT Experiments\SVRT Experiment 3\svrt_images\generated_images\results_problem_16\sample_0_0003.png,,,,,,,,,,,,,,,,,,,,,,,0,0,0,0,0,14,14,14,,,,,,,,,,,,,,j,16,B,B,20,1,Correct!,6.666281700017862,711.9503202999476,None,711.9503202999476,None,718.6387926999014,None,,,,,79,001,2023-05-23_13h03.13.797,uncolored_shuffled,2021.2.3,59.946791227714485,
C:\Users\subject\Desktop\SVRT Experiments\SVRT Experiment 3\svrt_images\generated_images\results_problem_16,C:\Users\subject\Desktop\SVRT Experiments\SVRT Experiment 3\svrt_images\generated_images\results_problem_16\sample_1_0009.png,,,,,,,,,,,,,,,,,,,,,,,0,0,0,0,0,15,15,15,,,,,,,,,,,,,,f,16,A,A,20,1,Correct!,4.059634800069034,719.772928899969,None,719.772928899969,None,723.8593888999894,None,,,,,79,001,2023-05-23_13h03.13.797,uncolored_shuffled,2021.2.3,59.946791227714485,
C:\Users\subject\Desktop\SVRT Experiments\SVRT Experiment 3\svrt_images\generated_images\results_problem_16,C:\Users\subject\Desktop\SVRT Experiments\SVRT Experiment 3\svrt_images\generated_images\results_problem_16\sample_1_0003.png,,,,,,,,,,,,,,,,,,,,,,,0,0,0,0,0,16,16,16,,,,,,,,,,,,,,j,16,B,A,20,0,Incorrect!,53.92664910003077,724.9935122999595,None,724.9935122999595,None,778.9508426999673,None,,,,,79,001,2023-05-23_13h03.13.797,uncolored_shuffled,2021.2.3,59.946791227714485,
C:\Users\subject\Desktop\SVRT Experiments\SVRT Experiment 3\svrt_images\generated_images\results_problem_16,C:\Users\subject\Desktop\SVRT Experiments\SVRT Experiment 3\svrt_images\generated_images\results_problem_16\sample_0_0015.png,,,,,,,,,,,,,,,,,,,,,,,0,0,0,0,0,17,17,17,,,,,,,,,,,,,,f,16,A,B,20,0,Incorrect!,4.050446900073439,780.1016818999778,None,780.1016818999778,None,784.1881335999351,None,,,,,79,001,2023-05-23_13h03.13.797,uncolored_shuffled,2021.2.3,59.946791227714485,
C:\Users\subject\Desktop\SVRT Experiments\SVRT Experiment 3\svrt_images\generated_images\results_problem_16,C:\Users\subject\Desktop\SVRT Experiments\SVRT Experiment 3\svrt_images\generated_images\results_problem_16\sample_1_0002.png,,,,,,,,,,,,,,,,,,,,,,,0,0,0,0,0,18,18,18,,,,,,,,,,,,,,f,16,A,A,20,1,Correct!,5.868385199923068,785.3556874999776,None,785.3556874999776,None,791.2434529999737,None,,,,,79,001,2023-05-23_13h03.13.797,uncolored_shuffled,2021.2.3,59.946791227714485,
C:\Users\subject\Desktop\SVRT Experiments\SVRT Experiment 3\svrt_images\generated_images\results_problem_16,C:\Users\subject\Desktop\SVRT Experiments\SVRT Experiment 3\svrt_images\generated_images\results_problem_16\sample_0_0009.png,,,,,,,,,,,,,,,,,,,,,,,0,0,0,0,0,19,19,19,,,,,,,,,,,,,,f,16,A,B,20,0,Incorrect!,9.660345799988136,792.427649899968,None,792.427649899968,None,802.1182869999902,None,,,,,79,001,2023-05-23_13h03.13.797,uncolored_shuffled,2021.2.3,59.946791227714485,
C:\Users\subject\Desktop\SVRT Experiments\SVRT Experiment 3\svrt_images\generated_images\results_problem_16,C:\Users\subject\Desktop\SVRT Experiments\SVRT Experiment 3\svrt_images\generated_images\results_problem_16\sample_0_0005.png,,,,,,,,,,,,,,,,,,,,,,,0,0,0,0,0,20,20,20,,,,,,,,,,,,,,f,16,A,B,20,0,Incorrect!,5.02539500000421,803.3025513999164,None,803.3025513999164,None,808.3563493000111,None,,,,,79,001,2023-05-23_13h03.13.797,uncolored_shuffled,2021.2.3,59.946791227714485,
C:\Users\subject\Desktop\SVRT Experiments\SVRT Experiment 3\svrt_images\generated_images\results_problem_16,C:\Users\subject\Desktop\SVRT Experiments\SVRT Experiment 3\svrt_images\generated_images\results_problem_16\sample_1_0004.png,,,,,,,,,,,,,,,,,,,,,,,0,0,0,0,0,21,21,21,,,,,,,,,,,,,,j,16,B,A,20,0,Incorrect!,5.843320700107142,809.5405758999987,None,809.5405758999987,None,815.4116599999834,None,,,,,79,001,2023-05-23_13h03.13.797,uncolored_shuffled,2021.2.3,59.946791227714485,
C:\Users\subject\Desktop\SVRT Experiments\SVRT Experiment 3\svrt_images\generated_images\results_problem_16,C:\Users\subject\Desktop\SVRT Experiments\SVRT Experiment 3\svrt_images\generated_images\results_problem_16\sample_1_0005.png,,,,,,,,,,,,,,,,,,,,,,,0,0,0,0,0,22,22,22,,,,,,,,,,,,,,j,16,B,A,20,0,Incorrect!,8.71526399999857,816.6125619999366,None,816.6125619999366,None,825.3691687999526,None,,,,,79,001,2023-05-23_13h03.13.797,uncolored_shuffled,2021.2.3,59.946791227714485,
C:\Users\subject\Desktop\SVRT Experiments\SVRT Experiment 3\svrt_images\generated_images\results_problem_16,C:\Users\subject\Desktop\SVRT Experiments\SVRT Experiment 3\svrt_images\generated_images\results_problem_16\sample_1_0016.png,,,,,,,,,,,,,,,,,,,,,,,0,0,0,0,0,23,23,23,,,,,,,,,,,,,,f,16,A,A,20,1,Correct!,2.5170013000024483,826.5867677999195,None,826.5867677999195,None,829.1386754999403,None,,,,,79,001,2023-05-23_13h03.13.797,uncolored_shuffled,2021.2.3,59.946791227714485,
C:\Users\subject\Desktop\SVRT Experiments\SVRT Experiment 3\svrt_images\generated_images\results_problem_16,C:\Users\subject\Desktop\SVRT Experiments\SVRT Experiment 3\svrt_images\generated_images\results_problem_16\sample_1_0000.png,,,,,,,,,,,,,,,,,,,,,,,0,0,0,0,0,24,24,24,,,,,,,,,,,,,,j,16,B,A,20,0,Incorrect!,8.410784399951808,830.3729639999801,None,830.3729639999801,None,838.8126373999985,None,,,,,79,001,2023-05-23_13h03.13.797,uncolored_shuffled,2021.2.3,59.946791227714485,
C:\Users\subject\Desktop\SVRT Experiments\SVRT Experiment 3\svrt_images\generated_images\results_problem_16,C:\Users\subject\Desktop\SVRT Experiments\SVRT Experiment 3\svrt_images\generated_images\results_problem_16\sample_0_0013.png,,,,,,,,,,,,,,,,,,,,,,,0,0,0,0,0,25,25,25,,,,,,,,,,,,,,f,16,A,B,20,0,Incorrect!,5.032874200027436,840.0468977999408,None,840.0468977999408,None,845.1007108999183,None,,,,,79,001,2023-05-23_13h03.13.797,uncolored_shuffled,2021.2.3,59.946791227714485,
C:\Users\subject\Desktop\SVRT Experiments\SVRT Experiment 3\svrt_images\generated_images\results_problem_16,C:\Users\subject\Desktop\SVRT Experiments\SVRT Experiment 3\svrt_images\generated_images\results_problem_16\sample_0_0012.png,,,,,,,,,,,,,,,,,,,,,,,0,0,0,0,0,26,26,26,,,,,,,,,,,,,,j,16,B,B,20,1,Correct!,2.5440491000190377,846.3516625999473,None,846.3516625999473,None,848.9202295999276,None,,,,,79,001,2023-05-23_13h03.13.797,uncolored_shuffled,2021.2.3,59.946791227714485,
C:\Users\subject\Desktop\SVRT Experiments\SVRT Experiment 3\svrt_images\generated_images\results_problem_16,C:\Users\subject\Desktop\SVRT Experiments\SVRT Experiment 3\svrt_images\generated_images\results_problem_16\sample_0_0001.png,,,,,,,,,,,,,,,,,,,,,,,0,0,0,0,0,27,27,27,,,,,,,,,,,,,,j,16,B,B,20,1,Correct!,1.0677142000058666,850.1878722999245,None,850.1878722999245,None,851.3053540999535,None,,,,,79,001,2023-05-23_13h03.13.797,uncolored_shuffled,2021.2.3,59.946791227714485,
C:\Users\subject\Desktop\SVRT Experiments\SVRT Experiment 3\svrt_images\generated_images\results_problem_16,C:\Users\subject\Desktop\SVRT Experiments\SVRT Experiment 3\svrt_images\generated_images\results_problem_16\sample_1_0010.png,,,,,,,,,,,,,,,,,,,,,,,0,0,0,0,0,28,28,28,,,,,,,,,,,,,,j,16,B,A,20,0,Incorrect!,0.010618400061503053,852.5730117999483,None,852.5730117999483,None,852.6397322999546,None,,,,,79,001,2023-05-23_13h03.13.797,uncolored_shuffled,2021.2.3,59.946791227714485,
C:\Users\subject\Desktop\SVRT Experiments\SVRT Experiment 3\svrt_images\generated_images\results_problem_16,C:\Users\subject\Desktop\SVRT Experiments\SVRT Experiment 3\svrt_images\generated_images\results_problem_16\sample_0_0010.png,,,,,,,,,,,,,,,,,,,,,,,0,0,0,0,0,29,29,29,,,,,,,,,,,,,,f,16,A,B,20,0,Incorrect!,5.267547899973579,853.9240578999743,None,853.9240578999743,None,859.2614000999602,None,,,,,79,001,2023-05-23_13h03.13.797,uncolored_shuffled,2021.2.3,59.946791227714485,
C:\Users\subject\Desktop\SVRT Experiments\SVRT Experiment 3\svrt_images\generated_images\results_problem_16,C:\Users\subject\Desktop\SVRT Experiments\SVRT Experiment 3\svrt_images\generated_images\results_problem_16\sample_0_0014.png,,,,,,,,,,,,,,,,,,,,,,,0,0,0,0,0,30,30,30,,,,,,,,,,,,,,j,16,B,B,20,1,Correct!,7.845088099944405,860.5623793000123,None,860.5623793000123,None,868.4849711999996,None,,,,,79,001,2023-05-23_13h03.13.797,uncolored_shuffled,2021.2.3,59.946791227714485,
C:\Users\subject\Desktop\SVRT Experiments\SVRT Experiment 3\svrt_images\generated_images\results_problem_16,C:\Users\subject\Desktop\SVRT Experiments\SVRT Experiment 3\svrt_images\generated_images\results_problem_16\sample_1_0008.png,,,,,,,,,,,,,,,,,,,,,,,0,0,0,0,0,31,31,31,,,,,,,,,,,,,,j,16,B,A,20,0,Incorrect!,1.2454510999377817,869.7860051000025,None,869.7860051000025,None,871.0536118999589,None,,,,,79,001,2023-05-23_13h03.13.797,uncolored_shuffled,2021.2.3,59.946791227714485,
C:\Users\subject\Desktop\SVRT Experiments\SVRT Experiment 3\svrt_images\generated_images\results_problem_16,C:\Users\subject\Desktop\SVRT Experiments\SVRT Experiment 3\svrt_images\generated_images\results_problem_16\sample_1_0015.png,,,,,,,,,,,,,,,,,,,,,,,0,0,0,0,0,32,32,32,,,,,,,,,,,,,,f,16,A,A,20,1,Correct!,1.6122109999414533,872.3712597999256,None,872.3712597999256,None,874.0558813000098,None,,,,,79,001,2023-05-23_13h03.13.797,uncolored_shuffled,2021.2.3,59.946791227714485,
C:\Users\subject\Desktop\SVRT Experiments\SVRT Experiment 3\svrt_images\generated_images\results_problem_16,C:\Users\subject\Desktop\SVRT Experiments\SVRT Experiment 3\svrt_images\generated_images\results_problem_16\sample_1_0011.png,,,,,,,,,,,,,,,,,,,,,,,0,0,0,0,0,33,33,33,,,,,,,,,,,,,,j,16,B,A,20,0,Incorrect!,15.921133899944834,875.3902166999178,None,875.3902166999178,None,891.3689208999276,None,,,,,79,001,2023-05-23_13h03.13.797,uncolored_shuffled,2021.2.3,59.946791227714485,
C:\Users\subject\Desktop\SVRT Experiments\SVRT Experiment 3\svrt_images\generated_images\results_problem_16,,,,,,,,,,,,,,,,,,,,,,,,0,0,0,0,,,,,,,,,,,,,,,,,,,,,,,,,,,,,,,,892.3696718999417,892.3696718999417,space,1.885699399979785,79,001,2023-05-23_13h03.13.797,uncolored_shuffled,2021.2.3,59.946791227714485,
C:\Users\subject\Desktop\SVRT Experiments\SVRT Experiment 3\svrt_images\generated_images\results_problem_4,,C:\Users\subject\Desktop\SVRT Experiments\SVRT Experiment 3\svrt_images\generated_images\results_problem_4\sample_1_0011.png,,,,,,,,,,,,,,,,,,,,,,0,1,1,1,0,0,0,0,,,,,,,,,,,,,,f,4,A,A,20,1,Correct!,4.687590999994427,894.2877856999403,None,894.2877856999403,None,899.0080124000087,None,,,,,79,001,2023-05-23_13h03.13.797,uncolored_shuffled,2021.2.3,59.946791227714485,
C:\Users\subject\Desktop\SVRT Experiments\SVRT Experiment 3\svrt_images\generated_images\results_problem_4,,C:\Users\subject\Desktop\SVRT Experiments\SVRT Experiment 3\svrt_images\generated_images\results_problem_4\sample_0_0009.png,,,,,,,,,,,,,,,,,,,,,,0,1,1,1,0,1,1,1,,,,,,,,,,,,,,j,4,B,B,20,1,Correct!,1.326466399943456,900.0087866999675,None,900.0087866999675,None,901.3598015999887,None,,,,,79,001,2023-05-23_13h03.13.797,uncolored_shuffled,2021.2.3,59.946791227714485,
C:\Users\subject\Desktop\SVRT Experiments\SVRT Experiment 3\svrt_images\generated_images\results_problem_4,,C:\Users\subject\Desktop\SVRT Experiments\SVRT Experiment 3\svrt_images\generated_images\results_problem_4\sample_0_0011.png,,,,,,,,,,,,,,,,,,,,,,0,1,1,1,0,2,2,2,,,,,,,,,,,,,,j,4,B,B,20,1,Correct!,2.7899558000499383,902.3772191999014,None,902.3772191999014,None,905.1960257999599,None,,,,,79,001,2023-05-23_13h03.13.797,uncolored_shuffled,2021.2.3,59.946791227714485,
C:\Users\subject\Desktop\SVRT Experiments\SVRT Experiment 3\svrt_images\generated_images\results_problem_4,,C:\Users\subject\Desktop\SVRT Experiments\SVRT Experiment 3\svrt_images\generated_images\results_problem_4\sample_0_0003.png,,,,,,,,,,,,,,,,,,,,,,0,1,1,1,0,3,3,3,,,,,,,,,,,,,,j,4,B,B,20,1,Correct!,4.281017999979667,906.2302128999727,None,906.2302128999727,None,910.5333701999625,None,,,,,79,001,2023-05-23_13h03.13.797,uncolored_shuffled,2021.2.3,59.946791227714485,
C:\Users\subject\Desktop\SVRT Experiments\SVRT Experiment 3\svrt_images\generated_images\results_problem_4,,C:\Users\subject\Desktop\SVRT Experiments\SVRT Experiment 3\svrt_images\generated_images\results_problem_4\sample_1_0015.png,,,,,,,,,,,,,,,,,,,,,,0,1,1,1,0,4,4,4,,,,,,,,,,,,,,f,4,A,A,20,1,Correct!,1.319704100023955,911.5674861000152,None,911.5674861000152,None,912.9185039999429,None,,,,,79,001,2023-05-23_13h03.13.797,uncolored_shuffled,2021.2.3,59.946791227714485,
C:\Users\subject\Desktop\SVRT Experiments\SVRT Experiment 3\svrt_images\generated_images\results_problem_4,,C:\Users\subject\Desktop\SVRT Experiments\SVRT Experiment 3\svrt_images\generated_images\results_problem_4\sample_1_0009.png,,,,,,,,,,,,,,,,,,,,,,0,1,1,1,0,5,5,5,,,,,,,,,,,,,,f,4,A,A,20,1,Correct!,4.662546600098722,913.9525929999072,None,913.9525929999072,None,918.639479400008,None,,,,,79,001,2023-05-23_13h03.13.797,uncolored_shuffled,2021.2.3,59.946791227714485,
C:\Users\subject\Desktop\SVRT Experiments\SVRT Experiment 3\svrt_images\generated_images\results_problem_4,,C:\Users\subject\Desktop\SVRT Experiments\SVRT Experiment 3\svrt_images\generated_images\results_problem_4\sample_1_0007.png,,,,,,,,,,,,,,,,,,,,,,0,1,1,1,0,6,6,6,,,,,,,,,,,,,,f,4,A,A,20,1,Correct!,7.084820300107822,919.6902757999487,None,919.6902757999487,None,926.7956294999458,None,,,,,79,001,2023-05-23_13h03.13.797,uncolored_shuffled,2021.2.3,59.946791227714485,
C:\Users\subject\Desktop\SVRT Experiments\SVRT Experiment 3\svrt_images\generated_images\results_problem_4,,C:\Users\subject\Desktop\SVRT Experiments\SVRT Experiment 3\svrt_images\generated_images\results_problem_4\sample_1_0005.png,,,,,,,,,,,,,,,,,,,,,,0,1,1,1,0,7,7,7,,,,,,,,,,,,,,,,,,,,,,,,,,,,927.7963641999522,927.7963641999522,space,0.9387460000580177,79,001,2023-05-23_13h03.13.797,uncolored_shuffled,2021.2.3,59.946791227714485,
C:\Users\subject\Desktop\SVRT Experiments\SVRT Experiment 3\svrt_images\generated_images\results_problem_8,,C:\Users\subject\Desktop\SVRT Experiments\SVRT Experiment 3\svrt_images\generated_images\results_problem_4\sample_1_0005.png,C:\Users\subject\Desktop\SVRT Experiments\SVRT Experiment 3\svrt_images\generated_images\results_problem_8\sample_0_0003.png,,,,,,,,,,,,,,,,,,,,,0,2,2,2,0,0,0,0,,,,,,,,,,,,,,f,8,A,B,20,0,Incorrect!,1.179276500013657,928.7637823999394,None,928.7637823999394,None,929.9646816999884,None,,,,,79,001,2023-05-23_13h03.13.797,uncolored_shuffled,2021.2.3,59.946791227714485,
C:\Users\subject\Desktop\SVRT Experiments\SVRT Experiment 3\svrt_images\generated_images\results_problem_8,,C:\Users\subject\Desktop\SVRT Experiments\SVRT Experiment 3\svrt_images\generated_images\results_problem_4\sample_1_0005.png,C:\Users\subject\Desktop\SVRT Experiments\SVRT Experiment 3\svrt_images\generated_images\results_problem_8\sample_1_0011.png,,,,,,,,,,,,,,,,,,,,,0,2,2,2,0,1,1,1,,,,,,,,,,,,,,f,8,A,A,20,1,Correct!,2.2416507999878377,930.9654071999248,None,930.9654071999248,None,933.233883799985,None,,,,,79,001,2023-05-23_13h03.13.797,uncolored_shuffled,2021.2.3,59.946791227714485,
C:\Users\subject\Desktop\SVRT Experiments\SVRT Experiment 3\svrt_images\generated_images\results_problem_8,,C:\Users\subject\Desktop\SVRT Experiments\SVRT Experiment 3\svrt_images\generated_images\results_problem_4\sample_1_0005.png,C:\Users\subject\Desktop\SVRT Experiments\SVRT Experiment 3\svrt_images\generated_images\results_problem_8\sample_0_0008.png,,,,,,,,,,,,,,,,,,,,,0,2,2,2,0,2,2,2,,,,,,,,,,,,,,f,8,A,B,20,0,Incorrect!,14.611680000089109,934.251253800001,None,934.251253800001,None,948.8956152999308,None,,,,,79,001,2023-05-23_13h03.13.797,uncolored_shuffled,2021.2.3,59.946791227714485,
C:\Users\subject\Desktop\SVRT Experiments\SVRT Experiment 3\svrt_images\generated_images\results_problem_8,,C:\Users\subject\Desktop\SVRT Experiments\SVRT Experiment 3\svrt_images\generated_images\results_problem_4\sample_1_0005.png,C:\Users\subject\Desktop\SVRT Experiments\SVRT Experiment 3\svrt_images\generated_images\results_problem_8\sample_1_0006.png,,,,,,,,,,,,,,,,,,,,,0,2,2,2,0,3,3,3,,,,,,,,,,,,,,f,8,A,A,20,1,Correct!,3.0698524999897927,949.9130653999746,None,949.9130653999746,None,953.0153876999393,None,,,,,79,001,2023-05-23_13h03.13.797,uncolored_shuffled,2021.2.3,59.946791227714485,
C:\Users\subject\Desktop\SVRT Experiments\SVRT Experiment 3\svrt_images\generated_images\results_problem_8,,C:\Users\subject\Desktop\SVRT Experiments\SVRT Experiment 3\svrt_images\generated_images\results_problem_4\sample_1_0005.png,C:\Users\subject\Desktop\SVRT Experiments\SVRT Experiment 3\svrt_images\generated_images\results_problem_8\sample_1_0014.png,,,,,,,,,,,,,,,,,,,,,0,2,2,2,0,4,4,4,,,,,,,,,,,,,,j,8,B,A,20,0,Incorrect!,12.285299799987115,954.0495089999167,None,954.0495089999167,None,966.3587802000111,None,,,,,79,001,2023-05-23_13h03.13.797,uncolored_shuffled,2021.2.3,59.946791227714485,
C:\Users\subject\Desktop\SVRT Experiments\SVRT Experiment 3\svrt_images\generated_images\results_problem_8,,C:\Users\subject\Desktop\SVRT Experiments\SVRT Experiment 3\svrt_images\generated_images\results_problem_4\sample_1_0005.png,C:\Users\subject\Desktop\SVRT Experiments\SVRT Experiment 3\svrt_images\generated_images\results_problem_8\sample_0_0002.png,,,,,,,,,,,,,,,,,,,,,0,2,2,2,0,5,5,5,,,,,,,,,,,,,,j,8,B,B,20,1,Correct!,3.037906799931079,967.3928637999343,None,967.3928637999343,None,970.4619121999713,None,,,,,79,001,2023-05-23_13h03.13.797,uncolored_shuffled,2021.2.3,59.946791227714485,
C:\Users\subject\Desktop\SVRT Experiments\SVRT Experiment 3\svrt_images\generated_images\results_problem_8,,C:\Users\subject\Desktop\SVRT Experiments\SVRT Experiment 3\svrt_images\generated_images\results_problem_4\sample_1_0005.png,C:\Users\subject\Desktop\SVRT Experiments\SVRT Experiment 3\svrt_images\generated_images\results_problem_8\sample_0_0001.png,,,,,,,,,,,,,,,,,,,,,0,2,2,2,0,6,6,6,,,,,,,,,,,,,,j,8,B,B,20,1,Correct!,2.6540720000630245,971.5126772999065,None,971.5126772999065,None,974.1980249999324,None,,,,,79,001,2023-05-23_13h03.13.797,uncolored_shuffled,2021.2.3,59.946791227714485,
C:\Users\subject\Desktop\SVRT Experiments\SVRT Experiment 3\svrt_images\generated_images\results_problem_8,,C:\Users\subject\Desktop\SVRT Experiments\SVRT Experiment 3\svrt_images\generated_images\results_problem_4\sample_1_0005.png,C:\Users\subject\Desktop\SVRT Experiments\SVRT Experiment 3\svrt_images\generated_images\results_problem_8\sample_0_0000.png,,,,,,,,,,,,,,,,,,,,,0,2,2,2,0,7,7,7,,,,,,,,,,,,,,j,8,B,B,20,1,Correct!,10.477941600023769,975.248793900013,None,975.248793900013,None,985.7567455999088,None,,,,,79,001,2023-05-23_13h03.13.797,uncolored_shuffled,2021.2.3,59.946791227714485,
C:\Users\subject\Desktop\SVRT Experiments\SVRT Experiment 3\svrt_images\generated_images\results_problem_8,,C:\Users\subject\Desktop\SVRT Experiments\SVRT Experiment 3\svrt_images\generated_images\results_problem_4\sample_1_0005.png,C:\Users\subject\Desktop\SVRT Experiments\SVRT Experiment 3\svrt_images\generated_images\results_problem_8\sample_1_0001.png,,,,,,,,,,,,,,,,,,,,,0,2,2,2,0,8,8,8,,,,,,,,,,,,,,j,8,B,A,20,0,Incorrect!,54.94204840005841,986.8242157999193,None,986.8242157999193,None,1041.79898089997,None,,,,,79,001,2023-05-23_13h03.13.797,uncolored_shuffled,2021.2.3,59.946791227714485,
C:\Users\subject\Desktop\SVRT Experiments\SVRT Experiment 3\svrt_images\generated_images\results_problem_8,,C:\Users\subject\Desktop\SVRT Experiments\SVRT Experiment 3\svrt_images\generated_images\results_problem_4\sample_1_0005.png,C:\Users\subject\Desktop\SVRT Experiments\SVRT Experiment 3\svrt_images\generated_images\results_problem_8\sample_0_0016.png,,,,,,,,,,,,,,,,,,,,,0,2,2,2,0,9,9,9,,,,,,,,,,,,,,j,8,B,B,20,1,Correct!,2.115773499943316,1042.8664474999532,None,1042.8664474999532,None,1045.001405099989,None,,,,,79,001,2023-05-23_13h03.13.797,uncolored_shuffled,2021.2.3,59.946791227714485,
C:\Users\subject\Desktop\SVRT Experiments\SVRT Experiment 3\svrt_images\generated_images\results_problem_8,,C:\Users\subject\Desktop\SVRT Experiments\SVRT Experiment 3\svrt_images\generated_images\results_problem_4\sample_1_0005.png,C:\Users\subject\Desktop\SVRT Experiments\SVRT Experiment 3\svrt_images\generated_images\results_problem_8\sample_1_0013.png,,,,,,,,,,,,,,,,,,,,,0,2,2,2,0,10,10,10,,,,,,,,,,,,,,f,8,A,A,20,1,Correct!,3.528632399975322,1046.0855155999307,None,1046.0855155999307,None,1049.638219699962,None,,,,,79,001,2023-05-23_13h03.13.797,uncolored_shuffled,2021.2.3,59.946791227714485,
C:\Users\subject\Desktop\SVRT Experiments\SVRT Experiment 3\svrt_images\generated_images\results_problem_8,,C:\Users\subject\Desktop\SVRT Experiments\SVRT Experiment 3\svrt_images\generated_images\results_problem_4\sample_1_0005.png,C:\Users\subject\Desktop\SVRT Experiments\SVRT Experiment 3\svrt_images\generated_images\results_problem_8\sample_0_0009.png,,,,,,,,,,,,,,,,,,,,,0,2,2,2,0,11,11,11,,,,,,,,,,,,,,j,8,B,B,20,1,Correct!,1.1791292999405414,1050.7390376999974,None,1050.7390376999974,None,1051.9399613999994,None,,,,,79,001,2023-05-23_13h03.13.797,uncolored_shuffled,2021.2.3,59.946791227714485,
C:\Users\subject\Desktop\SVRT Experiments\SVRT Experiment 3\svrt_images\generated_images\results_problem_8,,C:\Users\subject\Desktop\SVRT Experiments\SVRT Experiment 3\svrt_images\generated_images\results_problem_4\sample_1_0005.png,C:\Users\subject\Desktop\SVRT Experiments\SVRT Experiment 3\svrt_images\generated_images\results_problem_8\sample_0_0013.png,,,,,,,,,,,,,,,,,,,,,0,2,2,2,0,12,12,12,,,,,,,,,,,,,,f,8,A,B,20,0,Incorrect!,1.1893426000606269,1053.0408099999186,None,1053.0408099999186,None,1054.2583794000093,None,,,,,79,001,2023-05-23_13h03.13.797,uncolored_shuffled,2021.2.3,59.946791227714485,
C:\Users\subject\Desktop\SVRT Experiments\SVRT Experiment 3\svrt_images\generated_images\results_problem_8,,C:\Users\subject\Desktop\SVRT Experiments\SVRT Experiment 3\svrt_images\generated_images\results_problem_4\sample_1_0005.png,C:\Users\subject\Desktop\SVRT Experiments\SVRT Experiment 3\svrt_images\generated_images\results_problem_8\sample_1_0016.png,,,,,,,,,,,,,,,,,,,,,0,2,2,2,0,13,13,13,,,,,,,,,,,,,,f,8,A,A,20,1,Correct!,1.222181799937971,1055.3758889999008,None,1055.3758889999008,None,1056.626837699907,None,,,,,79,001,2023-05-23_13h03.13.797,uncolored_shuffled,2021.2.3,59.946791227714485,
C:\Users\subject\Desktop\SVRT Experiments\SVRT Experiment 3\svrt_images\generated_images\results_problem_8,,C:\Users\subject\Desktop\SVRT Experiments\SVRT Experiment 3\svrt_images\generated_images\results_problem_4\sample_1_0005.png,C:\Users\subject\Desktop\SVRT Experiments\SVRT Experiment 3\svrt_images\generated_images\results_problem_8\sample_0_0011.png,,,,,,,,,,,,,,,,,,,,,0,2,2,2,0,14,14,14,,,,,,,,,,,,,,j,8,B,B,20,1,Correct!,0.9577429000055417,1057.7443473999156,None,1057.7443473999156,None,1058.7283924999647,None,,,,,79,001,2023-05-23_13h03.13.797,uncolored_shuffled,2021.2.3,59.946791227714485,
C:\Users\subject\Desktop\SVRT Experiments\SVRT Experiment 3\svrt_images\generated_images\results_problem_8,,C:\Users\subject\Desktop\SVRT Experiments\SVRT Experiment 3\svrt_images\generated_images\results_problem_4\sample_1_0005.png,C:\Users\subject\Desktop\SVRT Experiments\SVRT Experiment 3\svrt_images\generated_images\results_problem_8\sample_1_0015.png,,,,,,,,,,,,,,,,,,,,,0,2,2,2,0,15,15,15,,,,,,,,,,,,,,f,8,A,A,20,1,Correct!,0.983483900083229,1059.8626352999127,None,1059.8626352999127,None,1060.863355099922,None,,,,,79,001,2023-05-23_13h03.13.797,uncolored_shuffled,2021.2.3,59.946791227714485,
C:\Users\subject\Desktop\SVRT Experiments\SVRT Experiment 3\svrt_images\generated_images\results_problem_8,,C:\Users\subject\Desktop\SVRT Experiments\SVRT Experiment 3\svrt_images\generated_images\results_problem_4\sample_1_0005.png,C:\Users\subject\Desktop\SVRT Experiments\SVRT Experiment 3\svrt_images\generated_images\results_problem_8\sample_0_0004.png,,,,,,,,,,,,,,,,,,,,,0,2,2,2,0,16,16,16,,,,,,,,,,,,,,f,8,A,B,20,0,Incorrect!,0.6798888000193983,1062.0142160999821,None,1062.0142160999821,None,1062.7147127999924,None,,,,,79,001,2023-05-23_13h03.13.797,uncolored_shuffled,2021.2.3,59.946791227714485,
C:\Users\subject\Desktop\SVRT Experiments\SVRT Experiment 3\svrt_images\generated_images\results_problem_8,,C:\Users\subject\Desktop\SVRT Experiments\SVRT Experiment 3\svrt_images\generated_images\results_problem_4\sample_1_0005.png,C:\Users\subject\Desktop\SVRT Experiments\SVRT Experiment 3\svrt_images\generated_images\results_problem_8\sample_1_0007.png,,,,,,,,,,,,,,,,,,,,,0,2,2,2,0,17,17,17,,,,,,,,,,,,,,j,8,B,A,20,0,Incorrect!,1.5324682999635115,1063.8656179999234,None,1063.8656179999234,None,1065.4167876999127,None,,,,,79,001,2023-05-23_13h03.13.797,uncolored_shuffled,2021.2.3,59.946791227714485,
C:\Users\subject\Desktop\SVRT Experiments\SVRT Experiment 3\svrt_images\generated_images\results_problem_8,,C:\Users\subject\Desktop\SVRT Experiments\SVRT Experiment 3\svrt_images\generated_images\results_problem_4\sample_1_0005.png,C:\Users\subject\Desktop\SVRT Experiments\SVRT Experiment 3\svrt_images\generated_images\results_problem_8\sample_1_0008.png,,,,,,,,,,,,,,,,,,,,,0,2,2,2,0,18,18,18,,,,,,,,,,,,,,j,8,B,A,20,0,Incorrect!,0.6857685999711975,1066.5843040999025,None,1066.5843040999025,None,1067.3015359999845,None,,,,,79,001,2023-05-23_13h03.13.797,uncolored_shuffled,2021.2.3,59.946791227714485,
C:\Users\subject\Desktop\SVRT Experiments\SVRT Experiment 3\svrt_images\generated_images\results_problem_8,,C:\Users\subject\Desktop\SVRT Experiments\SVRT Experiment 3\svrt_images\generated_images\results_problem_4\sample_1_0005.png,C:\Users\subject\Desktop\SVRT Experiments\SVRT Experiment 3\svrt_images\generated_images\results_problem_8\sample_0_0006.png,,,,,,,,,,,,,,,,,,,,,0,2,2,2,0,19,19,19,,,,,,,,,,,,,,j,8,B,B,20,1,Correct!,0.2403522999957204,1068.4857436999446,None,1068.4857436999446,None,1068.7693164999364,None,,,,,79,001,2023-05-23_13h03.13.797,uncolored_shuffled,2021.2.3,59.946791227714485,
C:\Users\subject\Desktop\SVRT Experiments\SVRT Experiment 3\svrt_images\generated_images\results_problem_8,,C:\Users\subject\Desktop\SVRT Experiments\SVRT Experiment 3\svrt_images\generated_images\results_problem_4\sample_1_0005.png,C:\Users\subject\Desktop\SVRT Experiments\SVRT Experiment 3\svrt_images\generated_images\results_problem_8\sample_0_0010.png,,,,,,,,,,,,,,,,,,,,,0,2,2,2,0,20,20,20,,,,,,,,,,,,,,f,8,A,B,20,0,Incorrect!,0.7404829999431968,1069.9535490999697,None,1069.9535490999697,None,1070.7374467999907,None,,,,,79,001,2023-05-23_13h03.13.797,uncolored_shuffled,2021.2.3,59.946791227714485,
C:\Users\subject\Desktop\SVRT Experiments\SVRT Experiment 3\svrt_images\generated_images\results_problem_8,,C:\Users\subject\Desktop\SVRT Experiments\SVRT Experiment 3\svrt_images\generated_images\results_problem_4\sample_1_0005.png,C:\Users\subject\Desktop\SVRT Experiments\SVRT Experiment 3\svrt_images\generated_images\results_problem_8\sample_0_0015.png,,,,,,,,,,,,,,,,,,,,,0,2,2,2,0,21,21,21,,,,,,,,,,,,,,f,8,A,B,20,0,Incorrect!,0.8195870999479666,1071.938363299938,None,1071.938363299938,None,1072.8056861999212,None,,,,,79,001,2023-05-23_13h03.13.797,uncolored_shuffled,2021.2.3,59.946791227714485,
C:\Users\subject\Desktop\SVRT Experiments\SVRT Experiment 3\svrt_images\generated_images\results_problem_8,,C:\Users\subject\Desktop\SVRT Experiments\SVRT Experiment 3\svrt_images\generated_images\results_problem_4\sample_1_0005.png,C:\Users\subject\Desktop\SVRT Experiments\SVRT Experiment 3\svrt_images\generated_images\results_problem_8\sample_0_0007.png,,,,,,,,,,,,,,,,,,,,,0,2,2,2,0,22,22,22,,,,,,,,,,,,,,j,8,B,B,20,1,Correct!,0.22350690001621842,1074.0065994999604,None,1074.0065994999604,None,1074.2567980999593,None,,,,,79,001,2023-05-23_13h03.13.797,uncolored_shuffled,2021.2.3,59.946791227714485,
C:\Users\subject\Desktop\SVRT Experiments\SVRT Experiment 3\svrt_images\generated_images\results_problem_8,,C:\Users\subject\Desktop\SVRT Experiments\SVRT Experiment 3\svrt_images\generated_images\results_problem_4\sample_1_0005.png,C:\Users\subject\Desktop\SVRT Experiments\SVRT Experiment 3\svrt_images\generated_images\results_problem_8\sample_1_0004.png,,,,,,,,,,,,,,,,,,,,,0,2,2,2,0,23,23,23,,,,,,,,,,,,,,f,8,A,A,20,1,Correct!,0.7076206000056118,1075.4743408999639,None,1075.4743408999639,None,1076.2249123000074,None,,,,,79,001,2023-05-23_13h03.13.797,uncolored_shuffled,2021.2.3,59.946791227714485,
C:\Users\subject\Desktop\SVRT Experiments\SVRT Experiment 3\svrt_images\generated_images\results_problem_8,,C:\Users\subject\Desktop\SVRT Experiments\SVRT Experiment 3\svrt_images\generated_images\results_problem_4\sample_1_0005.png,C:\Users\subject\Desktop\SVRT Experiments\SVRT Experiment 3\svrt_images\generated_images\results_problem_8\sample_1_0005.png,,,,,,,,,,,,,,,,,,,,,0,2,2,2,0,24,24,24,,,,,,,,,,,,,,j,8,B,A,20,0,Incorrect!,6.370827000006102,1077.4592171999393,None,1077.4592171999393,None,1083.8473514999496,None,,,,,79,001,2023-05-23_13h03.13.797,uncolored_shuffled,2021.2.3,59.946791227714485,
C:\Users\subject\Desktop\SVRT Experiments\SVRT Experiment 3\svrt_images\generated_images\results_problem_8,,C:\Users\subject\Desktop\SVRT Experiments\SVRT Experiment 3\svrt_images\generated_images\results_problem_4\sample_1_0005.png,C:\Users\subject\Desktop\SVRT Experiments\SVRT Experiment 3\svrt_images\generated_images\results_problem_8\sample_1_0000.png,,,,,,,,,,,,,,,,,,,,,0,2,2,2,0,25,25,25,,,,,,,,,,,,,,f,8,A,A,20,1,Correct!,0.49961469997651875,1085.0982994999504,None,1085.0982994999504,None,1085.6153401999036,None,,,,,79,001,2023-05-23_13h03.13.797,uncolored_shuffled,2021.2.3,59.946791227714485,
C:\Users\subject\Desktop\SVRT Experiments\SVRT Experiment 3\svrt_images\generated_images\results_problem_8,,C:\Users\subject\Desktop\SVRT Experiments\SVRT Experiment 3\svrt_images\generated_images\results_problem_4\sample_1_0005.png,C:\Users\subject\Desktop\SVRT Experiments\SVRT Experiment 3\svrt_images\generated_images\results_problem_8\sample_0_0014.png,,,,,,,,,,,,,,,,,,,,,0,2,2,2,0,26,26,26,,,,,,,,,,,,,,f,8,A,B,20,0,Incorrect!,0.13959839998278767,1086.866296699969,None,1086.866296699969,None,1087.0330825999845,None,,,,,79,001,2023-05-23_13h03.13.797,uncolored_shuffled,2021.2.3,59.946791227714485,
C:\Users\subject\Desktop\SVRT Experiments\SVRT Experiment 3\svrt_images\generated_images\results_problem_8,,C:\Users\subject\Desktop\SVRT Experiments\SVRT Experiment 3\svrt_images\generated_images\results_problem_4\sample_1_0005.png,C:\Users\subject\Desktop\SVRT Experiments\SVRT Experiment 3\svrt_images\generated_images\results_problem_8\sample_1_0002.png,,,,,,,,,,,,,,,,,,,,,0,2,2,2,0,27,27,27,,,,,,,,,,,,,,f,8,A,A,20,1,Correct!,0.12924209993798286,1088.3006899999455,None,1088.3006899999455,None,1088.4674935999792,None,,,,,79,001,2023-05-23_13h03.13.797,uncolored_shuffled,2021.2.3,59.946791227714485,
C:\Users\subject\Desktop\SVRT Experiments\SVRT Experiment 3\svrt_images\generated_images\results_problem_8,,C:\Users\subject\Desktop\SVRT Experiments\SVRT Experiment 3\svrt_images\generated_images\results_problem_4\sample_1_0005.png,C:\Users\subject\Desktop\SVRT Experiments\SVRT Experiment 3\svrt_images\generated_images\results_problem_8\sample_1_0012.png,,,,,,,,,,,,,,,,,,,,,0,2,2,2,0,28,28,28,,,,,,,,,,,,,,j,8,B,A,20,0,Incorrect!,0.6213708999566734,1089.7684977999888,None,1089.7684977999888,None,1090.4356616999721,None,,,,,79,001,2023-05-23_13h03.13.797,uncolored_shuffled,2021.2.3,59.946791227714485,
C:\Users\subject\Desktop\SVRT Experiments\SVRT Experiment 3\svrt_images\generated_images\results_problem_8,,C:\Users\subject\Desktop\SVRT Experiments\SVRT Experiment 3\svrt_images\generated_images\results_problem_4\sample_1_0005.png,C:\Users\subject\Desktop\SVRT Experiments\SVRT Experiment 3\svrt_images\generated_images\results_problem_8\sample_1_0003.png,,,,,,,,,,,,,,,,,,,,,0,2,2,2,0,29,29,29,,,,,,,,,,,,,,f,8,A,A,20,1,Correct!,1.4779217999894172,1091.7199610999087,None,1091.7199610999087,None,1093.237757799914,None,,,,,79,001,2023-05-23_13h03.13.797,uncolored_shuffled,2021.2.3,59.946791227714485,
C:\Users\subject\Desktop\SVRT Experiments\SVRT Experiment 3\svrt_images\generated_images\results_problem_8,,C:\Users\subject\Desktop\SVRT Experiments\SVRT Experiment 3\svrt_images\generated_images\results_problem_4\sample_1_0005.png,C:\Users\subject\Desktop\SVRT Experiments\SVRT Experiment 3\svrt_images\generated_images\results_problem_8\sample_1_0009.png,,,,,,,,,,,,,,,,,,,,,0,2,2,2,0,30,30,30,,,,,,,,,,,,,,f,8,A,A,20,1,Correct!,17.411028699949384,1094.5387314999243,None,1094.5387314999243,None,1111.9852180000162,None,,,,,79,001,2023-05-23_13h03.13.797,uncolored_shuffled,2021.2.3,59.946791227714485,
C:\Users\subject\Desktop\SVRT Experiments\SVRT Experiment 3\svrt_images\generated_images\results_problem_8,,C:\Users\subject\Desktop\SVRT Experiments\SVRT Experiment 3\svrt_images\generated_images\results_problem_4\sample_1_0005.png,C:\Users\subject\Desktop\SVRT Experiments\SVRT Experiment 3\svrt_images\generated_images\results_problem_8\sample_1_0010.png,,,,,,,,,,,,,,,,,,,,,0,2,2,2,0,31,31,31,,,,,,,,,,,,,,f,8,A,A,20,1,Correct!,0.8540974000934511,1113.3195944000036,None,1113.3195944000036,None,1114.2035606999416,None,,,,,79,001,2023-05-23_13h03.13.797,uncolored_shuffled,2021.2.3,59.946791227714485,
C:\Users\subject\Desktop\SVRT Experiments\SVRT Experiment 3\svrt_images\generated_images\results_problem_8,,C:\Users\subject\Desktop\SVRT Experiments\SVRT Experiment 3\svrt_images\generated_images\results_problem_4\sample_1_0005.png,C:\Users\subject\Desktop\SVRT Experiments\SVRT Experiment 3\svrt_images\generated_images\results_problem_8\sample_0_0005.png,,,,,,,,,,,,,,,,,,,,,0,2,2,2,0,32,32,32,,,,,,,,,,,,,,j,8,B,B,20,1,Correct!,1.8359396000159904,1115.5378633999499,None,1115.5378633999499,None,1117.455984900007,None,,,,,79,001,2023-05-23_13h03.13.797,uncolored_shuffled,2021.2.3,59.946791227714485,
C:\Users\subject\Desktop\SVRT Experiments\SVRT Experiment 3\svrt_images\generated_images\results_problem_8,,C:\Users\subject\Desktop\SVRT Experiments\SVRT Experiment 3\svrt_images\generated_images\results_problem_4\sample_1_0005.png,C:\Users\subject\Desktop\SVRT Experiments\SVRT Experiment 3\svrt_images\generated_images\results_problem_8\sample_0_0012.png,,,,,,,,,,,,,,,,,,,,,0,2,2,2,0,33,33,33,,,,,,,,,,,,,,f,8,A,B,20,0,Incorrect!,0.8073973999125883,1118.7903575999662,None,1118.7903575999662,None,1119.6243133000098,None,,,,,79,001,2023-05-23_13h03.13.797,uncolored_shuffled,2021.2.3,59.946791227714485,
C:\Users\subject\Desktop\SVRT Experiments\SVRT Experiment 3\svrt_images\generated_images\results_problem_8,,C:\Users\subject\Desktop\SVRT Experiments\SVRT Experiment 3\svrt_images\generated_images\results_problem_4\sample_1_0005.png,,,,,,,,,,,,,,,,,,,,,,0,2,2,2,0,7,7,7,,,,,,,,,,,,,,,,,,,,,,,,,,,,1120.625028999988,1120.625028999988,space,1.3005718999775127,79,001,2023-05-23_13h03.13.797,uncolored_shuffled,2021.2.3,59.946791227714485,
C:\Users\subject\Desktop\SVRT Experiments\SVRT Experiment 3\svrt_images\generated_images\results_problem_21,,C:\Users\subject\Desktop\SVRT Experiments\SVRT Experiment 3\svrt_images\generated_images\results_problem_4\sample_1_0005.png,,C:\Users\subject\Desktop\SVRT Experiments\SVRT Experiment 3\svrt_images\generated_images\results_problem_21\sample_0_0005.png,,,,,,,,,,,,,,,,,,,,0,3,3,3,0,0,0,0,,,,,,,,,,,,,,f,21,A,B,20,0,Incorrect!,1.1268564999336377,1121.9427746000001,None,1121.9427746000001,None,1123.0935939999763,None,,,,,79,001,2023-05-23_13h03.13.797,uncolored_shuffled,2021.2.3,59.946791227714485,
C:\Users\subject\Desktop\SVRT Experiments\SVRT Experiment 3\svrt_images\generated_images\results_problem_21,,C:\Users\subject\Desktop\SVRT Experiments\SVRT Experiment 3\svrt_images\generated_images\results_problem_4\sample_1_0005.png,,C:\Users\subject\Desktop\SVRT Experiments\SVRT Experiment 3\svrt_images\generated_images\results_problem_21\sample_0_0015.png,,,,,,,,,,,,,,,,,,,,0,3,3,3,0,1,1,1,,,,,,,,,,,,,,f,21,A,B,20,0,Incorrect!,3.767231800011359,1124.0943522999296,None,1124.0943522999296,None,1127.8804970999481,None,,,,,79,001,2023-05-23_13h03.13.797,uncolored_shuffled,2021.2.3,59.946791227714485,
C:\Users\subject\Desktop\SVRT Experiments\SVRT Experiment 3\svrt_images\generated_images\results_problem_21,,C:\Users\subject\Desktop\SVRT Experiments\SVRT Experiment 3\svrt_images\generated_images\results_problem_4\sample_1_0005.png,,C:\Users\subject\Desktop\SVRT Experiments\SVRT Experiment 3\svrt_images\generated_images\results_problem_21\sample_0_0002.png,,,,,,,,,,,,,,,,,,,,0,3,3,3,0,2,2,2,,,,,,,,,,,,,,f,21,A,B,20,0,Incorrect!,1.8596746999537572,1128.8979373999173,None,1128.8979373999173,None,1130.782747899997,None,,,,,79,001,2023-05-23_13h03.13.797,uncolored_shuffled,2021.2.3,59.946791227714485,
C:\Users\subject\Desktop\SVRT Experiments\SVRT Experiment 3\svrt_images\generated_images\results_problem_21,,C:\Users\subject\Desktop\SVRT Experiments\SVRT Experiment 3\svrt_images\generated_images\results_problem_4\sample_1_0005.png,,C:\Users\subject\Desktop\SVRT Experiments\SVRT Experiment 3\svrt_images\generated_images\results_problem_21\sample_0_0008.png,,,,,,,,,,,,,,,,,,,,0,3,3,3,0,3,3,3,,,,,,,,,,,,,,j,21,B,B,20,1,Correct!,0.9814378999872133,1131.800120199914,None,1131.800120199914,None,1132.8015483999625,None,,,,,79,001,2023-05-23_13h03.13.797,uncolored_shuffled,2021.2.3,59.946791227714485,
C:\Users\subject\Desktop\SVRT Experiments\SVRT Experiment 3\svrt_images\generated_images\results_problem_21,,C:\Users\subject\Desktop\SVRT Experiments\SVRT Experiment 3\svrt_images\generated_images\results_problem_4\sample_1_0005.png,,C:\Users\subject\Desktop\SVRT Experiments\SVRT Experiment 3\svrt_images\generated_images\results_problem_21\sample_0_0011.png,,,,,,,,,,,,,,,,,,,,0,3,3,3,0,4,4,4,,,,,,,,,,,,,,j,21,B,B,20,1,Correct!,1.4585088000167161,1133.8350282999454,None,1133.8350282999454,None,1135.3194504999556,None,,,,,79,001,2023-05-23_13h03.13.797,uncolored_shuffled,2021.2.3,59.946791227714485,
C:\Users\subject\Desktop\SVRT Experiments\SVRT Experiment 3\svrt_images\generated_images\results_problem_21,,C:\Users\subject\Desktop\SVRT Experiments\SVRT Experiment 3\svrt_images\generated_images\results_problem_4\sample_1_0005.png,,C:\Users\subject\Desktop\SVRT Experiments\SVRT Experiment 3\svrt_images\generated_images\results_problem_21\sample_1_0015.png,,,,,,,,,,,,,,,,,,,,0,3,3,3,0,5,5,5,,,,,,,,,,,,,,j,21,B,A,20,0,Incorrect!,1.027999100042507,1136.3535583999474,None,1136.3535583999474,None,1137.4043898999225,None,,,,,79,001,2023-05-23_13h03.13.797,uncolored_shuffled,2021.2.3,59.946791227714485,
C:\Users\subject\Desktop\SVRT Experiments\SVRT Experiment 3\svrt_images\generated_images\results_problem_21,,C:\Users\subject\Desktop\SVRT Experiments\SVRT Experiment 3\svrt_images\generated_images\results_problem_4\sample_1_0005.png,,C:\Users\subject\Desktop\SVRT Experiments\SVRT Experiment 3\svrt_images\generated_images\results_problem_21\sample_1_0006.png,,,,,,,,,,,,,,,,,,,,0,3,3,3,0,6,6,6,,,,,,,,,,,,,,f,21,A,A,20,1,Correct!,0.4543590999674052,1138.4551680999575,None,1138.4551680999575,None,1138.938853599946,None,,,,,79,001,2023-05-23_13h03.13.797,uncolored_shuffled,2021.2.3,59.946791227714485,
C:\Users\subject\Desktop\SVRT Experiments\SVRT Experiment 3\svrt_images\generated_images\results_problem_21,,C:\Users\subject\Desktop\SVRT Experiments\SVRT Experiment 3\svrt_images\generated_images\results_problem_4\sample_1_0005.png,,C:\Users\subject\Desktop\SVRT Experiments\SVRT Experiment 3\svrt_images\generated_images\results_problem_21\sample_1_0010.png,,,,,,,,,,,,,,,,,,,,0,3,3,3,0,7,7,7,,,,,,,,,,,,,,f,21,A,A,20,1,Correct!,14.583098500035703,1140.0063218999421,None,1140.0063218999421,None,1154.6173275999026,None,,,,,79,001,2023-05-23_13h03.13.797,uncolored_shuffled,2021.2.3,59.946791227714485,
C:\Users\subject\Desktop\SVRT Experiments\SVRT Experiment 3\svrt_images\generated_images\results_problem_21,,C:\Users\subject\Desktop\SVRT Experiments\SVRT Experiment 3\svrt_images\generated_images\results_problem_4\sample_1_0005.png,,C:\Users\subject\Desktop\SVRT Experiments\SVRT Experiment 3\svrt_images\generated_images\results_problem_21\sample_0_0000.png,,,,,,,,,,,,,,,,,,,,0,3,3,3,0,8,8,8,,,,,,,,,,,,,,j,21,B,B,20,1,Correct!,14.152483399957418,1155.6848223999841,None,1155.6848223999841,None,1169.8621770999162,None,,,,,79,001,2023-05-23_13h03.13.797,uncolored_shuffled,2021.2.3,59.946791227714485,
C:\Users\subject\Desktop\SVRT Experiments\SVRT Experiment 3\svrt_images\generated_images\results_problem_21,,C:\Users\subject\Desktop\SVRT Experiments\SVRT Experiment 3\svrt_images\generated_images\results_problem_4\sample_1_0005.png,,C:\Users\subject\Desktop\SVRT Experiments\SVRT Experiment 3\svrt_images\generated_images\results_problem_21\sample_1_0011.png,,,,,,,,,,,,,,,,,,,,0,3,3,3,0,9,9,9,,,,,,,,,,,,,,j,21,B,A,20,0,Incorrect!,1.475631900015287,1170.9296455999138,None,1170.9296455999138,None,1172.4307617999148,None,,,,,79,001,2023-05-23_13h03.13.797,uncolored_shuffled,2021.2.3,59.946791227714485,
C:\Users\subject\Desktop\SVRT Experiments\SVRT Experiment 3\svrt_images\generated_images\results_problem_21,,C:\Users\subject\Desktop\SVRT Experiments\SVRT Experiment 3\svrt_images\generated_images\results_problem_4\sample_1_0005.png,,C:\Users\subject\Desktop\SVRT Experiments\SVRT Experiment 3\svrt_images\generated_images\results_problem_21\sample_0_0003.png,,,,,,,,,,,,,,,,,,,,0,3,3,3,0,10,10,10,,,,,,,,,,,,,,f,21,A,B,20,0,Incorrect!,0.4023450000677258,1173.514904999989,None,1173.514904999989,None,1173.9485898999264,None,,,,,79,001,2023-05-23_13h03.13.797,uncolored_shuffled,2021.2.3,59.946791227714485,
C:\Users\subject\Desktop\SVRT Experiments\SVRT Experiment 3\svrt_images\generated_images\results_problem_21,,C:\Users\subject\Desktop\SVRT Experiments\SVRT Experiment 3\svrt_images\generated_images\results_problem_4\sample_1_0005.png,,C:\Users\subject\Desktop\SVRT Experiments\SVRT Experiment 3\svrt_images\generated_images\results_problem_21\sample_1_0000.png,,,,,,,,,,,,,,,,,,,,0,3,3,3,0,11,11,11,,,,,,,,,,,,,,j,21,B,A,20,0,Incorrect!,0.4438038000371307,1175.0494378999574,None,1175.0494378999574,None,1175.5164150999626,None,,,,,79,001,2023-05-23_13h03.13.797,uncolored_shuffled,2021.2.3,59.946791227714485,
C:\Users\subject\Desktop\SVRT Experiments\SVRT Experiment 3\svrt_images\generated_images\results_problem_21,,C:\Users\subject\Desktop\SVRT Experiments\SVRT Experiment 3\svrt_images\generated_images\results_problem_4\sample_1_0005.png,,C:\Users\subject\Desktop\SVRT Experiments\SVRT Experiment 3\svrt_images\generated_images\results_problem_21\sample_1_0001.png,,,,,,,,,,,,,,,,,,,,0,3,3,3,0,12,12,12,,,,,,,,,,,,,,f,21,A,A,20,1,Correct!,0.3559766999678686,1176.6172780999914,None,1176.6172780999914,None,1177.000896499958,None,,,,,79,001,2023-05-23_13h03.13.797,uncolored_shuffled,2021.2.3,59.946791227714485,
C:\Users\subject\Desktop\SVRT Experiments\SVRT Experiment 3\svrt_images\generated_images\results_problem_21,,C:\Users\subject\Desktop\SVRT Experiments\SVRT Experiment 3\svrt_images\generated_images\results_problem_4\sample_1_0005.png,,C:\Users\subject\Desktop\SVRT Experiments\SVRT Experiment 3\svrt_images\generated_images\results_problem_21\sample_0_0007.png,,,,,,,,,,,,,,,,,,,,0,3,3,3,0,13,13,13,,,,,,,,,,,,,,f,21,A,B,20,0,Incorrect!,0.7509104999480769,1178.118418799946,None,1178.118418799946,None,1178.9023349999916,None,,,,,79,001,2023-05-23_13h03.13.797,uncolored_shuffled,2021.2.3,59.946791227714485,
C:\Users\subject\Desktop\SVRT Experiments\SVRT Experiment 3\svrt_images\generated_images\results_problem_21,,C:\Users\subject\Desktop\SVRT Experiments\SVRT Experiment 3\svrt_images\generated_images\results_problem_4\sample_1_0005.png,,C:\Users\subject\Desktop\SVRT Experiments\SVRT Experiment 3\svrt_images\generated_images\results_problem_21\sample_1_0003.png,,,,,,,,,,,,,,,,,,,,0,3,3,3,0,14,14,14,,,,,,,,,,,,,,j,21,B,A,20,0,Incorrect!,0.24140910001005977,1180.0198358999332,None,1180.0198358999332,None,1180.2866868999554,None,,,,,79,001,2023-05-23_13h03.13.797,uncolored_shuffled,2021.2.3,59.946791227714485,
C:\Users\subject\Desktop\SVRT Experiments\SVRT Experiment 3\svrt_images\generated_images\results_problem_21,,C:\Users\subject\Desktop\SVRT Experiments\SVRT Experiment 3\svrt_images\generated_images\results_problem_4\sample_1_0005.png,,C:\Users\subject\Desktop\SVRT Experiments\SVRT Experiment 3\svrt_images\generated_images\results_problem_21\sample_0_0004.png,,,,,,,,,,,,,,,,,,,,0,3,3,3,0,15,15,15,,,,,,,,,,,,,,f,21,A,B,20,0,Incorrect!,0.19739310001023114,1181.5198220999446,None,1181.5198220999446,None,1181.7377642999636,None,,,,,79,001,2023-05-23_13h03.13.797,uncolored_shuffled,2021.2.3,59.946791227714485,
C:\Users\subject\Desktop\SVRT Experiments\SVRT Experiment 3\svrt_images\generated_images\results_problem_21,,C:\Users\subject\Desktop\SVRT Experiments\SVRT Experiment 3\svrt_images\generated_images\results_problem_4\sample_1_0005.png,,C:\Users\subject\Desktop\SVRT Experiments\SVRT Experiment 3\svrt_images\generated_images\results_problem_21\sample_1_0007.png,,,,,,,,,,,,,,,,,,,,0,3,3,3,0,16,16,16,,,,,,,,,,,,,,j,21,B,A,20,0,Incorrect!,0.2845479999668896,1182.888675999944,None,1182.888675999944,None,1183.2055755999172,None,,,,,79,001,2023-05-23_13h03.13.797,uncolored_shuffled,2021.2.3,59.946791227714485,
C:\Users\subject\Desktop\SVRT Experiments\SVRT Experiment 3\svrt_images\generated_images\results_problem_21,,C:\Users\subject\Desktop\SVRT Experiments\SVRT Experiment 3\svrt_images\generated_images\results_problem_4\sample_1_0005.png,,C:\Users\subject\Desktop\SVRT Experiments\SVRT Experiment 3\svrt_images\generated_images\results_problem_21\sample_1_0016.png,,,,,,,,,,,,,,,,,,,,0,3,3,3,0,17,17,17,,,,,,,,,,,,,,j,21,B,A,20,0,Incorrect!,0.15209560003131628,1184.3730998999672,None,1184.3730998999672,None,1184.5565747999353,None,,,,,79,001,2023-05-23_13h03.13.797,uncolored_shuffled,2021.2.3,59.946791227714485,
C:\Users\subject\Desktop\SVRT Experiments\SVRT Experiment 3\svrt_images\generated_images\results_problem_21,,C:\Users\subject\Desktop\SVRT Experiments\SVRT Experiment 3\svrt_images\generated_images\results_problem_4\sample_1_0005.png,,C:\Users\subject\Desktop\SVRT Experiments\SVRT Experiment 3\svrt_images\generated_images\results_problem_21\sample_0_0001.png,,,,,,,,,,,,,,,,,,,,0,3,3,3,0,18,18,18,,,,,,,,,,,,,,j,21,B,B,20,1,Correct!,0.4097324999747798,1185.7074732999317,None,1185.7074732999317,None,1186.1578005999327,None,,,,,79,001,2023-05-23_13h03.13.797,uncolored_shuffled,2021.2.3,59.946791227714485,
C:\Users\subject\Desktop\SVRT Experiments\SVRT Experiment 3\svrt_images\generated_images\results_problem_21,,C:\Users\subject\Desktop\SVRT Experiments\SVRT Experiment 3\svrt_images\generated_images\results_problem_4\sample_1_0005.png,,C:\Users\subject\Desktop\SVRT Experiments\SVRT Experiment 3\svrt_images\generated_images\results_problem_21\sample_1_0014.png,,,,,,,,,,,,,,,,,,,,0,3,3,3,0,19,19,19,,,,,,,,,,,,,,j,21,B,A,20,0,Incorrect!,0.34319189994130284,1187.3419989999384,None,1187.3419989999384,None,1187.7256498999195,None,,,,,79,001,2023-05-23_13h03.13.797,uncolored_shuffled,2021.2.3,59.946791227714485,
C:\Users\subject\Desktop\SVRT Experiments\SVRT Experiment 3\svrt_images\generated_images\results_problem_21,,C:\Users\subject\Desktop\SVRT Experiments\SVRT Experiment 3\svrt_images\generated_images\results_problem_4\sample_1_0005.png,,C:\Users\subject\Desktop\SVRT Experiments\SVRT Experiment 3\svrt_images\generated_images\results_problem_21\sample_1_0013.png,,,,,,,,,,,,,,,,,,,,0,3,3,3,0,20,20,20,,,,,,,,,,,,,,f,21,A,A,20,1,Correct!,0.2785808000480756,1188.9265652999748,None,1188.9265652999748,None,1189.2434188999468,None,,,,,79,001,2023-05-23_13h03.13.797,uncolored_shuffled,2021.2.3,59.946791227714485,
C:\Users\subject\Desktop\SVRT Experiments\SVRT Experiment 3\svrt_images\generated_images\results_problem_21,,C:\Users\subject\Desktop\SVRT Experiments\SVRT Experiment 3\svrt_images\generated_images\results_problem_4\sample_1_0005.png,,C:\Users\subject\Desktop\SVRT Experiments\SVRT Experiment 3\svrt_images\generated_images\results_problem_21\sample_0_0016.png,,,,,,,,,,,,,,,,,,,,0,3,3,3,0,21,21,21,,,,,,,,,,,,,,j,21,B,B,20,1,Correct!,3.216759799979627,1190.444451599964,None,1190.444451599964,None,1193.6801414999645,None,,,,,79,001,2023-05-23_13h03.13.797,uncolored_shuffled,2021.2.3,59.946791227714485,
C:\Users\subject\Desktop\SVRT Experiments\SVRT Experiment 3\svrt_images\generated_images\results_problem_21,,C:\Users\subject\Desktop\SVRT Experiments\SVRT Experiment 3\svrt_images\generated_images\results_problem_4\sample_1_0005.png,,C:\Users\subject\Desktop\SVRT Experiments\SVRT Experiment 3\svrt_images\generated_images\results_problem_21\sample_0_0009.png,,,,,,,,,,,,,,,,,,,,0,3,3,3,0,22,22,22,,,,,,,,,,,,,,f,21,A,B,20,0,Incorrect!,0.5320831999415532,1194.881046699942,None,1194.881046699942,None,1195.4481411000015,None,,,,,79,001,2023-05-23_13h03.13.797,uncolored_shuffled,2021.2.3,59.946791227714485,
C:\Users\subject\Desktop\SVRT Experiments\SVRT Experiment 3\svrt_images\generated_images\results_problem_21,,C:\Users\subject\Desktop\SVRT Experiments\SVRT Experiment 3\svrt_images\generated_images\results_problem_4\sample_1_0005.png,,C:\Users\subject\Desktop\SVRT Experiments\SVRT Experiment 3\svrt_images\generated_images\results_problem_21\sample_0_0010.png,,,,,,,,,,,,,,,,,,,,0,3,3,3,0,23,23,23,,,,,,,,,,,,,,j,21,B,B,20,1,Correct!,0.5233655000338331,1196.6657258999767,None,1196.6657258999767,None,1197.2495448999107,None,,,,,79,001,2023-05-23_13h03.13.797,uncolored_shuffled,2021.2.3,59.946791227714485,
C:\Users\subject\Desktop\SVRT Experiments\SVRT Experiment 3\svrt_images\generated_images\results_problem_21,,C:\Users\subject\Desktop\SVRT Experiments\SVRT Experiment 3\svrt_images\generated_images\results_problem_4\sample_1_0005.png,,C:\Users\subject\Desktop\SVRT Experiments\SVRT Experiment 3\svrt_images\generated_images\results_problem_21\sample_1_0008.png,,,,,,,,,,,,,,,,,,,,0,3,3,3,0,24,24,24,,,,,,,,,,,,,,f,21,A,A,20,1,Correct!,0.6893395000370219,1198.4837621999905,None,1198.4837621999905,None,1199.2009386999998,None,,,,,79,001,2023-05-23_13h03.13.797,uncolored_shuffled,2021.2.3,59.946791227714485,
C:\Users\subject\Desktop\SVRT Experiments\SVRT Experiment 3\svrt_images\generated_images\results_problem_21,,C:\Users\subject\Desktop\SVRT Experiments\SVRT Experiment 3\svrt_images\generated_images\results_problem_4\sample_1_0005.png,,C:\Users\subject\Desktop\SVRT Experiments\SVRT Experiment 3\svrt_images\generated_images\results_problem_21\sample_1_0004.png,,,,,,,,,,,,,,,,,,,,0,3,3,3,0,25,25,25,,,,,,,,,,,,,,j,21,B,A,20,0,Incorrect!,0.5771022998960689,1200.4519195999019,None,1200.4519195999019,None,1201.0690430999966,None,,,,,79,001,2023-05-23_13h03.13.797,uncolored_shuffled,2021.2.3,59.946791227714485,
C:\Users\subject\Desktop\SVRT Experiments\SVRT Experiment 3\svrt_images\generated_images\results_problem_21,,C:\Users\subject\Desktop\SVRT Experiments\SVRT Experiment 3\svrt_images\generated_images\results_problem_4\sample_1_0005.png,,C:\Users\subject\Desktop\SVRT Experiments\SVRT Experiment 3\svrt_images\generated_images\results_problem_21\sample_0_0006.png,,,,,,,,,,,,,,,,,,,,0,3,3,3,0,26,26,26,,,,,,,,,,,,,,f,21,A,B,20,0,Incorrect!,0.4610842000693083,1202.3199985999381,None,1202.3199985999381,None,1202.8370003999444,None,,,,,79,001,2023-05-23_13h03.13.797,uncolored_shuffled,2021.2.3,59.946791227714485,
C:\Users\subject\Desktop\SVRT Experiments\SVRT Experiment 3\svrt_images\generated_images\results_problem_21,,C:\Users\subject\Desktop\SVRT Experiments\SVRT Experiment 3\svrt_images\generated_images\results_problem_4\sample_1_0005.png,,C:\Users\subject\Desktop\SVRT Experiments\SVRT Experiment 3\svrt_images\generated_images\results_problem_21\sample_1_0009.png,,,,,,,,,,,,,,,,,,,,0,3,3,3,0,27,27,27,,,,,,,,,,,,,,j,21,B,A,20,0,Incorrect!,0.1637103999964893,1204.1213687999407,None,1204.1213687999407,None,1204.3381252000108,None,,,,,79,001,2023-05-23_13h03.13.797,uncolored_shuffled,2021.2.3,59.946791227714485,
C:\Users\subject\Desktop\SVRT Experiments\SVRT Experiment 3\svrt_images\generated_images\results_problem_21,,C:\Users\subject\Desktop\SVRT Experiments\SVRT Experiment 3\svrt_images\generated_images\results_problem_4\sample_1_0005.png,,C:\Users\subject\Desktop\SVRT Experiments\SVRT Experiment 3\svrt_images\generated_images\results_problem_21\sample_0_0014.png,,,,,,,,,,,,,,,,,,,,0,3,3,3,0,28,28,28,,,,,,,,,,,,,,f,21,A,B,20,0,Incorrect!,0.806622099946253,1205.622456299956,None,1205.622456299956,None,1206.4731071999995,None,,,,,79,001,2023-05-23_13h03.13.797,uncolored_shuffled,2021.2.3,59.946791227714485,
C:\Users\subject\Desktop\SVRT Experiments\SVRT Experiment 3\svrt_images\generated_images\results_problem_21,,C:\Users\subject\Desktop\SVRT Experiments\SVRT Experiment 3\svrt_images\generated_images\results_problem_4\sample_1_0005.png,,C:\Users\subject\Desktop\SVRT Experiments\SVRT Experiment 3\svrt_images\generated_images\results_problem_21\sample_1_0002.png,,,,,,,,,,,,,,,,,,,,0,3,3,3,0,29,29,29,,,,,,,,,,,,,,j,21,B,A,20,0,Incorrect!,0.10293170006480068,1207.774115899927,None,1207.774115899927,None,1207.9408883999567,None,,,,,79,001,2023-05-23_13h03.13.797,uncolored_shuffled,2021.2.3,59.946791227714485,
C:\Users\subject\Desktop\SVRT Experiments\SVRT Experiment 3\svrt_images\generated_images\results_problem_21,,C:\Users\subject\Desktop\SVRT Experiments\SVRT Experiment 3\svrt_images\generated_images\results_problem_4\sample_1_0005.png,,C:\Users\subject\Desktop\SVRT Experiments\SVRT Experiment 3\svrt_images\generated_images\results_problem_21\sample_0_0012.png,,,,,,,,,,,,,,,,,,,,0,3,3,3,0,30,30,30,,,,,,,,,,,,,,j,21,B,B,20,1,Correct!,0.25919959996826947,1209.2418552999152,None,1209.2418552999152,None,1209.542093899916,None,,,,,79,001,2023-05-23_13h03.13.797,uncolored_shuffled,2021.2.3,59.946791227714485,
C:\Users\subject\Desktop\SVRT Experiments\SVRT Experiment 3\svrt_images\generated_images\results_problem_21,,C:\Users\subject\Desktop\SVRT Experiments\SVRT Experiment 3\svrt_images\generated_images\results_problem_4\sample_1_0005.png,,C:\Users\subject\Desktop\SVRT Experiments\SVRT Experiment 3\svrt_images\generated_images\results_problem_21\sample_0_0013.png,,,,,,,,,,,,,,,,,,,,0,3,3,3,0,31,31,31,,,,,,,,,,,,,,f,21,A,B,20,0,Incorrect!,0.5853609000332654,1210.8597599999048,None,1210.8597599999048,None,1211.4768825999927,None,,,,,79,001,2023-05-23_13h03.13.797,uncolored_shuffled,2021.2.3,59.946791227714485,
C:\Users\subject\Desktop\SVRT Experiments\SVRT Experiment 3\svrt_images\generated_images\results_problem_21,,C:\Users\subject\Desktop\SVRT Experiments\SVRT Experiment 3\svrt_images\generated_images\results_problem_4\sample_1_0005.png,,C:\Users\subject\Desktop\SVRT Experiments\SVRT Experiment 3\svrt_images\generated_images\results_problem_21\sample_1_0012.png,,,,,,,,,,,,,,,,,,,,0,3,3,3,0,32,32,32,,,,,,,,,,,,,,j,21,B,A,20,0,Incorrect!,0.6657671000575647,1212.81126029999,None,1212.81126029999,None,1213.4950288999826,None,,,,,79,001,2023-05-23_13h03.13.797,uncolored_shuffled,2021.2.3,59.946791227714485,
C:\Users\subject\Desktop\SVRT Experiments\SVRT Experiment 3\svrt_images\generated_images\results_problem_21,,C:\Users\subject\Desktop\SVRT Experiments\SVRT Experiment 3\svrt_images\generated_images\results_problem_4\sample_1_0005.png,,C:\Users\subject\Desktop\SVRT Experiments\SVRT Experiment 3\svrt_images\generated_images\results_problem_21\sample_1_0005.png,,,,,,,,,,,,,,,,,,,,0,3,3,3,0,33,33,33,,,,,,,,,,,,,,f,21,A,A,20,1,Correct!,0.5595979000208899,1214.829395000008,None,1214.829395000008,None,1215.4465389999095,None,,,,,79,001,2023-05-23_13h03.13.797,uncolored_shuffled,2021.2.3,59.946791227714485,
C:\Users\subject\Desktop\SVRT Experiments\SVRT Experiment 3\svrt_images\generated_images\results_problem_21,,C:\Users\subject\Desktop\SVRT Experiments\SVRT Experiment 3\svrt_images\generated_images\results_problem_4\sample_1_0005.png,,,,,,,,,,,,,,,,,,,,,,0,3,3,3,0,7,7,7,,,,,,,,,,,,,,,,,,,,,,,,,,,,1216.447296999977,1216.447296999977,space,15.821557099930942,79,001,2023-05-23_13h03.13.797,uncolored_shuffled,2021.2.3,59.946791227714485,
C:\Users\subject\Desktop\SVRT Experiments\SVRT Experiment 3\svrt_images\generated_images\results_problem_14,,C:\Users\subject\Desktop\SVRT Experiments\SVRT Experiment 3\svrt_images\generated_images\results_problem_4\sample_1_0005.png,,,C:\Users\subject\Desktop\SVRT Experiments\SVRT Experiment 3\svrt_images\generated_images\results_problem_14\sample_0_0006.png,,,,,,,,,,,,,,,,,,,0,4,4,4,0,0,0,0,,,,,,,,,,,,,,f,14,A,B,20,0,Incorrect!,1.9517562999390066,1232.3092527999543,None,1232.3092527999543,None,1234.2940559999552,None,,,,,79,001,2023-05-23_13h03.13.797,uncolored_shuffled,2021.2.3,59.946791227714485,
C:\Users\subject\Desktop\SVRT Experiments\SVRT Experiment 3\svrt_images\generated_images\results_problem_14,,C:\Users\subject\Desktop\SVRT Experiments\SVRT Experiment 3\svrt_images\generated_images\results_problem_4\sample_1_0005.png,,,C:\Users\subject\Desktop\SVRT Experiments\SVRT Experiment 3\svrt_images\generated_images\results_problem_14\sample_0_0001.png,,,,,,,,,,,,,,,,,,,0,4,4,4,0,1,1,1,,,,,,,,,,,,,,j,14,B,B,20,1,Correct!,0.52605870005209,1235.2948720999993,None,1235.2948720999993,None,1235.8452293999726,None,,,,,79,001,2023-05-23_13h03.13.797,uncolored_shuffled,2021.2.3,59.946791227714485,
C:\Users\subject\Desktop\SVRT Experiments\SVRT Experiment 3\svrt_images\generated_images\results_problem_14,,C:\Users\subject\Desktop\SVRT Experiments\SVRT Experiment 3\svrt_images\generated_images\results_problem_4\sample_1_0005.png,,,C:\Users\subject\Desktop\SVRT Experiments\SVRT Experiment 3\svrt_images\generated_images\results_problem_14\sample_0_0003.png,,,,,,,,,,,,,,,,,,,0,4,4,4,0,2,2,2,,,,,,,,,,,,,,j,14,B,B,20,1,Correct!,1.4381326000439003,1236.8626793000149,None,1236.8626793000149,None,1238.3304220999125,None,,,,,79,001,2023-05-23_13h03.13.797,uncolored_shuffled,2021.2.3,59.946791227714485,
C:\Users\subject\Desktop\SVRT Experiments\SVRT Experiment 3\svrt_images\generated_images\results_problem_14,,C:\Users\subject\Desktop\SVRT Experiments\SVRT Experiment 3\svrt_images\generated_images\results_problem_4\sample_1_0005.png,,,C:\Users\subject\Desktop\SVRT Experiments\SVRT Experiment 3\svrt_images\generated_images\results_problem_14\sample_0_0005.png,,,,,,,,,,,,,,,,,,,0,4,4,4,0,3,3,3,,,,,,,,,,,,,,j,14,B,B,20,1,Correct!,0.6728850000072271,1239.3478949000128,None,1239.3478949000128,None,1240.0484048000071,None,,,,,79,001,2023-05-23_13h03.13.797,uncolored_shuffled,2021.2.3,59.946791227714485,
C:\Users\subject\Desktop\SVRT Experiments\SVRT Experiment 3\svrt_images\generated_images\results_problem_14,,C:\Users\subject\Desktop\SVRT Experiments\SVRT Experiment 3\svrt_images\generated_images\results_problem_4\sample_1_0005.png,,,C:\Users\subject\Desktop\SVRT Experiments\SVRT Experiment 3\svrt_images\generated_images\results_problem_14\sample_1_0016.png,,,,,,,,,,,,,,,,,,,0,4,4,4,0,4,4,4,,,,,,,,,,,,,,f,14,A,A,20,1,Correct!,1.4902656000340357,1241.0825197999366,None,1241.0825197999366,None,1242.6003539999947,None,,,,,79,001,2023-05-23_13h03.13.797,uncolored_shuffled,2021.2.3,59.946791227714485,
C:\Users\subject\Desktop\SVRT Experiments\SVRT Experiment 3\svrt_images\generated_images\results_problem_14,,C:\Users\subject\Desktop\SVRT Experiments\SVRT Experiment 3\svrt_images\generated_images\results_problem_4\sample_1_0005.png,,,C:\Users\subject\Desktop\SVRT Experiments\SVRT Experiment 3\svrt_images\generated_images\results_problem_14\sample_0_0016.png,,,,,,,,,,,,,,,,,,,0,4,4,4,0,5,5,5,,,,,,,,,,,,,,j,14,B,B,20,1,Correct!,4.554307900019921,1243.6344714999432,None,1243.6344714999432,None,1248.221244999906,None,,,,,79,001,2023-05-23_13h03.13.797,uncolored_shuffled,2021.2.3,59.946791227714485,
C:\Users\subject\Desktop\SVRT Experiments\SVRT Experiment 3\svrt_images\generated_images\results_problem_14,,C:\Users\subject\Desktop\SVRT Experiments\SVRT Experiment 3\svrt_images\generated_images\results_problem_4\sample_1_0005.png,,,C:\Users\subject\Desktop\SVRT Experiments\SVRT Experiment 3\svrt_images\generated_images\results_problem_14\sample_1_0004.png,,,,,,,,,,,,,,,,,,,0,4,4,4,0,6,6,6,,,,,,,,,,,,,,j,14,B,A,20,0,Incorrect!,2.252664399915375,1249.27204969991,None,1249.27204969991,None,1251.5571424999507,None,,,,,79,001,2023-05-23_13h03.13.797,uncolored_shuffled,2021.2.3,59.946791227714485,
C:\Users\subject\Desktop\SVRT Experiments\SVRT Experiment 3\svrt_images\generated_images\results_problem_14,,C:\Users\subject\Desktop\SVRT Experiments\SVRT Experiment 3\svrt_images\generated_images\results_problem_4\sample_1_0005.png,,,C:\Users\subject\Desktop\SVRT Experiments\SVRT Experiment 3\svrt_images\generated_images\results_problem_14\sample_1_0000.png,,,,,,,,,,,,,,,,,,,0,4,4,4,0,7,7,7,,,,,,,,,,,,,,f,14,A,A,20,1,Correct!,2.284965099999681,1252.6078521999298,None,1252.6078521999298,None,1254.9097134999465,None,,,,,79,001,2023-05-23_13h03.13.797,uncolored_shuffled,2021.2.3,59.946791227714485,
C:\Users\subject\Desktop\SVRT Experiments\SVRT Experiment 3\svrt_images\generated_images\results_problem_14,,C:\Users\subject\Desktop\SVRT Experiments\SVRT Experiment 3\svrt_images\generated_images\results_problem_4\sample_1_0005.png,,,C:\Users\subject\Desktop\SVRT Experiments\SVRT Experiment 3\svrt_images\generated_images\results_problem_14\sample_1_0001.png,,,,,,,,,,,,,,,,,,,0,4,4,4,0,8,8,8,,,,,,,,,,,,,,j,14,B,A,20,0,Incorrect!,11.579581399913877,1255.9770812999923,None,1255.9770812999923,None,1267.5858402999584,None,,,,,79,001,2023-05-23_13h03.13.797,uncolored_shuffled,2021.2.3,59.946791227714485,
C:\Users\subject\Desktop\SVRT Experiments\SVRT Experiment 3\svrt_images\generated_images\results_problem_14,,C:\Users\subject\Desktop\SVRT Experiments\SVRT Experiment 3\svrt_images\generated_images\results_problem_4\sample_1_0005.png,,,C:\Users\subject\Desktop\SVRT Experiments\SVRT Experiment 3\svrt_images\generated_images\results_problem_14\sample_1_0002.png,,,,,,,,,,,,,,,,,,,0,4,4,4,0,9,9,9,,,,,,,,,,,,,,j,14,B,A,20,0,Incorrect!,0.3266789000481367,1268.6699685999192,None,1268.6699685999192,None,1269.0202582000056,None,,,,,79,001,2023-05-23_13h03.13.797,uncolored_shuffled,2021.2.3,59.946791227714485,
C:\Users\subject\Desktop\SVRT Experiments\SVRT Experiment 3\svrt_images\generated_images\results_problem_14,,C:\Users\subject\Desktop\SVRT Experiments\SVRT Experiment 3\svrt_images\generated_images\results_problem_4\sample_1_0005.png,,,C:\Users\subject\Desktop\SVRT Experiments\SVRT Experiment 3\svrt_images\generated_images\results_problem_14\sample_1_0012.png,,,,,,,,,,,,,,,,,,,0,4,4,4,0,10,10,10,,,,,,,,,,,,,,f,14,A,A,20,1,Correct!,1.3562715000007302,1270.10438039992,None,1270.10438039992,None,1271.4887831999222,None,,,,,79,001,2023-05-23_13h03.13.797,uncolored_shuffled,2021.2.3,59.946791227714485,
C:\Users\subject\Desktop\SVRT Experiments\SVRT Experiment 3\svrt_images\generated_images\results_problem_14,,C:\Users\subject\Desktop\SVRT Experiments\SVRT Experiment 3\svrt_images\generated_images\results_problem_4\sample_1_0005.png,,,C:\Users\subject\Desktop\SVRT Experiments\SVRT Experiment 3\svrt_images\generated_images\results_problem_14\sample_1_0005.png,,,,,,,,,,,,,,,,,,,0,4,4,4,0,11,11,11,,,,,,,,,,,,,,f,14,A,A,20,1,Correct!,10.190956000005826,1272.589604399982,None,1272.589604399982,None,1282.7972857999848,None,,,,,79,001,2023-05-23_13h03.13.797,uncolored_shuffled,2021.2.3,59.946791227714485,
C:\Users\subject\Desktop\SVRT Experiments\SVRT Experiment 3\svrt_images\generated_images\results_problem_14,,C:\Users\subject\Desktop\SVRT Experiments\SVRT Experiment 3\svrt_images\generated_images\results_problem_4\sample_1_0005.png,,,C:\Users\subject\Desktop\SVRT Experiments\SVRT Experiment 3\svrt_images\generated_images\results_problem_14\sample_0_0012.png,,,,,,,,,,,,,,,,,,,0,4,4,4,0,12,12,12,,,,,,,,,,,,,,f,14,A,B,20,0,Incorrect!,3.282343399943784,1283.8981395999435,None,1283.8981395999435,None,1287.2006373999175,None,,,,,79,001,2023-05-23_13h03.13.797,uncolored_shuffled,2021.2.3,59.946791227714485,
C:\Users\subject\Desktop\SVRT Experiments\SVRT Experiment 3\svrt_images\generated_images\results_problem_14,,C:\Users\subject\Desktop\SVRT Experiments\SVRT Experiment 3\svrt_images\generated_images\results_problem_4\sample_1_0005.png,,,C:\Users\subject\Desktop\SVRT Experiments\SVRT Experiment 3\svrt_images\generated_images\results_problem_14\sample_0_0000.png,,,,,,,,,,,,,,,,,,,0,4,4,4,0,13,13,13,,,,,,,,,,,,,,f,14,A,B,20,0,Incorrect!,2.0609492000658065,1288.3515100999502,None,1288.3515100999502,None,1290.4364001000067,None,,,,,79,001,2023-05-23_13h03.13.797,uncolored_shuffled,2021.2.3,59.946791227714485,
C:\Users\subject\Desktop\SVRT Experiments\SVRT Experiment 3\svrt_images\generated_images\results_problem_14,,C:\Users\subject\Desktop\SVRT Experiments\SVRT Experiment 3\svrt_images\generated_images\results_problem_4\sample_1_0005.png,,,C:\Users\subject\Desktop\SVRT Experiments\SVRT Experiment 3\svrt_images\generated_images\results_problem_14\sample_0_0015.png,,,,,,,,,,,,,,,,,,,0,4,4,4,0,14,14,14,,,,,,,,,,,,,,j,14,B,B,20,1,Correct!,1.3537351000122726,1291.570655199932,None,1291.570655199932,None,1292.954929600004,None,,,,,79,001,2023-05-23_13h03.13.797,uncolored_shuffled,2021.2.3,59.946791227714485,
C:\Users\subject\Desktop\SVRT Experiments\SVRT Experiment 3\svrt_images\generated_images\results_problem_14,,C:\Users\subject\Desktop\SVRT Experiments\SVRT Experiment 3\svrt_images\generated_images\results_problem_4\sample_1_0005.png,,,C:\Users\subject\Desktop\SVRT Experiments\SVRT Experiment 3\svrt_images\generated_images\results_problem_14\sample_1_0013.png,,,,,,,,,,,,,,,,,,,0,4,4,4,0,15,15,15,,,,,,,,,,,,,,j,14,B,A,20,0,Incorrect!,14.075129800010473,1294.0891657999018,None,1294.0891657999018,None,1308.1830950999865,None,,,,,79,001,2023-05-23_13h03.13.797,uncolored_shuffled,2021.2.3,59.946791227714485,
C:\Users\subject\Desktop\SVRT Experiments\SVRT Experiment 3\svrt_images\generated_images\results_problem_14,,C:\Users\subject\Desktop\SVRT Experiments\SVRT Experiment 3\svrt_images\generated_images\results_problem_4\sample_1_0005.png,,,C:\Users\subject\Desktop\SVRT Experiments\SVRT Experiment 3\svrt_images\generated_images\results_problem_14\sample_0_0014.png,,,,,,,,,,,,,,,,,,,0,4,4,4,0,16,16,16,,,,,,,,,,,,,,f,14,A,B,20,0,Incorrect!,2.431039599934593,1309.3172521999804,None,1309.3172521999804,None,1311.7691490999423,None,,,,,79,001,2023-05-23_13h03.13.797,uncolored_shuffled,2021.2.3,59.946791227714485,
C:\Users\subject\Desktop\SVRT Experiments\SVRT Experiment 3\svrt_images\generated_images\results_problem_14,,C:\Users\subject\Desktop\SVRT Experiments\SVRT Experiment 3\svrt_images\generated_images\results_problem_4\sample_1_0005.png,,,C:\Users\subject\Desktop\SVRT Experiments\SVRT Experiment 3\svrt_images\generated_images\results_problem_14\sample_1_0011.png,,,,,,,,,,,,,,,,,,,0,4,4,4,0,17,17,17,,,,,,,,,,,,,,f,14,A,A,20,1,Correct!,1.6682130000554025,1312.9200273999013,None,1312.9200273999013,None,1314.6379430999514,None,,,,,79,001,2023-05-23_13h03.13.797,uncolored_shuffled,2021.2.3,59.946791227714485,
C:\Users\subject\Desktop\SVRT Experiments\SVRT Experiment 3\svrt_images\generated_images\results_problem_14,,C:\Users\subject\Desktop\SVRT Experiments\SVRT Experiment 3\svrt_images\generated_images\results_problem_4\sample_1_0005.png,,,C:\Users\subject\Desktop\SVRT Experiments\SVRT Experiment 3\svrt_images\generated_images\results_problem_14\sample_1_0003.png,,,,,,,,,,,,,,,,,,,0,4,4,4,0,18,18,18,,,,,,,,,,,,,,j,14,B,A,20,0,Incorrect!,30.223142500035465,1315.7888709999388,None,1315.7888709999388,None,1346.0616400999716,None,,,,,79,001,2023-05-23_13h03.13.797,uncolored_shuffled,2021.2.3,59.946791227714485,
C:\Users\subject\Desktop\SVRT Experiments\SVRT Experiment 3\svrt_images\generated_images\results_problem_14,,C:\Users\subject\Desktop\SVRT Experiments\SVRT Experiment 3\svrt_images\generated_images\results_problem_4\sample_1_0005.png,,,C:\Users\subject\Desktop\SVRT Experiments\SVRT Experiment 3\svrt_images\generated_images\results_problem_14\sample_0_0002.png,,,,,,,,,,,,,,,,,,,0,4,4,4,0,19,19,19,,,,,,,,,,,,,,f,14,A,B,20,0,Incorrect!,1.414788099937141,1347.2292043999769,None,1347.2292043999769,None,1348.680272199912,None,,,,,79,001,2023-05-23_13h03.13.797,uncolored_shuffled,2021.2.3,59.946791227714485,
C:\Users\subject\Desktop\SVRT Experiments\SVRT Experiment 3\svrt_images\generated_images\results_problem_14,,C:\Users\subject\Desktop\SVRT Experiments\SVRT Experiment 3\svrt_images\generated_images\results_problem_4\sample_1_0005.png,,,C:\Users\subject\Desktop\SVRT Experiments\SVRT Experiment 3\svrt_images\generated_images\results_problem_14\sample_1_0015.png,,,,,,,,,,,,,,,,,,,0,4,4,4,0,20,20,20,,,,,,,,,,,,,,j,14,B,A,20,0,Incorrect!,0.507515300065279,1349.8644956999924,None,1349.8644956999924,None,1350.4150460999226,None,,,,,79,001,2023-05-23_13h03.13.797,uncolored_shuffled,2021.2.3,59.946791227714485,
C:\Users\subject\Desktop\SVRT Experiments\SVRT Experiment 3\svrt_images\generated_images\results_problem_14,,C:\Users\subject\Desktop\SVRT Experiments\SVRT Experiment 3\svrt_images\generated_images\results_problem_4\sample_1_0005.png,,,C:\Users\subject\Desktop\SVRT Experiments\SVRT Experiment 3\svrt_images\generated_images\results_problem_14\sample_0_0008.png,,,,,,,,,,,,,,,,,,,0,4,4,4,0,21,21,21,,,,,,,,,,,,,,j,14,B,B,20,1,Correct!,0.29206929996144027,1351.615900099976,None,1351.615900099976,None,1351.9327636999078,None,,,,,79,001,2023-05-23_13h03.13.797,uncolored_shuffled,2021.2.3,59.946791227714485,
C:\Users\subject\Desktop\SVRT Experiments\SVRT Experiment 3\svrt_images\generated_images\results_problem_14,,C:\Users\subject\Desktop\SVRT Experiments\SVRT Experiment 3\svrt_images\generated_images\results_problem_4\sample_1_0005.png,,,C:\Users\subject\Desktop\SVRT Experiments\SVRT Experiment 3\svrt_images\generated_images\results_problem_14\sample_1_0008.png,,,,,,,,,,,,,,,,,,,0,4,4,4,0,22,22,22,,,,,,,,,,,,,,f,14,A,A,20,1,Correct!,1.4223446999676526,1353.133616099949,None,1353.133616099949,None,1354.6014220999787,None,,,,,79,001,2023-05-23_13h03.13.797,uncolored_shuffled,2021.2.3,59.946791227714485,
C:\Users\subject\Desktop\SVRT Experiments\SVRT Experiment 3\svrt_images\generated_images\results_problem_14,,C:\Users\subject\Desktop\SVRT Experiments\SVRT Experiment 3\svrt_images\generated_images\results_problem_4\sample_1_0005.png,,,C:\Users\subject\Desktop\SVRT Experiments\SVRT Experiment 3\svrt_images\generated_images\results_problem_14\sample_1_0006.png,,,,,,,,,,,,,,,,,,,0,4,4,4,0,23,23,23,,,,,,,,,,,,,,f,14,A,A,20,1,Correct!,0.7208745999960229,1355.8190040999325,None,1355.8190040999325,None,1356.5862746000057,None,,,,,79,001,2023-05-23_13h03.13.797,uncolored_shuffled,2021.2.3,59.946791227714485,
C:\Users\subject\Desktop\SVRT Experiments\SVRT Experiment 3\svrt_images\generated_images\results_problem_14,,C:\Users\subject\Desktop\SVRT Experiments\SVRT Experiment 3\svrt_images\generated_images\results_problem_4\sample_1_0005.png,,,C:\Users\subject\Desktop\SVRT Experiments\SVRT Experiment 3\svrt_images\generated_images\results_problem_14\sample_0_0004.png,,,,,,,,,,,,,,,,,,,0,4,4,4,0,24,24,24,,,,,,,,,,,,,,f,14,A,B,20,0,Incorrect!,7.367389900027774,1357.82047409995,None,1357.82047409995,None,1365.209418799961,None,,,,,79,001,2023-05-23_13h03.13.797,uncolored_shuffled,2021.2.3,59.946791227714485,
C:\Users\subject\Desktop\SVRT Experiments\SVRT Experiment 3\svrt_images\generated_images\results_problem_14,,C:\Users\subject\Desktop\SVRT Experiments\SVRT Experiment 3\svrt_images\generated_images\results_problem_4\sample_1_0005.png,,,C:\Users\subject\Desktop\SVRT Experiments\SVRT Experiment 3\svrt_images\generated_images\results_problem_14\sample_1_0010.png,,,,,,,,,,,,,,,,,,,0,4,4,4,0,25,25,25,,,,,,,,,,,,,,j,14,B,A,20,0,Incorrect!,1.2481507000047714,1366.4437047999818,None,1366.4437047999818,None,1367.7112895000027,None,,,,,79,001,2023-05-23_13h03.13.797,uncolored_shuffled,2021.2.3,59.946791227714485,
C:\Users\subject\Desktop\SVRT Experiments\SVRT Experiment 3\svrt_images\generated_images\results_problem_14,,C:\Users\subject\Desktop\SVRT Experiments\SVRT Experiment 3\svrt_images\generated_images\results_problem_4\sample_1_0005.png,,,C:\Users\subject\Desktop\SVRT Experiments\SVRT Experiment 3\svrt_images\generated_images\results_problem_14\sample_1_0014.png,,,,,,,,,,,,,,,,,,,0,4,4,4,0,26,26,26,,,,,,,,,,,,,,f,14,A,A,20,1,Correct!,0.32960699999239296,1368.9622453999473,None,1368.9622453999473,None,1369.3458845999558,None,,,,,79,001,2023-05-23_13h03.13.797,uncolored_shuffled,2021.2.3,59.946791227714485,
C:\Users\subject\Desktop\SVRT Experiments\SVRT Experiment 3\svrt_images\generated_images\results_problem_14,,C:\Users\subject\Desktop\SVRT Experiments\SVRT Experiment 3\svrt_images\generated_images\results_problem_4\sample_1_0005.png,,,C:\Users\subject\Desktop\SVRT Experiments\SVRT Experiment 3\svrt_images\generated_images\results_problem_14\sample_1_0007.png,,,,,,,,,,,,,,,,,,,0,4,4,4,0,27,27,27,,,,,,,,,,,,,,f,14,A,A,20,1,Correct!,1.3743121000006795,1370.6135114999488,None,1370.6135114999488,None,1372.0312034999952,None,,,,,79,001,2023-05-23_13h03.13.797,uncolored_shuffled,2021.2.3,59.946791227714485,
C:\Users\subject\Desktop\SVRT Experiments\SVRT Experiment 3\svrt_images\generated_images\results_problem_14,,C:\Users\subject\Desktop\SVRT Experiments\SVRT Experiment 3\svrt_images\generated_images\results_problem_4\sample_1_0005.png,,,C:\Users\subject\Desktop\SVRT Experiments\SVRT Experiment 3\svrt_images\generated_images\results_problem_14\sample_0_0011.png,,,,,,,,,,,,,,,,,,,0,4,4,4,0,28,28,28,,,,,,,,,,,,,,f,14,A,B,20,0,Incorrect!,2.1123540999833494,1373.3155266999966,None,1373.3155266999966,None,1375.4671677999431,None,,,,,79,001,2023-05-23_13h03.13.797,uncolored_shuffled,2021.2.3,59.946791227714485,
C:\Users\subject\Desktop\SVRT Experiments\SVRT Experiment 3\svrt_images\generated_images\results_problem_14,,C:\Users\subject\Desktop\SVRT Experiments\SVRT Experiment 3\svrt_images\generated_images\results_problem_4\sample_1_0005.png,,,C:\Users\subject\Desktop\SVRT Experiments\SVRT Experiment 3\svrt_images\generated_images\results_problem_14\sample_0_0013.png,,,,,,,,,,,,,,,,,,,0,4,4,4,0,29,29,29,,,,,,,,,,,,,,j,14,B,B,20,1,Correct!,1.5163198000518605,1376.7514760999475,None,1376.7514760999475,None,1378.285912499996,None,,,,,79,001,2023-05-23_13h03.13.797,uncolored_shuffled,2021.2.3,59.946791227714485,
C:\Users\subject\Desktop\SVRT Experiments\SVRT Experiment 3\svrt_images\generated_images\results_problem_14,,C:\Users\subject\Desktop\SVRT Experiments\SVRT Experiment 3\svrt_images\generated_images\results_problem_4\sample_1_0005.png,,,C:\Users\subject\Desktop\SVRT Experiments\SVRT Experiment 3\svrt_images\generated_images\results_problem_14\sample_0_0010.png,,,,,,,,,,,,,,,,,,,0,4,4,4,0,30,30,30,,,,,,,,,,,,,,f,14,A,B,20,0,Incorrect!,3.7448753999779,1379.5869154999964,None,1379.5869154999964,None,1383.3731676999014,None,,,,,79,001,2023-05-23_13h03.13.797,uncolored_shuffled,2021.2.3,59.946791227714485,
C:\Users\subject\Desktop\SVRT Experiments\SVRT Experiment 3\svrt_images\generated_images\results_problem_14,,C:\Users\subject\Desktop\SVRT Experiments\SVRT Experiment 3\svrt_images\generated_images\results_problem_4\sample_1_0005.png,,,C:\Users\subject\Desktop\SVRT Experiments\SVRT Experiment 3\svrt_images\generated_images\results_problem_14\sample_0_0007.png,,,,,,,,,,,,,,,,,,,0,4,4,4,0,31,31,31,,,,,,,,,,,,,,f,14,A,B,20,0,Incorrect!,1.0135058000450954,1384.7742147999816,None,1384.7742147999816,None,1385.8582671999466,None,,,,,79,001,2023-05-23_13h03.13.797,uncolored_shuffled,2021.2.3,59.946791227714485,
C:\Users\subject\Desktop\SVRT Experiments\SVRT Experiment 3\svrt_images\generated_images\results_problem_14,,C:\Users\subject\Desktop\SVRT Experiments\SVRT Experiment 3\svrt_images\generated_images\results_problem_4\sample_1_0005.png,,,C:\Users\subject\Desktop\SVRT Experiments\SVRT Experiment 3\svrt_images\generated_images\results_problem_14\sample_0_0009.png,,,,,,,,,,,,,,,,,,,0,4,4,4,0,32,32,32,,,,,,,,,,,,,,j,14,B,B,20,1,Correct!,1.1136300000362098,1387.2260524999583,None,1387.2260524999583,None,1388.426944399951,None,,,,,79,001,2023-05-23_13h03.13.797,uncolored_shuffled,2021.2.3,59.946791227714485,
C:\Users\subject\Desktop\SVRT Experiments\SVRT Experiment 3\svrt_images\generated_images\results_problem_14,,C:\Users\subject\Desktop\SVRT Experiments\SVRT Experiment 3\svrt_images\generated_images\results_problem_4\sample_1_0005.png,,,C:\Users\subject\Desktop\SVRT Experiments\SVRT Experiment 3\svrt_images\generated_images\results_problem_14\sample_1_0009.png,,,,,,,,,,,,,,,,,,,0,4,4,4,0,33,33,33,,,,,,,,,,,,,,f,14,A,A,20,1,Correct!,0.9196928000310436,1389.8280632999958,None,1389.8280632999958,None,1390.812080899952,None,,,,,79,001,2023-05-23_13h03.13.797,uncolored_shuffled,2021.2.3,59.946791227714485,
C:\Users\subject\Desktop\SVRT Experiments\SVRT Experiment 3\svrt_images\generated_images\results_problem_14,,C:\Users\subject\Desktop\SVRT Experiments\SVRT Experiment 3\svrt_images\generated_images\results_problem_4\sample_1_0005.png,,,,,,,,,,,,,,,,,,,,,,0,4,4,4,0,7,7,7,,,,,,,,,,,,,,,,,,,,,,,,,,,,1391.8128261999227,1391.8128261999227,space,1.87883940001484,79,001,2023-05-23_13h03.13.797,uncolored_shuffled,2021.2.3,59.946791227714485,
C:\Users\subject\Desktop\SVRT Experiments\SVRT Experiment 3\svrt_images\generated_images\results_problem_2,,C:\Users\subject\Desktop\SVRT Experiments\SVRT Experiment 3\svrt_images\generated_images\results_problem_4\sample_1_0005.png,,,,C:\Users\subject\Desktop\SVRT Experiments\SVRT Experiment 3\svrt_images\generated_images\results_problem_2\sample_1_0001.png,,,,,,,,,,,,,,,,,,0,5,5,5,0,0,0,0,,,,,,,,,,,,,,f,2,A,A,20,1,Correct!,32.280578000005335,1393.7309018999804,None,1393.7309018999804,None,1426.038614799967,None,,,,,79,001,2023-05-23_13h03.13.797,uncolored_shuffled,2021.2.3,59.946791227714485,
C:\Users\subject\Desktop\SVRT Experiments\SVRT Experiment 3\svrt_images\generated_images\results_problem_2,,C:\Users\subject\Desktop\SVRT Experiments\SVRT Experiment 3\svrt_images\generated_images\results_problem_4\sample_1_0005.png,,,,C:\Users\subject\Desktop\SVRT Experiments\SVRT Experiment 3\svrt_images\generated_images\results_problem_2\sample_1_0012.png,,,,,,,,,,,,,,,,,,0,5,5,5,0,1,1,1,,,,,,,,,,,,,,j,2,B,A,20,0,Incorrect!,1.7560497000813484,1427.0393651999766,None,1427.0393651999766,None,1428.8240131000057,None,,,,,79,001,2023-05-23_13h03.13.797,uncolored_shuffled,2021.2.3,59.946791227714485,
C:\Users\subject\Desktop\SVRT Experiments\SVRT Experiment 3\svrt_images\generated_images\results_problem_2,,C:\Users\subject\Desktop\SVRT Experiments\SVRT Experiment 3\svrt_images\generated_images\results_problem_4\sample_1_0005.png,,,,C:\Users\subject\Desktop\SVRT Experiments\SVRT Experiment 3\svrt_images\generated_images\results_problem_2\sample_1_0002.png,,,,,,,,,,,,,,,,,,0,5,5,5,0,2,2,2,,,,,,,,,,,,,,f,2,A,A,20,1,Correct!,1.5698697000043467,1429.8414881000062,None,1429.8414881000062,None,1431.4426944999723,None,,,,,79,001,2023-05-23_13h03.13.797,uncolored_shuffled,2021.2.3,59.946791227714485,
C:\Users\subject\Desktop\SVRT Experiments\SVRT Experiment 3\svrt_images\generated_images\results_problem_2,,C:\Users\subject\Desktop\SVRT Experiments\SVRT Experiment 3\svrt_images\generated_images\results_problem_4\sample_1_0005.png,,,,C:\Users\subject\Desktop\SVRT Experiments\SVRT Experiment 3\svrt_images\generated_images\results_problem_2\sample_0_0011.png,,,,,,,,,,,,,,,,,,0,5,5,5,0,3,3,3,,,,,,,,,,,,,,j,2,B,B,20,1,Correct!,6.391264499980025,1432.4601188999368,None,1432.4601188999368,None,1438.8816391999135,None,,,,,79,001,2023-05-23_13h03.13.797,uncolored_shuffled,2021.2.3,59.946791227714485,
C:\Users\subject\Desktop\SVRT Experiments\SVRT Experiment 3\svrt_images\generated_images\results_problem_2,,C:\Users\subject\Desktop\SVRT Experiments\SVRT Experiment 3\svrt_images\generated_images\results_problem_4\sample_1_0005.png,,,,C:\Users\subject\Desktop\SVRT Experiments\SVRT Experiment 3\svrt_images\generated_images\results_problem_2\sample_1_0009.png,,,,,,,,,,,,,,,,,,0,5,5,5,0,4,4,4,,,,,,,,,,,,,,f,2,A,A,20,1,Correct!,0.5516324000200257,1439.915707499953,None,1439.915707499953,None,1440.4994969000109,None,,,,,79,001,2023-05-23_13h03.13.797,uncolored_shuffled,2021.2.3,59.946791227714485,
C:\Users\subject\Desktop\SVRT Experiments\SVRT Experiment 3\svrt_images\generated_images\results_problem_2,,C:\Users\subject\Desktop\SVRT Experiments\SVRT Experiment 3\svrt_images\generated_images\results_problem_4\sample_1_0005.png,,,,C:\Users\subject\Desktop\SVRT Experiments\SVRT Experiment 3\svrt_images\generated_images\results_problem_2\sample_1_0015.png,,,,,,,,,,,,,,,,,,0,5,5,5,0,5,5,5,,,,,,,,,,,,,,j,2,B,A,20,0,Incorrect!,0.5657372999703512,1441.5336246999213,None,1441.5336246999213,None,1442.1173808999592,None,,,,,79,001,2023-05-23_13h03.13.797,uncolored_shuffled,2021.2.3,59.946791227714485,
C:\Users\subject\Desktop\SVRT Experiments\SVRT Experiment 3\svrt_images\generated_images\results_problem_2,,C:\Users\subject\Desktop\SVRT Experiments\SVRT Experiment 3\svrt_images\generated_images\results_problem_4\sample_1_0005.png,,,,C:\Users\subject\Desktop\SVRT Experiments\SVRT Experiment 3\svrt_images\generated_images\results_problem_2\sample_1_0016.png,,,,,,,,,,,,,,,,,,0,5,5,5,0,6,6,6,,,,,,,,,,,,,,f,2,A,A,20,1,Correct!,0.3072140000294894,1443.1681940999115,None,1443.1681940999115,None,1443.5017816999462,None,,,,,79,001,2023-05-23_13h03.13.797,uncolored_shuffled,2021.2.3,59.946791227714485,
C:\Users\subject\Desktop\SVRT Experiments\SVRT Experiment 3\svrt_images\generated_images\results_problem_2,,C:\Users\subject\Desktop\SVRT Experiments\SVRT Experiment 3\svrt_images\generated_images\results_problem_4\sample_1_0005.png,,,,C:\Users\subject\Desktop\SVRT Experiments\SVRT Experiment 3\svrt_images\generated_images\results_problem_2\sample_0_0004.png,,,,,,,,,,,,,,,,,,0,5,5,5,0,7,7,7,,,,,,,,,,,,,,f,2,A,B,20,0,Incorrect!,4.186813800013624,1444.5525758999866,None,1444.5525758999866,None,1448.7724263999844,None,,,,,79,001,2023-05-23_13h03.13.797,uncolored_shuffled,2021.2.3,59.946791227714485,
C:\Users\subject\Desktop\SVRT Experiments\SVRT Experiment 3\svrt_images\generated_images\results_problem_2,,C:\Users\subject\Desktop\SVRT Experiments\SVRT Experiment 3\svrt_images\generated_images\results_problem_4\sample_1_0005.png,,,,C:\Users\subject\Desktop\SVRT Experiments\SVRT Experiment 3\svrt_images\generated_images\results_problem_2\sample_1_0005.png,,,,,,,,,,,,,,,,,,0,5,5,5,0,8,8,8,,,,,,,,,,,,,,j,2,B,A,20,0,Incorrect!,0.6435174999060109,1449.8398831000086,None,1449.8398831000086,None,1450.507118599955,None,,,,,79,001,2023-05-23_13h03.13.797,uncolored_shuffled,2021.2.3,59.946791227714485,
C:\Users\subject\Desktop\SVRT Experiments\SVRT Experiment 3\svrt_images\generated_images\results_problem_2,,C:\Users\subject\Desktop\SVRT Experiments\SVRT Experiment 3\svrt_images\generated_images\results_problem_4\sample_1_0005.png,,,,C:\Users\subject\Desktop\SVRT Experiments\SVRT Experiment 3\svrt_images\generated_images\results_problem_2\sample_1_0000.png,,,,,,,,,,,,,,,,,,0,5,5,5,0,9,9,9,,,,,,,,,,,,,,j,2,B,A,20,0,Incorrect!,0.22080990008544177,1451.5745353999082,None,1451.5745353999082,None,1451.8247029999038,None,,,,,79,001,2023-05-23_13h03.13.797,uncolored_shuffled,2021.2.3,59.946791227714485,
C:\Users\subject\Desktop\SVRT Experiments\SVRT Experiment 3\svrt_images\generated_images\results_problem_2,,C:\Users\subject\Desktop\SVRT Experiments\SVRT Experiment 3\svrt_images\generated_images\results_problem_4\sample_1_0005.png,,,,C:\Users\subject\Desktop\SVRT Experiments\SVRT Experiment 3\svrt_images\generated_images\results_problem_2\sample_1_0003.png,,,,,,,,,,,,,,,,,,0,5,5,5,0,10,10,10,,,,,,,,,,,,,,j,2,B,A,20,0,Incorrect!,0.4383602000307292,1452.9088553999318,None,1452.9088553999318,None,1453.3758876000065,None,,,,,79,001,2023-05-23_13h03.13.797,uncolored_shuffled,2021.2.3,59.946791227714485,
C:\Users\subject\Desktop\SVRT Experiments\SVRT Experiment 3\svrt_images\generated_images\results_problem_2,,C:\Users\subject\Desktop\SVRT Experiments\SVRT Experiment 3\svrt_images\generated_images\results_problem_4\sample_1_0005.png,,,,C:\Users\subject\Desktop\SVRT Experiments\SVRT Experiment 3\svrt_images\generated_images\results_problem_2\sample_0_0006.png,,,,,,,,,,,,,,,,,,0,5,5,5,0,11,11,11,,,,,,,,,,,,,,f,2,A,B,20,0,Incorrect!,0.4625404999824241,1454.4767301999964,None,1454.4767301999964,None,1454.9604318999918,None,,,,,79,001,2023-05-23_13h03.13.797,uncolored_shuffled,2021.2.3,59.946791227714485,
C:\Users\subject\Desktop\SVRT Experiments\SVRT Experiment 3\svrt_images\generated_images\results_problem_2,,C:\Users\subject\Desktop\SVRT Experiments\SVRT Experiment 3\svrt_images\generated_images\results_problem_4\sample_1_0005.png,,,,C:\Users\subject\Desktop\SVRT Experiments\SVRT Experiment 3\svrt_images\generated_images\results_problem_2\sample_0_0002.png,,,,,,,,,,,,,,,,,,0,5,5,5,0,12,12,12,,,,,,,,,,,,,,f,2,A,B,20,0,Incorrect!,0.3180099999299273,1456.0612414999632,None,1456.0612414999632,None,1456.4115022999467,None,,,,,79,001,2023-05-23_13h03.13.797,uncolored_shuffled,2021.2.3,59.946791227714485,
C:\Users\subject\Desktop\SVRT Experiments\SVRT Experiment 3\svrt_images\generated_images\results_problem_2,,C:\Users\subject\Desktop\SVRT Experiments\SVRT Experiment 3\svrt_images\generated_images\results_problem_4\sample_1_0005.png,,,,C:\Users\subject\Desktop\SVRT Experiments\SVRT Experiment 3\svrt_images\generated_images\results_problem_2\sample_0_0008.png,,,,,,,,,,,,,,,,,,0,5,5,5,0,13,13,13,,,,,,,,,,,,,,j,2,B,B,20,1,Correct!,0.10625189996790141,1457.52902919997,None,1457.52902919997,None,1457.6624560999917,None,,,,,79,001,2023-05-23_13h03.13.797,uncolored_shuffled,2021.2.3,59.946791227714485,
C:\Users\subject\Desktop\SVRT Experiments\SVRT Experiment 3\svrt_images\generated_images\results_problem_2,,C:\Users\subject\Desktop\SVRT Experiments\SVRT Experiment 3\svrt_images\generated_images\results_problem_4\sample_1_0005.png,,,,C:\Users\subject\Desktop\SVRT Experiments\SVRT Experiment 3\svrt_images\generated_images\results_problem_2\sample_1_0014.png,,,,,,,,,,,,,,,,,,0,5,5,5,0,14,14,14,,,,,,,,,,,,,,f,2,A,A,20,1,Correct!,1.8872830999316648,1458.779939299915,None,1458.779939299915,None,1460.6980712999357,None,,,,,79,001,2023-05-23_13h03.13.797,uncolored_shuffled,2021.2.3,59.946791227714485,
C:\Users\subject\Desktop\SVRT Experiments\SVRT Experiment 3\svrt_images\generated_images\results_problem_2,,C:\Users\subject\Desktop\SVRT Experiments\SVRT Experiment 3\svrt_images\generated_images\results_problem_4\sample_1_0005.png,,,,C:\Users\subject\Desktop\SVRT Experiments\SVRT Experiment 3\svrt_images\generated_images\results_problem_2\sample_0_0009.png,,,,,,,,,,,,,,,,,,0,5,5,5,0,15,15,15,,,,,,,,,,,,,,j,2,B,B,20,1,Correct!,0.7469036000547931,1461.832273399923,None,1461.832273399923,None,1462.616160799982,None,,,,,79,001,2023-05-23_13h03.13.797,uncolored_shuffled,2021.2.3,59.946791227714485,
C:\Users\subject\Desktop\SVRT Experiments\SVRT Experiment 3\svrt_images\generated_images\results_problem_2,,C:\Users\subject\Desktop\SVRT Experiments\SVRT Experiment 3\svrt_images\generated_images\results_problem_4\sample_1_0005.png,,,,C:\Users\subject\Desktop\SVRT Experiments\SVRT Experiment 3\svrt_images\generated_images\results_problem_2\sample_0_0010.png,,,,,,,,,,,,,,,,,,0,5,5,5,0,16,16,16,,,,,,,,,,,,,,f,2,A,B,20,0,Incorrect!,0.5321825999999419,1463.7670345999068,None,1463.7670345999068,None,1464.3174844000023,None,,,,,79,001,2023-05-23_13h03.13.797,uncolored_shuffled,2021.2.3,59.946791227714485,
C:\Users\subject\Desktop\SVRT Experiments\SVRT Experiment 3\svrt_images\generated_images\results_problem_2,,C:\Users\subject\Desktop\SVRT Experiments\SVRT Experiment 3\svrt_images\generated_images\results_problem_4\sample_1_0005.png,,,,C:\Users\subject\Desktop\SVRT Experiments\SVRT Experiment 3\svrt_images\generated_images\results_problem_2\sample_0_0000.png,,,,,,,,,,,,,,,,,,0,5,5,5,0,17,17,17,,,,,,,,,,,,,,j,2,B,B,20,1,Correct!,0.42285410000476986,1465.4682970999274,None,1465.4682970999274,None,1465.918681500014,None,,,,,79,001,2023-05-23_13h03.13.797,uncolored_shuffled,2021.2.3,59.946791227714485,
C:\Users\subject\Desktop\SVRT Experiments\SVRT Experiment 3\svrt_images\generated_images\results_problem_2,,C:\Users\subject\Desktop\SVRT Experiments\SVRT Experiment 3\svrt_images\generated_images\results_problem_4\sample_1_0005.png,,,,C:\Users\subject\Desktop\SVRT Experiments\SVRT Experiment 3\svrt_images\generated_images\results_problem_2\sample_1_0011.png,,,,,,,,,,,,,,,,,,0,5,5,5,0,18,18,18,,,,,,,,,,,,,,j,2,B,A,20,0,Incorrect!,0.3322236000094563,1467.1029178999597,None,1467.1029178999597,None,1467.4531359999673,None,,,,,79,001,2023-05-23_13h03.13.797,uncolored_shuffled,2021.2.3,59.946791227714485,
C:\Users\subject\Desktop\SVRT Experiments\SVRT Experiment 3\svrt_images\generated_images\results_problem_2,,C:\Users\subject\Desktop\SVRT Experiments\SVRT Experiment 3\svrt_images\generated_images\results_problem_4\sample_1_0005.png,,,,C:\Users\subject\Desktop\SVRT Experiments\SVRT Experiment 3\svrt_images\generated_images\results_problem_2\sample_0_0005.png,,,,,,,,,,,,,,,,,,0,5,5,5,0,19,19,19,,,,,,,,,,,,,,f,2,A,B,20,0,Incorrect!,0.2457297999644652,1468.6373796999687,None,1468.6373796999687,None,1468.9209081999725,None,,,,,79,001,2023-05-23_13h03.13.797,uncolored_shuffled,2021.2.3,59.946791227714485,
C:\Users\subject\Desktop\SVRT Experiments\SVRT Experiment 3\svrt_images\generated_images\results_problem_2,,C:\Users\subject\Desktop\SVRT Experiments\SVRT Experiment 3\svrt_images\generated_images\results_problem_4\sample_1_0005.png,,,,C:\Users\subject\Desktop\SVRT Experiments\SVRT Experiment 3\svrt_images\generated_images\results_problem_2\sample_1_0007.png,,,,,,,,,,,,,,,,,,0,5,5,5,0,20,20,20,,,,,,,,,,,,,,j,2,B,A,20,0,Incorrect!,0.6900256000226364,1470.1051716000075,None,1470.1051716000075,None,1470.8223331999034,None,,,,,79,001,2023-05-23_13h03.13.797,uncolored_shuffled,2021.2.3,59.946791227714485,
C:\Users\subject\Desktop\SVRT Experiments\SVRT Experiment 3\svrt_images\generated_images\results_problem_2,,C:\Users\subject\Desktop\SVRT Experiments\SVRT Experiment 3\svrt_images\generated_images\results_problem_4\sample_1_0005.png,,,,C:\Users\subject\Desktop\SVRT Experiments\SVRT Experiment 3\svrt_images\generated_images\results_problem_2\sample_0_0003.png,,,,,,,,,,,,,,,,,,0,5,5,5,0,21,21,21,,,,,,,,,,,,,,f,2,A,B,20,0,Incorrect!,0.27594219997990876,1472.023293599952,None,1472.023293599952,None,1472.3235025999602,None,,,,,79,001,2023-05-23_13h03.13.797,uncolored_shuffled,2021.2.3,59.946791227714485,
C:\Users\subject\Desktop\SVRT Experiments\SVRT Experiment 3\svrt_images\generated_images\results_problem_2,,C:\Users\subject\Desktop\SVRT Experiments\SVRT Experiment 3\svrt_images\generated_images\results_problem_4\sample_1_0005.png,,,,C:\Users\subject\Desktop\SVRT Experiments\SVRT Experiment 3\svrt_images\generated_images\results_problem_2\sample_1_0013.png,,,,,,,,,,,,,,,,,,0,5,5,5,0,22,22,22,,,,,,,,,,,,,,j,2,B,A,20,0,Incorrect!,0.26133050001226366,1473.557774099987,None,1473.557774099987,None,1473.8580092999619,None,,,,,79,001,2023-05-23_13h03.13.797,uncolored_shuffled,2021.2.3,59.946791227714485,
C:\Users\subject\Desktop\SVRT Experiments\SVRT Experiment 3\svrt_images\generated_images\results_problem_2,,C:\Users\subject\Desktop\SVRT Experiments\SVRT Experiment 3\svrt_images\generated_images\results_problem_4\sample_1_0005.png,,,,C:\Users\subject\Desktop\SVRT Experiments\SVRT Experiment 3\svrt_images\generated_images\results_problem_2\sample_1_0008.png,,,,,,,,,,,,,,,,,,0,5,5,5,0,23,23,23,,,,,,,,,,,,,,f,2,A,A,20,1,Correct!,1.5115013000322506,1475.0755885000108,None,1475.0755885000108,None,1476.6267475999193,None,,,,,79,001,2023-05-23_13h03.13.797,uncolored_shuffled,2021.2.3,59.946791227714485,
