folder,results_problem_7,results_problem_13,results_problem_10,results_problem_14,results_problem_23,results_problem_17,results_problem_22,results_problem_11,results_problem_2,results_problem_15,results_problem_18,results_problem_8,results_problem_5,results_problem_19,results_problem_16,results_problem_21,results_problem_12,results_problem_20,results_problem_1,results_problem_9,results_problem_3,results_problem_6,results_problem_4,categories.thisRepN,categories.thisTrialN,categories.thisN,categories.thisIndex,trials.thisRepN,trials.thisTrialN,trials.thisN,trials.thisIndex,consent_text.started,consent_kb.started,consent_kb.keys,consent_kb.rt,Gender.keys,Gender.rt,Age,instructions_text.started,instructions_text.stopped,instructions_kb.keys,instructions_kb.rt,instructions_kb.started,instructions_kb.stopped,trial_kb.keys,current_problem_num,category_resp,answer,seed,accuracy,feedback,trial_kb.rt,trial_kb.started,trial_kb.stopped,trial_image.started,trial_image.stopped,feedback_text.started,feedback_text.stopped,new_problem_kb.started,new_problem_text.started,new_problem_kb.keys,new_problem_kb.rt,Participant #,session,date,expName,psychopyVersion,frameRate,
,,,,,,,,,,,,,,,,,,,,,,,,,,,,,,,,15.46622549998574,15.46622549998574,y,468.6390941001009,,,,,,,,,,,,,,,,,,,,,,,,,,,,88,001,2023-05-30_12h52.38.514,uncolored_sorted,2021.2.3,59.939030001008035,
,,,,,,,,,,,,,,,,,,,,,,,,,,,,,,,,,,,,w,12.491053799865767,,,,,,,,,,,,,,,,,,,,,,,,,,88,001,2023-05-30_12h52.38.514,uncolored_sorted,2021.2.3,59.939030001008035,
,,,,,,,,,,,,,,,,,,,,,,,,,,,,,,,,,,,,,,19,506.9180542000104,None,space,20.74690919998102,506.9180542000104,None,,,,,,,,,,,,,,,,,,,88,001,2023-05-30_12h52.38.514,uncolored_sorted,2021.2.3,59.939030001008035,
C:\Users\subject\Desktop\SVRT Experiments\SVRT Experiment 3\svrt_images\generated_images\results_problem_7,C:\Users\subject\Desktop\SVRT Experiments\SVRT Experiment 3\svrt_images\generated_images\results_problem_7\sample_0_0008.png,,,,,,,,,,,,,,,,,,,,,,,0,0,0,0,0,0,0,0,,,,,,,,,,,,,,f,7,A,B,22,0,Incorrect!,15.333220400149003,527.6836941998918,None,527.6836941998918,None,543.0452916000504,None,,,,,88,001,2023-05-30_12h52.38.514,uncolored_sorted,2021.2.3,59.939030001008035,
C:\Users\subject\Desktop\SVRT Experiments\SVRT Experiment 3\svrt_images\generated_images\results_problem_7,C:\Users\subject\Desktop\SVRT Experiments\SVRT Experiment 3\svrt_images\generated_images\results_problem_7\sample_1_0013.png,,,,,,,,,,,,,,,,,,,,,,,0,0,0,0,0,1,1,1,,,,,,,,,,,,,,j,7,B,A,22,0,Incorrect!,3.9148472000379115,544.0460483999923,None,544.0460483999923,None,547.9823498998303,None,,,,,88,001,2023-05-30_12h52.38.514,uncolored_sorted,2021.2.3,59.939030001008035,
C:\Users\subject\Desktop\SVRT Experiments\SVRT Experiment 3\svrt_images\generated_images\results_problem_7,C:\Users\subject\Desktop\SVRT Experiments\SVRT Experiment 3\svrt_images\generated_images\results_problem_7\sample_1_0016.png,,,,,,,,,,,,,,,,,,,,,,,0,0,0,0,0,2,2,2,,,,,,,,,,,,,,f,7,A,A,22,1,Correct!,4.48901559994556,548.9997870998923,None,548.9997870998923,None,553.5198520999402,None,,,,,88,001,2023-05-30_12h52.38.514,uncolored_sorted,2021.2.3,59.939030001008035,
C:\Users\subject\Desktop\SVRT Experiments\SVRT Experiment 3\svrt_images\generated_images\results_problem_7,C:\Users\subject\Desktop\SVRT Experiments\SVRT Experiment 3\svrt_images\generated_images\results_problem_7\sample_0_0012.png,,,,,,,,,,,,,,,,,,,,,,,0,0,0,0,0,3,3,3,,,,,,,,,,,,,,j,7,B,B,22,1,Correct!,1.6395264000166208,554.5372692998499,None,554.5372692998499,None,556.2051941999234,None,,,,,88,001,2023-05-30_12h52.38.514,uncolored_sorted,2021.2.3,59.939030001008035,
C:\Users\subject\Desktop\SVRT Experiments\SVRT Experiment 3\svrt_images\generated_images\results_problem_7,C:\Users\subject\Desktop\SVRT Experiments\SVRT Experiment 3\svrt_images\generated_images\results_problem_7\sample_0_0010.png,,,,,,,,,,,,,,,,,,,,,,,0,0,0,0,0,4,4,4,,,,,,,,,,,,,,f,7,A,B,22,0,Incorrect!,1.1615096000023186,557.2392908998299,None,557.2392908998299,None,558.4236159999855,None,,,,,88,001,2023-05-30_12h52.38.514,uncolored_sorted,2021.2.3,59.939030001008035,
C:\Users\subject\Desktop\SVRT Experiments\SVRT Experiment 3\svrt_images\generated_images\results_problem_7,C:\Users\subject\Desktop\SVRT Experiments\SVRT Experiment 3\svrt_images\generated_images\results_problem_7\sample_1_0011.png,,,,,,,,,,,,,,,,,,,,,,,0,0,0,0,0,5,5,5,,,,,,,,,,,,,,f,7,A,A,22,1,Correct!,1.7911926999222487,559.4576246000361,None,559.4576246000361,None,561.2756834998727,None,,,,,88,001,2023-05-30_12h52.38.514,uncolored_sorted,2021.2.3,59.939030001008035,
C:\Users\subject\Desktop\SVRT Experiments\SVRT Experiment 3\svrt_images\generated_images\results_problem_7,C:\Users\subject\Desktop\SVRT Experiments\SVRT Experiment 3\svrt_images\generated_images\results_problem_7\sample_1_0012.png,,,,,,,,,,,,,,,,,,,,,,,0,0,0,0,0,6,6,6,,,,,,,,,,,,,,j,7,B,A,22,0,Incorrect!,5.77022169996053,562.3264784000348,None,562.3264784000348,None,568.1141738998704,None,,,,,88,001,2023-05-30_12h52.38.514,uncolored_sorted,2021.2.3,59.939030001008035,
C:\Users\subject\Desktop\SVRT Experiments\SVRT Experiment 3\svrt_images\generated_images\results_problem_7,C:\Users\subject\Desktop\SVRT Experiments\SVRT Experiment 3\svrt_images\generated_images\results_problem_7\sample_0_0013.png,,,,,,,,,,,,,,,,,,,,,,,0,0,0,0,0,7,7,7,,,,,,,,,,,,,,j,7,B,B,22,1,Correct!,2.0037176001351327,569.1649698999245,None,569.1649698999245,None,571.1998515999876,None,,,,,88,001,2023-05-30_12h52.38.514,uncolored_sorted,2021.2.3,59.939030001008035,
C:\Users\subject\Desktop\SVRT Experiments\SVRT Experiment 3\svrt_images\generated_images\results_problem_7,C:\Users\subject\Desktop\SVRT Experiments\SVRT Experiment 3\svrt_images\generated_images\results_problem_7\sample_1_0014.png,,,,,,,,,,,,,,,,,,,,,,,0,0,0,0,0,8,8,8,,,,,,,,,,,,,,f,7,A,A,22,1,Correct!,1.341348099987954,572.2673116000369,None,572.2673116000369,None,573.63500140002,None,,,,,88,001,2023-05-30_12h52.38.514,uncolored_sorted,2021.2.3,59.939030001008035,
C:\Users\subject\Desktop\SVRT Experiments\SVRT Experiment 3\svrt_images\generated_images\results_problem_7,C:\Users\subject\Desktop\SVRT Experiments\SVRT Experiment 3\svrt_images\generated_images\results_problem_7\sample_0_0006.png,,,,,,,,,,,,,,,,,,,,,,,0,0,0,0,0,9,9,9,,,,,,,,,,,,,,j,7,B,B,22,1,Correct!,1.2742414001841098,574.7024991998915,None,574.7024991998915,None,576.0034771000501,None,,,,,88,001,2023-05-30_12h52.38.514,uncolored_sorted,2021.2.3,59.939030001008035,
C:\Users\subject\Desktop\SVRT Experiments\SVRT Experiment 3\svrt_images\generated_images\results_problem_7,C:\Users\subject\Desktop\SVRT Experiments\SVRT Experiment 3\svrt_images\generated_images\results_problem_7\sample_1_0003.png,,,,,,,,,,,,,,,,,,,,,,,0,0,0,0,0,10,10,10,,,,,,,,,,,,,,f,7,A,A,22,1,Correct!,2.232996500097215,577.0876289999578,None,577.0876289999578,None,579.3393951999024,None,,,,,88,001,2023-05-30_12h52.38.514,uncolored_sorted,2021.2.3,59.939030001008035,
C:\Users\subject\Desktop\SVRT Experiments\SVRT Experiment 3\svrt_images\generated_images\results_problem_7,C:\Users\subject\Desktop\SVRT Experiments\SVRT Experiment 3\svrt_images\generated_images\results_problem_7\sample_1_0015.png,,,,,,,,,,,,,,,,,,,,,,,0,0,0,0,0,11,11,11,,,,,,,,,,,,,,j,7,B,A,22,0,Incorrect!,1.0811515001114458,580.4234578998294,None,580.4234578998294,None,581.5242902999744,None,,,,,88,001,2023-05-30_12h52.38.514,uncolored_sorted,2021.2.3,59.939030001008035,
C:\Users\subject\Desktop\SVRT Experiments\SVRT Experiment 3\svrt_images\generated_images\results_problem_7,C:\Users\subject\Desktop\SVRT Experiments\SVRT Experiment 3\svrt_images\generated_images\results_problem_7\sample_0_0002.png,,,,,,,,,,,,,,,,,,,,,,,0,0,0,0,0,12,12,12,,,,,,,,,,,,,,j,7,B,B,22,1,Correct!,1.0874462001957,582.6251417999156,None,582.6251417999156,None,583.7426403998397,None,,,,,88,001,2023-05-30_12h52.38.514,uncolored_sorted,2021.2.3,59.939030001008035,
C:\Users\subject\Desktop\SVRT Experiments\SVRT Experiment 3\svrt_images\generated_images\results_problem_7,C:\Users\subject\Desktop\SVRT Experiments\SVRT Experiment 3\svrt_images\generated_images\results_problem_7\sample_0_0000.png,,,,,,,,,,,,,,,,,,,,,,,0,0,0,0,0,13,13,13,,,,,,,,,,,,,,j,7,B,B,22,1,Correct!,1.021163399796933,584.843450400047,None,584.843450400047,None,585.8942575999536,None,,,,,88,001,2023-05-30_12h52.38.514,uncolored_sorted,2021.2.3,59.939030001008035,
C:\Users\subject\Desktop\SVRT Experiments\SVRT Experiment 3\svrt_images\generated_images\results_problem_7,C:\Users\subject\Desktop\SVRT Experiments\SVRT Experiment 3\svrt_images\generated_images\results_problem_7\sample_1_0007.png,,,,,,,,,,,,,,,,,,,,,,,0,0,0,0,0,14,14,14,,,,,,,,,,,,,,f,7,A,A,22,1,Correct!,1.2928538999985904,587.0117629999295,None,587.0117629999295,None,588.3294319000561,None,,,,,88,001,2023-05-30_12h52.38.514,uncolored_sorted,2021.2.3,59.939030001008035,
C:\Users\subject\Desktop\SVRT Experiments\SVRT Experiment 3\svrt_images\generated_images\results_problem_7,C:\Users\subject\Desktop\SVRT Experiments\SVRT Experiment 3\svrt_images\generated_images\results_problem_7\sample_1_0008.png,,,,,,,,,,,,,,,,,,,,,,,0,0,0,0,0,15,15,15,,,,,,,,,,,,,,j,7,B,A,22,0,Incorrect!,0.9288910999894142,589.4636663000565,None,589.4636663000565,None,590.4143451999407,None,,,,,88,001,2023-05-30_12h52.38.514,uncolored_sorted,2021.2.3,59.939030001008035,
C:\Users\subject\Desktop\SVRT Experiments\SVRT Experiment 3\svrt_images\generated_images\results_problem_7,C:\Users\subject\Desktop\SVRT Experiments\SVRT Experiment 3\svrt_images\generated_images\results_problem_7\sample_0_0005.png,,,,,,,,,,,,,,,,,,,,,,,0,0,0,0,0,16,16,16,,,,,,,,,,,,,,f,7,A,B,22,0,Incorrect!,2.2040025000460446,591.5485179000534,None,591.5485179000534,None,593.7835504999384,None,,,,,88,001,2023-05-30_12h52.38.514,uncolored_sorted,2021.2.3,59.939030001008035,
C:\Users\subject\Desktop\SVRT Experiments\SVRT Experiment 3\svrt_images\generated_images\results_problem_7,C:\Users\subject\Desktop\SVRT Experiments\SVRT Experiment 3\svrt_images\generated_images\results_problem_7\sample_0_0016.png,,,,,,,,,,,,,,,,,,,,,,,0,0,0,0,0,17,17,17,,,,,,,,,,,,,,j,7,B,B,22,1,Correct!,2.8021426999475807,594.9343977000099,None,594.9343977000099,None,597.7865595999174,None,,,,,88,001,2023-05-30_12h52.38.514,uncolored_sorted,2021.2.3,59.939030001008035,
C:\Users\subject\Desktop\SVRT Experiments\SVRT Experiment 3\svrt_images\generated_images\results_problem_7,C:\Users\subject\Desktop\SVRT Experiments\SVRT Experiment 3\svrt_images\generated_images\results_problem_7\sample_0_0015.png,,,,,,,,,,,,,,,,,,,,,,,0,0,0,0,0,18,18,18,,,,,,,,,,,,,,j,7,B,B,22,1,Correct!,1.1823676000349224,598.954118499998,None,598.954118499998,None,600.1716676999349,None,,,,,88,001,2023-05-30_12h52.38.514,uncolored_sorted,2021.2.3,59.939030001008035,
C:\Users\subject\Desktop\SVRT Experiments\SVRT Experiment 3\svrt_images\generated_images\results_problem_7,C:\Users\subject\Desktop\SVRT Experiments\SVRT Experiment 3\svrt_images\generated_images\results_problem_7\sample_1_0002.png,,,,,,,,,,,,,,,,,,,,,,,0,0,0,0,0,19,19,19,,,,,,,,,,,,,,f,7,A,A,22,1,Correct!,1.053216899977997,601.3392385998741,None,601.3392385998741,None,602.4233903998975,None,,,,,88,001,2023-05-30_12h52.38.514,uncolored_sorted,2021.2.3,59.939030001008035,
C:\Users\subject\Desktop\SVRT Experiments\SVRT Experiment 3\svrt_images\generated_images\results_problem_7,C:\Users\subject\Desktop\SVRT Experiments\SVRT Experiment 3\svrt_images\generated_images\results_problem_7\sample_1_0010.png,,,,,,,,,,,,,,,,,,,,,,,0,0,0,0,0,20,20,20,,,,,,,,,,,,,,f,7,A,A,22,1,Correct!,0.8808361999690533,603.6076189999003,None,603.6076189999003,None,604.5249738998245,None,,,,,88,001,2023-05-30_12h52.38.514,uncolored_sorted,2021.2.3,59.939030001008035,
C:\Users\subject\Desktop\SVRT Experiments\SVRT Experiment 3\svrt_images\generated_images\results_problem_7,C:\Users\subject\Desktop\SVRT Experiments\SVRT Experiment 3\svrt_images\generated_images\results_problem_7\sample_1_0001.png,,,,,,,,,,,,,,,,,,,,,,,0,0,0,0,0,21,21,21,,,,,,,,,,,,,,j,7,B,A,22,0,Incorrect!,1.683229000074789,605.7091848999262,None,605.7091848999262,None,607.4271461998578,None,,,,,88,001,2023-05-30_12h52.38.514,uncolored_sorted,2021.2.3,59.939030001008035,
C:\Users\subject\Desktop\SVRT Experiments\SVRT Experiment 3\svrt_images\generated_images\results_problem_7,C:\Users\subject\Desktop\SVRT Experiments\SVRT Experiment 3\svrt_images\generated_images\results_problem_7\sample_0_0011.png,,,,,,,,,,,,,,,,,,,,,,,0,0,0,0,0,22,22,22,,,,,,,,,,,,,,j,7,B,B,22,1,Correct!,1.0283371999394149,608.6280787000433,None,608.6280787000433,None,609.6788635000121,None,,,,,88,001,2023-05-30_12h52.38.514,uncolored_sorted,2021.2.3,59.939030001008035,
C:\Users\subject\Desktop\SVRT Experiments\SVRT Experiment 3\svrt_images\generated_images\results_problem_7,C:\Users\subject\Desktop\SVRT Experiments\SVRT Experiment 3\svrt_images\generated_images\results_problem_7\sample_1_0000.png,,,,,,,,,,,,,,,,,,,,,,,0,0,0,0,0,23,23,23,,,,,,,,,,,,,,f,7,A,A,22,1,Correct!,2.4399434998631477,610.8964321999811,None,610.8964321999811,None,613.3816281999461,None,,,,,88,001,2023-05-30_12h52.38.514,uncolored_sorted,2021.2.3,59.939030001008035,
C:\Users\subject\Desktop\SVRT Experiments\SVRT Experiment 3\svrt_images\generated_images\results_problem_7,C:\Users\subject\Desktop\SVRT Experiments\SVRT Experiment 3\svrt_images\generated_images\results_problem_7\sample_0_0001.png,,,,,,,,,,,,,,,,,,,,,,,0,0,0,0,0,24,24,24,,,,,,,,,,,,,,f,7,A,B,22,0,Incorrect!,0.5284643999766558,614.6159226000309,None,614.6159226000309,None,615.1663022998255,None,,,,,88,001,2023-05-30_12h52.38.514,uncolored_sorted,2021.2.3,59.939030001008035,
C:\Users\subject\Desktop\SVRT Experiments\SVRT Experiment 3\svrt_images\generated_images\results_problem_7,C:\Users\subject\Desktop\SVRT Experiments\SVRT Experiment 3\svrt_images\generated_images\results_problem_7\sample_1_0005.png,,,,,,,,,,,,,,,,,,,,,,,0,0,0,0,0,25,25,25,,,,,,,,,,,,,,j,7,B,A,22,0,Incorrect!,7.831801600055769,616.4006141999271,None,616.4006141999271,None,624.273197799921,None,,,,,88,001,2023-05-30_12h52.38.514,uncolored_sorted,2021.2.3,59.939030001008035,
C:\Users\subject\Desktop\SVRT Experiments\SVRT Experiment 3\svrt_images\generated_images\results_problem_7,C:\Users\subject\Desktop\SVRT Experiments\SVRT Experiment 3\svrt_images\generated_images\results_problem_7\sample_0_0004.png,,,,,,,,,,,,,,,,,,,,,,,0,0,0,0,0,26,26,26,,,,,,,,,,,,,,j,7,B,B,22,1,Correct!,1.332167699933052,625.5241288000252,None,625.5241288000252,None,626.8751602000557,None,,,,,88,001,2023-05-30_12h52.38.514,uncolored_sorted,2021.2.3,59.939030001008035,
C:\Users\subject\Desktop\SVRT Experiments\SVRT Experiment 3\svrt_images\generated_images\results_problem_7,C:\Users\subject\Desktop\SVRT Experiments\SVRT Experiment 3\svrt_images\generated_images\results_problem_7\sample_1_0004.png,,,,,,,,,,,,,,,,,,,,,,,0,0,0,0,0,27,27,27,,,,,,,,,,,,,,f,7,A,A,22,1,Correct!,2.2254606999922544,628.1427873000503,None,628.1427873000503,None,630.4111381999683,None,,,,,88,001,2023-05-30_12h52.38.514,uncolored_sorted,2021.2.3,59.939030001008035,
C:\Users\subject\Desktop\SVRT Experiments\SVRT Experiment 3\svrt_images\generated_images\results_problem_7,C:\Users\subject\Desktop\SVRT Experiments\SVRT Experiment 3\svrt_images\generated_images\results_problem_7\sample_0_0003.png,,,,,,,,,,,,,,,,,,,,,,,0,0,0,0,0,28,28,28,,,,,,,,,,,,,,f,7,A,B,22,0,Incorrect!,4.50543349981308,631.6787759000435,None,631.6787759000435,None,636.2488724000286,None,,,,,88,001,2023-05-30_12h52.38.514,uncolored_sorted,2021.2.3,59.939030001008035,
C:\Users\subject\Desktop\SVRT Experiments\SVRT Experiment 3\svrt_images\generated_images\results_problem_7,C:\Users\subject\Desktop\SVRT Experiments\SVRT Experiment 3\svrt_images\generated_images\results_problem_7\sample_1_0006.png,,,,,,,,,,,,,,,,,,,,,,,0,0,0,0,0,29,29,29,,,,,,,,,,,,,,f,7,A,A,22,1,Correct!,2.131000699941069,637.533184699947,None,637.533184699947,None,639.7014951999299,None,,,,,88,001,2023-05-30_12h52.38.514,uncolored_sorted,2021.2.3,59.939030001008035,
C:\Users\subject\Desktop\SVRT Experiments\SVRT Experiment 3\svrt_images\generated_images\results_problem_7,C:\Users\subject\Desktop\SVRT Experiments\SVRT Experiment 3\svrt_images\generated_images\results_problem_7\sample_1_0009.png,,,,,,,,,,,,,,,,,,,,,,,0,0,0,0,0,30,30,30,,,,,,,,,,,,,,f,7,A,A,22,1,Correct!,4.094354700064287,640.9858061999548,None,640.9858061999548,None,645.1222504999023,None,,,,,88,001,2023-05-30_12h52.38.514,uncolored_sorted,2021.2.3,59.939030001008035,
C:\Users\subject\Desktop\SVRT Experiments\SVRT Experiment 3\svrt_images\generated_images\results_problem_7,C:\Users\subject\Desktop\SVRT Experiments\SVRT Experiment 3\svrt_images\generated_images\results_problem_7\sample_0_0009.png,,,,,,,,,,,,,,,,,,,,,,,0,0,0,0,0,31,31,31,,,,,,,,,,,,,,f,7,A,B,22,0,Incorrect!,5.208923900034279,646.4232191999909,None,646.4232191999909,None,651.6771946998779,None,,,,,88,001,2023-05-30_12h52.38.514,uncolored_sorted,2021.2.3,59.939030001008035,
C:\Users\subject\Desktop\SVRT Experiments\SVRT Experiment 3\svrt_images\generated_images\results_problem_7,C:\Users\subject\Desktop\SVRT Experiments\SVRT Experiment 3\svrt_images\generated_images\results_problem_7\sample_0_0007.png,,,,,,,,,,,,,,,,,,,,,,,0,0,0,0,0,32,32,32,,,,,,,,,,,,,,f,7,A,B,22,0,Incorrect!,2.340555500006303,653.0115189000499,None,653.0115189000499,None,655.4300239998847,None,,,,,88,001,2023-05-30_12h52.38.514,uncolored_sorted,2021.2.3,59.939030001008035,
C:\Users\subject\Desktop\SVRT Experiments\SVRT Experiment 3\svrt_images\generated_images\results_problem_7,C:\Users\subject\Desktop\SVRT Experiments\SVRT Experiment 3\svrt_images\generated_images\results_problem_7\sample_0_0014.png,,,,,,,,,,,,,,,,,,,,,,,0,0,0,0,0,33,33,33,,,,,,,,,,,,,,f,7,A,B,22,0,Incorrect!,1.2357117000501603,656.764353999868,None,656.764353999868,None,658.0486463999841,None,,,,,88,001,2023-05-30_12h52.38.514,uncolored_sorted,2021.2.3,59.939030001008035,
C:\Users\subject\Desktop\SVRT Experiments\SVRT Experiment 3\svrt_images\generated_images\results_problem_7,,,,,,,,,,,,,,,,,,,,,,,,0,0,0,0,,,,,,,,,,,,,,,,,,,,,,,,,,,,,,,,659.0494194000494,659.0494194000494,space,2.534715099958703,88,001,2023-05-30_12h52.38.514,uncolored_sorted,2021.2.3,59.939030001008035,
C:\Users\subject\Desktop\SVRT Experiments\SVRT Experiment 3\svrt_images\generated_images\results_problem_13,,C:\Users\subject\Desktop\SVRT Experiments\SVRT Experiment 3\svrt_images\generated_images\results_problem_13\sample_1_0010.png,,,,,,,,,,,,,,,,,,,,,,0,1,1,1,0,0,0,0,,,,,,,,,,,,,,f,13,A,A,22,1,Correct!,3.5986969000659883,661.6013105998281,None,661.6013105998281,None,665.2207351999823,None,,,,,88,001,2023-05-30_12h52.38.514,uncolored_sorted,2021.2.3,59.939030001008035,
C:\Users\subject\Desktop\SVRT Experiments\SVRT Experiment 3\svrt_images\generated_images\results_problem_13,,C:\Users\subject\Desktop\SVRT Experiments\SVRT Experiment 3\svrt_images\generated_images\results_problem_13\sample_0_0004.png,,,,,,,,,,,,,,,,,,,,,,0,1,1,1,0,1,1,1,,,,,,,,,,,,,,j,13,B,B,22,1,Correct!,0.9625417001079768,666.2214577998966,None,666.2214577998966,None,667.2055464999285,None,,,,,88,001,2023-05-30_12h52.38.514,uncolored_sorted,2021.2.3,59.939030001008035,
C:\Users\subject\Desktop\SVRT Experiments\SVRT Experiment 3\svrt_images\generated_images\results_problem_13,,C:\Users\subject\Desktop\SVRT Experiments\SVRT Experiment 3\svrt_images\generated_images\results_problem_13\sample_0_0015.png,,,,,,,,,,,,,,,,,,,,,,0,1,1,1,0,2,2,2,,,,,,,,,,,,,,j,13,B,B,22,1,Correct!,2.6809891001321375,668.2229746000376,None,668.2229746000376,None,670.9250388999935,None,,,,,88,001,2023-05-30_12h52.38.514,uncolored_sorted,2021.2.3,59.939030001008035,
C:\Users\subject\Desktop\SVRT Experiments\SVRT Experiment 3\svrt_images\generated_images\results_problem_13,,C:\Users\subject\Desktop\SVRT Experiments\SVRT Experiment 3\svrt_images\generated_images\results_problem_13\sample_0_0000.png,,,,,,,,,,,,,,,,,,,,,,0,1,1,1,0,3,3,3,,,,,,,,,,,,,,f,13,A,B,22,0,Incorrect!,1.6495932000689209,671.9424395000096,None,671.9424395000096,None,673.6103968999814,None,,,,,88,001,2023-05-30_12h52.38.514,uncolored_sorted,2021.2.3,59.939030001008035,
C:\Users\subject\Desktop\SVRT Experiments\SVRT Experiment 3\svrt_images\generated_images\results_problem_13,,C:\Users\subject\Desktop\SVRT Experiments\SVRT Experiment 3\svrt_images\generated_images\results_problem_13\sample_0_0003.png,,,,,,,,,,,,,,,,,,,,,,0,1,1,1,0,4,4,4,,,,,,,,,,,,,,f,13,A,B,22,0,Incorrect!,1.763415199937299,674.64451919985,None,674.64451919985,None,676.4291691998951,None,,,,,88,001,2023-05-30_12h52.38.514,uncolored_sorted,2021.2.3,59.939030001008035,
C:\Users\subject\Desktop\SVRT Experiments\SVRT Experiment 3\svrt_images\generated_images\results_problem_13,,C:\Users\subject\Desktop\SVRT Experiments\SVRT Experiment 3\svrt_images\generated_images\results_problem_13\sample_1_0002.png,,,,,,,,,,,,,,,,,,,,,,0,1,1,1,0,5,5,5,,,,,,,,,,,,,,j,13,B,A,22,0,Incorrect!,2.0886351000517607,677.4633076000027,None,677.4633076000027,None,679.5815361000132,None,,,,,88,001,2023-05-30_12h52.38.514,uncolored_sorted,2021.2.3,59.939030001008035,
C:\Users\subject\Desktop\SVRT Experiments\SVRT Experiment 3\svrt_images\generated_images\results_problem_13,,C:\Users\subject\Desktop\SVRT Experiments\SVRT Experiment 3\svrt_images\generated_images\results_problem_13\sample_0_0010.png,,,,,,,,,,,,,,,,,,,,,,0,1,1,1,0,6,6,6,,,,,,,,,,,,,,f,13,A,B,22,0,Incorrect!,1.9275173000060022,680.632366299862,None,680.632366299862,None,682.5838116998784,None,,,,,88,001,2023-05-30_12h52.38.514,uncolored_sorted,2021.2.3,59.939030001008035,
C:\Users\subject\Desktop\SVRT Experiments\SVRT Experiment 3\svrt_images\generated_images\results_problem_13,,C:\Users\subject\Desktop\SVRT Experiments\SVRT Experiment 3\svrt_images\generated_images\results_problem_13\sample_1_0014.png,,,,,,,,,,,,,,,,,,,,,,0,1,1,1,0,7,7,7,,,,,,,,,,,,,,j,13,B,A,22,0,Incorrect!,3.3333121000323445,683.6346296998672,None,683.6346296998672,None,686.987150099827,None,,,,,88,001,2023-05-30_12h52.38.514,uncolored_sorted,2021.2.3,59.939030001008035,
C:\Users\subject\Desktop\SVRT Experiments\SVRT Experiment 3\svrt_images\generated_images\results_problem_13,,C:\Users\subject\Desktop\SVRT Experiments\SVRT Experiment 3\svrt_images\generated_images\results_problem_13\sample_1_0003.png,,,,,,,,,,,,,,,,,,,,,,0,1,1,1,0,8,8,8,,,,,,,,,,,,,,j,13,B,A,22,0,Incorrect!,1.689263999927789,688.0546112000011,None,688.0546112000011,None,689.7725948998705,None,,,,,88,001,2023-05-30_12h52.38.514,uncolored_sorted,2021.2.3,59.939030001008035,
C:\Users\subject\Desktop\SVRT Experiments\SVRT Experiment 3\svrt_images\generated_images\results_problem_13,,C:\Users\subject\Desktop\SVRT Experiments\SVRT Experiment 3\svrt_images\generated_images\results_problem_13\sample_1_0011.png,,,,,,,,,,,,,,,,,,,,,,0,1,1,1,0,9,9,9,,,,,,,,,,,,,,f,13,A,A,22,1,Correct!,1.4877867000177503,690.8400200998876,None,690.8400200998876,None,692.3578236999456,None,,,,,88,001,2023-05-30_12h52.38.514,uncolored_sorted,2021.2.3,59.939030001008035,
C:\Users\subject\Desktop\SVRT Experiments\SVRT Experiment 3\svrt_images\generated_images\results_problem_13,,C:\Users\subject\Desktop\SVRT Experiments\SVRT Experiment 3\svrt_images\generated_images\results_problem_13\sample_0_0005.png,,,,,,,,,,,,,,,,,,,,,,0,1,1,1,0,10,10,10,,,,,,,,,,,,,,f,13,A,B,22,0,Incorrect!,0.7577710000332445,693.4420231999829,None,693.4420231999829,None,694.2259455998428,None,,,,,88,001,2023-05-30_12h52.38.514,uncolored_sorted,2021.2.3,59.939030001008035,
C:\Users\subject\Desktop\SVRT Experiments\SVRT Experiment 3\svrt_images\generated_images\results_problem_13,,C:\Users\subject\Desktop\SVRT Experiments\SVRT Experiment 3\svrt_images\generated_images\results_problem_13\sample_1_0008.png,,,,,,,,,,,,,,,,,,,,,,0,1,1,1,0,11,11,11,,,,,,,,,,,,,,f,13,A,A,22,1,Correct!,2.9377194000408053,695.3100964999758,None,695.3100964999758,None,698.2790033000056,None,,,,,88,001,2023-05-30_12h52.38.514,uncolored_sorted,2021.2.3,59.939030001008035,
C:\Users\subject\Desktop\SVRT Experiments\SVRT Experiment 3\svrt_images\generated_images\results_problem_13,,C:\Users\subject\Desktop\SVRT Experiments\SVRT Experiment 3\svrt_images\generated_images\results_problem_13\sample_1_0004.png,,,,,,,,,,,,,,,,,,,,,,0,1,1,1,0,12,12,12,,,,,,,,,,,,,,j,13,B,A,22,0,Incorrect!,3.683881999924779,699.3798358999193,None,699.3798358999193,None,703.0826228000224,None,,,,,88,001,2023-05-30_12h52.38.514,uncolored_sorted,2021.2.3,59.939030001008035,
C:\Users\subject\Desktop\SVRT Experiments\SVRT Experiment 3\svrt_images\generated_images\results_problem_13,,C:\Users\subject\Desktop\SVRT Experiments\SVRT Experiment 3\svrt_images\generated_images\results_problem_13\sample_0_0013.png,,,,,,,,,,,,,,,,,,,,,,0,1,1,1,0,13,13,13,,,,,,,,,,,,,,f,13,A,B,22,0,Incorrect!,2.127581699984148,704.2001195999328,None,704.2001195999328,None,706.3517489999067,None,,,,,88,001,2023-05-30_12h52.38.514,uncolored_sorted,2021.2.3,59.939030001008035,
C:\Users\subject\Desktop\SVRT Experiments\SVRT Experiment 3\svrt_images\generated_images\results_problem_13,,C:\Users\subject\Desktop\SVRT Experiments\SVRT Experiment 3\svrt_images\generated_images\results_problem_13\sample_1_0001.png,,,,,,,,,,,,,,,,,,,,,,0,1,1,1,0,14,14,14,,,,,,,,,,,,,,j,13,B,A,22,0,Incorrect!,0.3464444000273943,707.4692505998537,None,707.4692505998537,None,707.836231000023,None,,,,,88,001,2023-05-30_12h52.38.514,uncolored_sorted,2021.2.3,59.939030001008035,
C:\Users\subject\Desktop\SVRT Experiments\SVRT Experiment 3\svrt_images\generated_images\results_problem_13,,C:\Users\subject\Desktop\SVRT Experiments\SVRT Experiment 3\svrt_images\generated_images\results_problem_13\sample_0_0012.png,,,,,,,,,,,,,,,,,,,,,,0,1,1,1,0,15,15,15,,,,,,,,,,,,,,f,13,A,B,22,0,Incorrect!,0.71746929991059,708.9704020998906,None,708.9704020998906,None,709.720967900008,None,,,,,88,001,2023-05-30_12h52.38.514,uncolored_sorted,2021.2.3,59.939030001008035,
C:\Users\subject\Desktop\SVRT Experiments\SVRT Experiment 3\svrt_images\generated_images\results_problem_13,,C:\Users\subject\Desktop\SVRT Experiments\SVRT Experiment 3\svrt_images\generated_images\results_problem_13\sample_1_0005.png,,,,,,,,,,,,,,,,,,,,,,0,1,1,1,0,16,16,16,,,,,,,,,,,,,,j,13,B,A,22,0,Incorrect!,2.0485149999149144,710.8551535999868,None,710.8551535999868,None,712.9233494000509,None,,,,,88,001,2023-05-30_12h52.38.514,uncolored_sorted,2021.2.3,59.939030001008035,
C:\Users\subject\Desktop\SVRT Experiments\SVRT Experiment 3\svrt_images\generated_images\results_problem_13,,C:\Users\subject\Desktop\SVRT Experiments\SVRT Experiment 3\svrt_images\generated_images\results_problem_13\sample_1_0000.png,,,,,,,,,,,,,,,,,,,,,,0,1,1,1,0,17,17,17,,,,,,,,,,,,,,f,13,A,A,22,1,Correct!,1.021492199972272,714.0742494999431,None,714.0742494999431,None,715.1416984999087,None,,,,,88,001,2023-05-30_12h52.38.514,uncolored_sorted,2021.2.3,59.939030001008035,
C:\Users\subject\Desktop\SVRT Experiments\SVRT Experiment 3\svrt_images\generated_images\results_problem_13,,C:\Users\subject\Desktop\SVRT Experiments\SVRT Experiment 3\svrt_images\generated_images\results_problem_13\sample_1_0006.png,,,,,,,,,,,,,,,,,,,,,,0,1,1,1,0,18,18,18,,,,,,,,,,,,,,f,13,A,A,22,1,Correct!,1.1623712999280542,716.3092628000304,None,716.3092628000304,None,717.4934859999921,None,,,,,88,001,2023-05-30_12h52.38.514,uncolored_sorted,2021.2.3,59.939030001008035,
C:\Users\subject\Desktop\SVRT Experiments\SVRT Experiment 3\svrt_images\generated_images\results_problem_13,,C:\Users\subject\Desktop\SVRT Experiments\SVRT Experiment 3\svrt_images\generated_images\results_problem_13\sample_1_0007.png,,,,,,,,,,,,,,,,,,,,,,0,1,1,1,0,19,19,19,,,,,,,,,,,,,,j,13,B,A,22,0,Incorrect!,0.5946029000915587,718.6610168998595,None,718.6610168998595,None,719.2781443998683,None,,,,,88,001,2023-05-30_12h52.38.514,uncolored_sorted,2021.2.3,59.939030001008035,
C:\Users\subject\Desktop\SVRT Experiments\SVRT Experiment 3\svrt_images\generated_images\results_problem_13,,C:\Users\subject\Desktop\SVRT Experiments\SVRT Experiment 3\svrt_images\generated_images\results_problem_13\sample_1_0013.png,,,,,,,,,,,,,,,,,,,,,,0,1,1,1,0,20,20,20,,,,,,,,,,,,,,f,13,A,A,22,1,Correct!,1.0012108001392335,720.4623938000295,None,720.4623938000295,None,721.5131632999983,None,,,,,88,001,2023-05-30_12h52.38.514,uncolored_sorted,2021.2.3,59.939030001008035,
C:\Users\subject\Desktop\SVRT Experiments\SVRT Experiment 3\svrt_images\generated_images\results_problem_13,,C:\Users\subject\Desktop\SVRT Experiments\SVRT Experiment 3\svrt_images\generated_images\results_problem_13\sample_0_0008.png,,,,,,,,,,,,,,,,,,,,,,0,1,1,1,0,21,21,21,,,,,,,,,,,,,,f,13,A,B,22,0,Incorrect!,1.4381514999549836,722.697421199875,None,722.697421199875,None,724.1818378998432,None,,,,,88,001,2023-05-30_12h52.38.514,uncolored_sorted,2021.2.3,59.939030001008035,
C:\Users\subject\Desktop\SVRT Experiments\SVRT Experiment 3\svrt_images\generated_images\results_problem_13,,C:\Users\subject\Desktop\SVRT Experiments\SVRT Experiment 3\svrt_images\generated_images\results_problem_13\sample_1_0009.png,,,,,,,,,,,,,,,,,,,,,,0,1,1,1,0,22,22,22,,,,,,,,,,,,,,f,13,A,A,22,1,Correct!,1.3527704000007361,725.3827881999314,None,725.3827881999314,None,726.7671221999917,None,,,,,88,001,2023-05-30_12h52.38.514,uncolored_sorted,2021.2.3,59.939030001008035,
C:\Users\subject\Desktop\SVRT Experiments\SVRT Experiment 3\svrt_images\generated_images\results_problem_13,,C:\Users\subject\Desktop\SVRT Experiments\SVRT Experiment 3\svrt_images\generated_images\results_problem_13\sample_0_0011.png,,,,,,,,,,,,,,,,,,,,,,0,1,1,1,0,23,23,23,,,,,,,,,,,,,,f,13,A,B,22,0,Incorrect!,1.2388169998303056,727.9847070998512,None,727.9847070998512,None,729.2690163999796,None,,,,,88,001,2023-05-30_12h52.38.514,uncolored_sorted,2021.2.3,59.939030001008035,
C:\Users\subject\Desktop\SVRT Experiments\SVRT Experiment 3\svrt_images\generated_images\results_problem_13,,C:\Users\subject\Desktop\SVRT Experiments\SVRT Experiment 3\svrt_images\generated_images\results_problem_13\sample_0_0016.png,,,,,,,,,,,,,,,,,,,,,,0,1,1,1,0,24,24,24,,,,,,,,,,,,,,j,13,B,B,22,1,Correct!,0.46426500007510185,730.5032995999791,None,730.5032995999791,None,731.0036734999157,None,,,,,88,001,2023-05-30_12h52.38.514,uncolored_sorted,2021.2.3,59.939030001008035,
C:\Users\subject\Desktop\SVRT Experiments\SVRT Experiment 3\svrt_images\generated_images\results_problem_13,,C:\Users\subject\Desktop\SVRT Experiments\SVRT Experiment 3\svrt_images\generated_images\results_problem_13\sample_0_0007.png,,,,,,,,,,,,,,,,,,,,,,0,1,1,1,0,25,25,25,,,,,,,,,,,,,,j,13,B,B,22,1,Correct!,4.241547100013122,732.2379448998254,None,732.2379448998254,None,736.5077994000167,None,,,,,88,001,2023-05-30_12h52.38.514,uncolored_sorted,2021.2.3,59.939030001008035,
C:\Users\subject\Desktop\SVRT Experiments\SVRT Experiment 3\svrt_images\generated_images\results_problem_13,,C:\Users\subject\Desktop\SVRT Experiments\SVRT Experiment 3\svrt_images\generated_images\results_problem_13\sample_1_0012.png,,,,,,,,,,,,,,,,,,,,,,0,1,1,1,0,26,26,26,,,,,,,,,,,,,,f,13,A,A,22,1,Correct!,0.992729099933058,737.7587401999626,None,737.7587401999626,None,738.7761967999395,None,,,,,88,001,2023-05-30_12h52.38.514,uncolored_sorted,2021.2.3,59.939030001008035,
C:\Users\subject\Desktop\SVRT Experiments\SVRT Experiment 3\svrt_images\generated_images\results_problem_13,,C:\Users\subject\Desktop\SVRT Experiments\SVRT Experiment 3\svrt_images\generated_images\results_problem_13\sample_1_0016.png,,,,,,,,,,,,,,,,,,,,,,0,1,1,1,0,27,27,27,,,,,,,,,,,,,,f,13,A,A,22,1,Correct!,0.7796833000611514,740.0438264999539,None,740.0438264999539,None,740.861105900025,None,,,,,88,001,2023-05-30_12h52.38.514,uncolored_sorted,2021.2.3,59.939030001008035,
C:\Users\subject\Desktop\SVRT Experiments\SVRT Experiment 3\svrt_images\generated_images\results_problem_13,,C:\Users\subject\Desktop\SVRT Experiments\SVRT Experiment 3\svrt_images\generated_images\results_problem_13\sample_0_0009.png,,,,,,,,,,,,,,,,,,,,,,0,1,1,1,0,28,28,28,,,,,,,,,,,,,,j,13,B,B,22,1,Correct!,0.4627446997910738,742.1287406999618,None,742.1287406999618,None,742.6457839999348,None,,,,,88,001,2023-05-30_12h52.38.514,uncolored_sorted,2021.2.3,59.939030001008035,
C:\Users\subject\Desktop\SVRT Experiments\SVRT Experiment 3\svrt_images\generated_images\results_problem_13,,C:\Users\subject\Desktop\SVRT Experiments\SVRT Experiment 3\svrt_images\generated_images\results_problem_13\sample_0_0002.png,,,,,,,,,,,,,,,,,,,,,,0,1,1,1,0,29,29,29,,,,,,,,,,,,,,j,13,B,B,22,1,Correct!,0.3493015000130981,743.9301012998912,None,743.9301012998912,None,744.2970304000191,None,,,,,88,001,2023-05-30_12h52.38.514,uncolored_sorted,2021.2.3,59.939030001008035,
C:\Users\subject\Desktop\SVRT Experiments\SVRT Experiment 3\svrt_images\generated_images\results_problem_13,,C:\Users\subject\Desktop\SVRT Experiments\SVRT Experiment 3\svrt_images\generated_images\results_problem_13\sample_0_0001.png,,,,,,,,,,,,,,,,,,,,,,0,1,1,1,0,30,30,30,,,,,,,,,,,,,,f,13,A,B,22,0,Incorrect!,0.426095400005579,745.5813207000028,None,745.5813207000028,None,746.0483299000189,None,,,,,88,001,2023-05-30_12h52.38.514,uncolored_sorted,2021.2.3,59.939030001008035,
C:\Users\subject\Desktop\SVRT Experiments\SVRT Experiment 3\svrt_images\generated_images\results_problem_13,,C:\Users\subject\Desktop\SVRT Experiments\SVRT Experiment 3\svrt_images\generated_images\results_problem_13\sample_0_0014.png,,,,,,,,,,,,,,,,,,,,,,0,1,1,1,0,31,31,31,,,,,,,,,,,,,,j,13,B,B,22,1,Correct!,0.7293779000174254,747.3660295999143,None,747.3660295999143,None,748.1165757998824,None,,,,,88,001,2023-05-30_12h52.38.514,uncolored_sorted,2021.2.3,59.939030001008035,
C:\Users\subject\Desktop\SVRT Experiments\SVRT Experiment 3\svrt_images\generated_images\results_problem_13,,C:\Users\subject\Desktop\SVRT Experiments\SVRT Experiment 3\svrt_images\generated_images\results_problem_13\sample_1_0015.png,,,,,,,,,,,,,,,,,,,,,,0,1,1,1,0,32,32,32,,,,,,,,,,,,,,f,13,A,A,22,1,Correct!,0.9811380999162793,749.4342179999221,None,749.4342179999221,None,750.4516680999659,None,,,,,88,001,2023-05-30_12h52.38.514,uncolored_sorted,2021.2.3,59.939030001008035,
C:\Users\subject\Desktop\SVRT Experiments\SVRT Experiment 3\svrt_images\generated_images\results_problem_13,,C:\Users\subject\Desktop\SVRT Experiments\SVRT Experiment 3\svrt_images\generated_images\results_problem_13\sample_0_0006.png,,,,,,,,,,,,,,,,,,,,,,0,1,1,1,0,33,33,33,,,,,,,,,,,,,,j,13,B,B,22,1,Correct!,0.2942137001082301,751.7693174998276,None,751.7693174998276,None,752.1195950000547,None,,,,,88,001,2023-05-30_12h52.38.514,uncolored_sorted,2021.2.3,59.939030001008035,
C:\Users\subject\Desktop\SVRT Experiments\SVRT Experiment 3\svrt_images\generated_images\results_problem_13,,,,,,,,,,,,,,,,,,,,,,,,0,1,1,1,,,,,,,,,,,,,,,,,,,,,,,,,,,,,,,,753.1203495999798,753.1203495999798,space,1.7190076999831945,88,001,2023-05-30_12h52.38.514,uncolored_sorted,2021.2.3,59.939030001008035,
C:\Users\subject\Desktop\SVRT Experiments\SVRT Experiment 3\svrt_images\generated_images\results_problem_10,,,C:\Users\subject\Desktop\SVRT Experiments\SVRT Experiment 3\svrt_images\generated_images\results_problem_10\sample_1_0002.png,,,,,,,,,,,,,,,,,,,,,0,2,2,2,0,0,0,0,,,,,,,,,,,,,,f,10,A,A,22,1,Correct!,11.807618899969384,754.8716565999202,None,754.8716565999202,None,766.6972262000199,None,,,,,88,001,2023-05-30_12h52.38.514,uncolored_sorted,2021.2.3,59.939030001008035,
C:\Users\subject\Desktop\SVRT Experiments\SVRT Experiment 3\svrt_images\generated_images\results_problem_10,,,C:\Users\subject\Desktop\SVRT Experiments\SVRT Experiment 3\svrt_images\generated_images\results_problem_10\sample_0_0003.png,,,,,,,,,,,,,,,,,,,,,0,2,2,2,0,1,1,1,,,,,,,,,,,,,,f,10,A,B,22,0,Incorrect!,1.7972611000295728,767.6979896000121,None,767.6979896000121,None,769.516046699835,None,,,,,88,001,2023-05-30_12h52.38.514,uncolored_sorted,2021.2.3,59.939030001008035,
C:\Users\subject\Desktop\SVRT Experiments\SVRT Experiment 3\svrt_images\generated_images\results_problem_10,,,C:\Users\subject\Desktop\SVRT Experiments\SVRT Experiment 3\svrt_images\generated_images\results_problem_10\sample_1_0016.png,,,,,,,,,,,,,,,,,,,,,0,2,2,2,0,2,2,2,,,,,,,,,,,,,,f,10,A,A,22,1,Correct!,2.7937664000783116,770.5334824998863,None,770.5334824998863,None,773.3522721999325,None,,,,,88,001,2023-05-30_12h52.38.514,uncolored_sorted,2021.2.3,59.939030001008035,
C:\Users\subject\Desktop\SVRT Experiments\SVRT Experiment 3\svrt_images\generated_images\results_problem_10,,,C:\Users\subject\Desktop\SVRT Experiments\SVRT Experiment 3\svrt_images\generated_images\results_problem_10\sample_0_0013.png,,,,,,,,,,,,,,,,,,,,,0,2,2,2,0,3,3,3,,,,,,,,,,,,,,j,10,B,B,22,1,Correct!,1.613502599997446,774.3696979999077,None,774.3696979999077,None,776.0042659000028,None,,,,,88,001,2023-05-30_12h52.38.514,uncolored_sorted,2021.2.3,59.939030001008035,
C:\Users\subject\Desktop\SVRT Experiments\SVRT Experiment 3\svrt_images\generated_images\results_problem_10,,,C:\Users\subject\Desktop\SVRT Experiments\SVRT Experiment 3\svrt_images\generated_images\results_problem_10\sample_0_0014.png,,,,,,,,,,,,,,,,,,,,,0,2,2,2,0,4,4,4,,,,,,,,,,,,,,j,10,B,B,22,1,Correct!,0.9368453999049962,777.0383454998955,None,777.0383454998955,None,778.0057576999534,None,,,,,88,001,2023-05-30_12h52.38.514,uncolored_sorted,2021.2.3,59.939030001008035,
C:\Users\subject\Desktop\SVRT Experiments\SVRT Experiment 3\svrt_images\generated_images\results_problem_10,,,C:\Users\subject\Desktop\SVRT Experiments\SVRT Experiment 3\svrt_images\generated_images\results_problem_10\sample_1_0005.png,,,,,,,,,,,,,,,,,,,,,0,2,2,2,0,5,5,5,,,,,,,,,,,,,,j,10,B,A,22,0,Incorrect!,0.8313335999846458,779.0398488999344,None,779.0398488999344,None,779.8905331999995,None,,,,,88,001,2023-05-30_12h52.38.514,uncolored_sorted,2021.2.3,59.939030001008035,
C:\Users\subject\Desktop\SVRT Experiments\SVRT Experiment 3\svrt_images\generated_images\results_problem_10,,,C:\Users\subject\Desktop\SVRT Experiments\SVRT Experiment 3\svrt_images\generated_images\results_problem_10\sample_1_0004.png,,,,,,,,,,,,,,,,,,,,,0,2,2,2,0,6,6,6,,,,,,,,,,,,,,j,10,B,A,22,0,Incorrect!,1.5618132001254708,780.9413326999638,None,780.9413326999638,None,782.5258547998965,None,,,,,88,001,2023-05-30_12h52.38.514,uncolored_sorted,2021.2.3,59.939030001008035,
C:\Users\subject\Desktop\SVRT Experiments\SVRT Experiment 3\svrt_images\generated_images\results_problem_10,,,C:\Users\subject\Desktop\SVRT Experiments\SVRT Experiment 3\svrt_images\generated_images\results_problem_10\sample_0_0002.png,,,,,,,,,,,,,,,,,,,,,0,2,2,2,0,7,7,7,,,,,,,,,,,,,,j,10,B,B,22,1,Correct!,1.182525600073859,783.5766105998773,None,783.5766105998773,None,784.7775365000125,None,,,,,88,001,2023-05-30_12h52.38.514,uncolored_sorted,2021.2.3,59.939030001008035,
C:\Users\subject\Desktop\SVRT Experiments\SVRT Experiment 3\svrt_images\generated_images\results_problem_10,,,C:\Users\subject\Desktop\SVRT Experiments\SVRT Experiment 3\svrt_images\generated_images\results_problem_10\sample_0_0011.png,,,,,,,,,,,,,,,,,,,,,0,2,2,2,0,8,8,8,,,,,,,,,,,,,,f,10,A,B,22,0,Incorrect!,0.9461016999557614,785.8450231999159,None,785.8450231999159,None,786.8124189998489,None,,,,,88,001,2023-05-30_12h52.38.514,uncolored_sorted,2021.2.3,59.939030001008035,
C:\Users\subject\Desktop\SVRT Experiments\SVRT Experiment 3\svrt_images\generated_images\results_problem_10,,,C:\Users\subject\Desktop\SVRT Experiments\SVRT Experiment 3\svrt_images\generated_images\results_problem_10\sample_0_0008.png,,,,,,,,,,,,,,,,,,,,,0,2,2,2,0,9,9,9,,,,,,,,,,,,,,f,10,A,B,22,0,Incorrect!,0.7592091001570225,787.8798944998998,None,787.8798944998998,None,788.6638126999605,None,,,,,88,001,2023-05-30_12h52.38.514,uncolored_sorted,2021.2.3,59.939030001008035,
C:\Users\subject\Desktop\SVRT Experiments\SVRT Experiment 3\svrt_images\generated_images\results_problem_10,,,C:\Users\subject\Desktop\SVRT Experiments\SVRT Experiment 3\svrt_images\generated_images\results_problem_10\sample_1_0007.png,,,,,,,,,,,,,,,,,,,,,0,2,2,2,0,10,10,10,,,,,,,,,,,,,,j,10,B,A,22,0,Incorrect!,0.735825200099498,789.8472602998372,None,789.8472602998372,None,790.6152850999497,None,,,,,88,001,2023-05-30_12h52.38.514,uncolored_sorted,2021.2.3,59.939030001008035,
C:\Users\subject\Desktop\SVRT Experiments\SVRT Experiment 3\svrt_images\generated_images\results_problem_10,,,C:\Users\subject\Desktop\SVRT Experiments\SVRT Experiment 3\svrt_images\generated_images\results_problem_10\sample_0_0010.png,,,,,,,,,,,,,,,,,,,,,0,2,2,2,0,11,11,11,,,,,,,,,,,,,,f,10,A,B,22,0,Incorrect!,4.1956632998771966,791.6993976999074,None,791.6993976999074,None,795.9192845998332,None,,,,,88,001,2023-05-30_12h52.38.514,uncolored_sorted,2021.2.3,59.939030001008035,
C:\Users\subject\Desktop\SVRT Experiments\SVRT Experiment 3\svrt_images\generated_images\results_problem_10,,,C:\Users\subject\Desktop\SVRT Experiments\SVRT Experiment 3\svrt_images\generated_images\results_problem_10\sample_1_0014.png,,,,,,,,,,,,,,,,,,,,,0,2,2,2,0,12,12,12,,,,,,,,,,,,,,f,10,A,A,22,1,Correct!,1.1069392999634147,797.02012069989,None,797.02012069989,None,798.154282100033,None,,,,,88,001,2023-05-30_12h52.38.514,uncolored_sorted,2021.2.3,59.939030001008035,
C:\Users\subject\Desktop\SVRT Experiments\SVRT Experiment 3\svrt_images\generated_images\results_problem_10,,,C:\Users\subject\Desktop\SVRT Experiments\SVRT Experiment 3\svrt_images\generated_images\results_problem_10\sample_0_0015.png,,,,,,,,,,,,,,,,,,,,,0,2,2,2,0,13,13,13,,,,,,,,,,,,,,j,10,B,B,22,1,Correct!,0.7039191999938339,799.2551424000412,None,799.2551424000412,None,799.9890217999928,None,,,,,88,001,2023-05-30_12h52.38.514,uncolored_sorted,2021.2.3,59.939030001008035,
C:\Users\subject\Desktop\SVRT Experiments\SVRT Experiment 3\svrt_images\generated_images\results_problem_10,,,C:\Users\subject\Desktop\SVRT Experiments\SVRT Experiment 3\svrt_images\generated_images\results_problem_10\sample_1_0006.png,,,,,,,,,,,,,,,,,,,,,0,2,2,2,0,14,14,14,,,,,,,,,,,,,,f,10,A,A,22,1,Correct!,0.5006744000129402,801.1065374999307,None,801.1065374999307,None,801.6402708999813,None,,,,,88,001,2023-05-30_12h52.38.514,uncolored_sorted,2021.2.3,59.939030001008035,
C:\Users\subject\Desktop\SVRT Experiments\SVRT Experiment 3\svrt_images\generated_images\results_problem_10,,,C:\Users\subject\Desktop\SVRT Experiments\SVRT Experiment 3\svrt_images\generated_images\results_problem_10\sample_1_0000.png,,,,,,,,,,,,,,,,,,,,,0,2,2,2,0,15,15,15,,,,,,,,,,,,,,j,10,B,A,22,0,Incorrect!,0.32059070002287626,802.7744604998734,None,802.7744604998734,None,803.1247192998417,None,,,,,88,001,2023-05-30_12h52.38.514,uncolored_sorted,2021.2.3,59.939030001008035,
C:\Users\subject\Desktop\SVRT Experiments\SVRT Experiment 3\svrt_images\generated_images\results_problem_10,,,C:\Users\subject\Desktop\SVRT Experiments\SVRT Experiment 3\svrt_images\generated_images\results_problem_10\sample_1_0010.png,,,,,,,,,,,,,,,,,,,,,0,2,2,2,0,16,16,16,,,,,,,,,,,,,,f,10,A,A,22,1,Correct!,0.796115499921143,804.2589173999149,None,804.2589173999149,None,805.0761927999556,None,,,,,88,001,2023-05-30_12h52.38.514,uncolored_sorted,2021.2.3,59.939030001008035,
C:\Users\subject\Desktop\SVRT Experiments\SVRT Experiment 3\svrt_images\generated_images\results_problem_10,,,C:\Users\subject\Desktop\SVRT Experiments\SVRT Experiment 3\svrt_images\generated_images\results_problem_10\sample_0_0004.png,,,,,,,,,,,,,,,,,,,,,0,2,2,2,0,17,17,17,,,,,,,,,,,,,,f,10,A,B,22,0,Incorrect!,0.7079761999193579,806.2270312998444,None,806.2270312998444,None,806.977649499895,None,,,,,88,001,2023-05-30_12h52.38.514,uncolored_sorted,2021.2.3,59.939030001008035,
C:\Users\subject\Desktop\SVRT Experiments\SVRT Experiment 3\svrt_images\generated_images\results_problem_10,,,C:\Users\subject\Desktop\SVRT Experiments\SVRT Experiment 3\svrt_images\generated_images\results_problem_10\sample_0_0001.png,,,,,,,,,,,,,,,,,,,,,0,2,2,2,0,18,18,18,,,,,,,,,,,,,,j,10,B,B,22,1,Correct!,1.6944537998642772,808.1285176998936,None,808.1285176998936,None,809.846465999959,None,,,,,88,001,2023-05-30_12h52.38.514,uncolored_sorted,2021.2.3,59.939030001008035,
C:\Users\subject\Desktop\SVRT Experiments\SVRT Experiment 3\svrt_images\generated_images\results_problem_10,,,C:\Users\subject\Desktop\SVRT Experiments\SVRT Experiment 3\svrt_images\generated_images\results_problem_10\sample_0_0005.png,,,,,,,,,,,,,,,,,,,,,0,2,2,2,0,19,19,19,,,,,,,,,,,,,,j,10,B,B,22,1,Correct!,9.672894000075758,811.0140092000365,None,811.0140092000365,None,820.7046429000329,None,,,,,88,001,2023-05-30_12h52.38.514,uncolored_sorted,2021.2.3,59.939030001008035,
C:\Users\subject\Desktop\SVRT Experiments\SVRT Experiment 3\svrt_images\generated_images\results_problem_10,,,C:\Users\subject\Desktop\SVRT Experiments\SVRT Experiment 3\svrt_images\generated_images\results_problem_10\sample_1_0015.png,,,,,,,,,,,,,,,,,,,,,0,2,2,2,0,20,20,20,,,,,,,,,,,,,,f,10,A,A,22,1,Correct!,0.6460068998858333,821.8888775999658,None,821.8888775999658,None,822.5727172999177,None,,,,,88,001,2023-05-30_12h52.38.514,uncolored_sorted,2021.2.3,59.939030001008035,
C:\Users\subject\Desktop\SVRT Experiments\SVRT Experiment 3\svrt_images\generated_images\results_problem_10,,,C:\Users\subject\Desktop\SVRT Experiments\SVRT Experiment 3\svrt_images\generated_images\results_problem_10\sample_1_0013.png,,,,,,,,,,,,,,,,,,,,,0,2,2,2,0,21,21,21,,,,,,,,,,,,,,f,10,A,A,22,1,Correct!,0.7379084997810423,823.7569611999206,None,823.7569611999206,None,824.5408665998839,None,,,,,88,001,2023-05-30_12h52.38.514,uncolored_sorted,2021.2.3,59.939030001008035,
C:\Users\subject\Desktop\SVRT Experiments\SVRT Experiment 3\svrt_images\generated_images\results_problem_10,,,C:\Users\subject\Desktop\SVRT Experiments\SVRT Experiment 3\svrt_images\generated_images\results_problem_10\sample_0_0007.png,,,,,,,,,,,,,,,,,,,,,0,2,2,2,0,22,22,22,,,,,,,,,,,,,,j,10,B,B,22,1,Correct!,0.8650264998432249,825.7417888999917,None,825.7417888999917,None,826.6257727998309,None,,,,,88,001,2023-05-30_12h52.38.514,uncolored_sorted,2021.2.3,59.939030001008035,
C:\Users\subject\Desktop\SVRT Experiments\SVRT Experiment 3\svrt_images\generated_images\results_problem_10,,,C:\Users\subject\Desktop\SVRT Experiments\SVRT Experiment 3\svrt_images\generated_images\results_problem_10\sample_1_0001.png,,,,,,,,,,,,,,,,,,,,,0,2,2,2,0,23,23,23,,,,,,,,,,,,,,f,10,A,A,22,1,Correct!,0.6194388000294566,827.843365599867,None,827.843365599867,None,828.4938447000459,None,,,,,88,001,2023-05-30_12h52.38.514,uncolored_sorted,2021.2.3,59.939030001008035,
C:\Users\subject\Desktop\SVRT Experiments\SVRT Experiment 3\svrt_images\generated_images\results_problem_10,,,C:\Users\subject\Desktop\SVRT Experiments\SVRT Experiment 3\svrt_images\generated_images\results_problem_10\sample_1_0011.png,,,,,,,,,,,,,,,,,,,,,0,2,2,2,0,24,24,24,,,,,,,,,,,,,,f,10,A,A,22,1,Correct!,0.6393875000067055,829.7114375999663,None,829.7114375999663,None,830.3785794998985,None,,,,,88,001,2023-05-30_12h52.38.514,uncolored_sorted,2021.2.3,59.939030001008035,
C:\Users\subject\Desktop\SVRT Experiments\SVRT Experiment 3\svrt_images\generated_images\results_problem_10,,,C:\Users\subject\Desktop\SVRT Experiments\SVRT Experiment 3\svrt_images\generated_images\results_problem_10\sample_0_0012.png,,,,,,,,,,,,,,,,,,,,,0,2,2,2,0,25,25,25,,,,,,,,,,,,,,,,,,,,,,,,,,,,831.3793373999652,831.3793373999652,space,0.9634777999017388,88,001,2023-05-30_12h52.38.514,uncolored_sorted,2021.2.3,59.939030001008035,
C:\Users\subject\Desktop\SVRT Experiments\SVRT Experiment 3\svrt_images\generated_images\results_problem_14,,,C:\Users\subject\Desktop\SVRT Experiments\SVRT Experiment 3\svrt_images\generated_images\results_problem_10\sample_0_0012.png,C:\Users\subject\Desktop\SVRT Experiments\SVRT Experiment 3\svrt_images\generated_images\results_problem_14\sample_1_0008.png,,,,,,,,,,,,,,,,,,,,0,3,3,3,0,0,0,0,,,,,,,,,,,,,,f,14,A,A,22,1,Correct!,4.123336999909952,832.3634224999696,None,832.3634224999696,None,836.5165635000449,None,,,,,88,001,2023-05-30_12h52.38.514,uncolored_sorted,2021.2.3,59.939030001008035,
C:\Users\subject\Desktop\SVRT Experiments\SVRT Experiment 3\svrt_images\generated_images\results_problem_14,,,C:\Users\subject\Desktop\SVRT Experiments\SVRT Experiment 3\svrt_images\generated_images\results_problem_10\sample_0_0012.png,C:\Users\subject\Desktop\SVRT Experiments\SVRT Experiment 3\svrt_images\generated_images\results_problem_14\sample_0_0014.png,,,,,,,,,,,,,,,,,,,,0,3,3,3,0,1,1,1,,,,,,,,,,,,,,j,14,B,B,22,1,Correct!,2.1134105001110584,837.5173231000081,None,837.5173231000081,None,839.6522601000033,None,,,,,88,001,2023-05-30_12h52.38.514,uncolored_sorted,2021.2.3,59.939030001008035,
C:\Users\subject\Desktop\SVRT Experiments\SVRT Experiment 3\svrt_images\generated_images\results_problem_14,,,C:\Users\subject\Desktop\SVRT Experiments\SVRT Experiment 3\svrt_images\generated_images\results_problem_10\sample_0_0012.png,C:\Users\subject\Desktop\SVRT Experiments\SVRT Experiment 3\svrt_images\generated_images\results_problem_14\sample_1_0007.png,,,,,,,,,,,,,,,,,,,,0,3,3,3,0,2,2,2,,,,,,,,,,,,,,f,14,A,A,22,1,Correct!,1.129024799913168,840.6696951999329,None,840.6696951999329,None,841.8205416998826,None,,,,,88,001,2023-05-30_12h52.38.514,uncolored_sorted,2021.2.3,59.939030001008035,
C:\Users\subject\Desktop\SVRT Experiments\SVRT Experiment 3\svrt_images\generated_images\results_problem_14,,,C:\Users\subject\Desktop\SVRT Experiments\SVRT Experiment 3\svrt_images\generated_images\results_problem_10\sample_0_0012.png,C:\Users\subject\Desktop\SVRT Experiments\SVRT Experiment 3\svrt_images\generated_images\results_problem_14\sample_0_0009.png,,,,,,,,,,,,,,,,,,,,0,3,3,3,0,3,3,3,,,,,,,,,,,,,,j,14,B,B,22,1,Correct!,1.0807507999707013,842.8379561000038,None,842.8379561000038,None,843.9388272999786,None,,,,,88,001,2023-05-30_12h52.38.514,uncolored_sorted,2021.2.3,59.939030001008035,
C:\Users\subject\Desktop\SVRT Experiments\SVRT Experiment 3\svrt_images\generated_images\results_problem_14,,,C:\Users\subject\Desktop\SVRT Experiments\SVRT Experiment 3\svrt_images\generated_images\results_problem_10\sample_0_0012.png,C:\Users\subject\Desktop\SVRT Experiments\SVRT Experiment 3\svrt_images\generated_images\results_problem_14\sample_0_0002.png,,,,,,,,,,,,,,,,,,,,0,3,3,3,0,4,4,4,,,,,,,,,,,,,,f,14,A,B,22,0,Incorrect!,0.8497767997905612,844.9729312998243,None,844.9729312998243,None,845.84024579986,None,,,,,88,001,2023-05-30_12h52.38.514,uncolored_sorted,2021.2.3,59.939030001008035,
C:\Users\subject\Desktop\SVRT Experiments\SVRT Experiment 3\svrt_images\generated_images\results_problem_14,,,C:\Users\subject\Desktop\SVRT Experiments\SVRT Experiment 3\svrt_images\generated_images\results_problem_10\sample_0_0012.png,C:\Users\subject\Desktop\SVRT Experiments\SVRT Experiment 3\svrt_images\generated_images\results_problem_14\sample_1_0013.png,,,,,,,,,,,,,,,,,,,,0,3,3,3,0,5,5,5,,,,,,,,,,,,,,f,14,A,A,22,1,Correct!,1.7002832000143826,846.8743785000406,None,846.8743785000406,None,848.5923116998747,None,,,,,88,001,2023-05-30_12h52.38.514,uncolored_sorted,2021.2.3,59.939030001008035,
C:\Users\subject\Desktop\SVRT Experiments\SVRT Experiment 3\svrt_images\generated_images\results_problem_14,,,C:\Users\subject\Desktop\SVRT Experiments\SVRT Experiment 3\svrt_images\generated_images\results_problem_10\sample_0_0012.png,C:\Users\subject\Desktop\SVRT Experiments\SVRT Experiment 3\svrt_images\generated_images\results_problem_14\sample_0_0013.png,,,,,,,,,,,,,,,,,,,,0,3,3,3,0,6,6,6,,,,,,,,,,,,,,f,14,A,B,22,0,Incorrect!,1.339564000023529,849.6431346999016,None,849.6431346999016,None,851.010831200052,None,,,,,88,001,2023-05-30_12h52.38.514,uncolored_sorted,2021.2.3,59.939030001008035,
C:\Users\subject\Desktop\SVRT Experiments\SVRT Experiment 3\svrt_images\generated_images\results_problem_14,,,C:\Users\subject\Desktop\SVRT Experiments\SVRT Experiment 3\svrt_images\generated_images\results_problem_10\sample_0_0012.png,C:\Users\subject\Desktop\SVRT Experiments\SVRT Experiment 3\svrt_images\generated_images\results_problem_14\sample_1_0016.png,,,,,,,,,,,,,,,,,,,,0,3,3,3,0,7,7,7,,,,,,,,,,,,,,f,14,A,A,22,1,Correct!,1.353065300034359,852.0615761999507,None,852.0615761999507,None,853.4459783998318,None,,,,,88,001,2023-05-30_12h52.38.514,uncolored_sorted,2021.2.3,59.939030001008035,
C:\Users\subject\Desktop\SVRT Experiments\SVRT Experiment 3\svrt_images\generated_images\results_problem_14,,,C:\Users\subject\Desktop\SVRT Experiments\SVRT Experiment 3\svrt_images\generated_images\results_problem_10\sample_0_0012.png,C:\Users\subject\Desktop\SVRT Experiments\SVRT Experiment 3\svrt_images\generated_images\results_problem_14\sample_0_0001.png,,,,,,,,,,,,,,,,,,,,0,3,3,3,0,8,8,8,,,,,,,,,,,,,,j,14,B,B,22,1,Correct!,1.3651699000038207,854.5134761999361,None,854.5134761999361,None,855.8978428998962,None,,,,,88,001,2023-05-30_12h52.38.514,uncolored_sorted,2021.2.3,59.939030001008035,
C:\Users\subject\Desktop\SVRT Experiments\SVRT Experiment 3\svrt_images\generated_images\results_problem_14,,,C:\Users\subject\Desktop\SVRT Experiments\SVRT Experiment 3\svrt_images\generated_images\results_problem_10\sample_0_0012.png,C:\Users\subject\Desktop\SVRT Experiments\SVRT Experiment 3\svrt_images\generated_images\results_problem_14\sample_0_0005.png,,,,,,,,,,,,,,,,,,,,0,3,3,3,0,9,9,9,,,,,,,,,,,,,,j,14,B,B,22,1,Correct!,1.0652834000065923,856.9653202998452,None,856.9653202998452,None,858.0494263998698,None,,,,,88,001,2023-05-30_12h52.38.514,uncolored_sorted,2021.2.3,59.939030001008035,
C:\Users\subject\Desktop\SVRT Experiments\SVRT Experiment 3\svrt_images\generated_images\results_problem_14,,,C:\Users\subject\Desktop\SVRT Experiments\SVRT Experiment 3\svrt_images\generated_images\results_problem_10\sample_0_0012.png,C:\Users\subject\Desktop\SVRT Experiments\SVRT Experiment 3\svrt_images\generated_images\results_problem_14\sample_1_0015.png,,,,,,,,,,,,,,,,,,,,0,3,3,3,0,10,10,10,,,,,,,,,,,,,,f,14,A,A,22,1,Correct!,0.9849922999273986,859.1336274999194,None,859.1336274999194,None,860.1510542999022,None,,,,,88,001,2023-05-30_12h52.38.514,uncolored_sorted,2021.2.3,59.939030001008035,
C:\Users\subject\Desktop\SVRT Experiments\SVRT Experiment 3\svrt_images\generated_images\results_problem_14,,,C:\Users\subject\Desktop\SVRT Experiments\SVRT Experiment 3\svrt_images\generated_images\results_problem_10\sample_0_0012.png,C:\Users\subject\Desktop\SVRT Experiments\SVRT Experiment 3\svrt_images\generated_images\results_problem_14\sample_1_0010.png,,,,,,,,,,,,,,,,,,,,0,3,3,3,0,11,11,11,,,,,,,,,,,,,,f,14,A,A,22,1,Correct!,1.0194271998479962,861.2351933999453,None,861.2351933999453,None,862.285994600039,None,,,,,88,001,2023-05-30_12h52.38.514,uncolored_sorted,2021.2.3,59.939030001008035,
C:\Users\subject\Desktop\SVRT Experiments\SVRT Experiment 3\svrt_images\generated_images\results_problem_14,,,C:\Users\subject\Desktop\SVRT Experiments\SVRT Experiment 3\svrt_images\generated_images\results_problem_10\sample_0_0012.png,C:\Users\subject\Desktop\SVRT Experiments\SVRT Experiment 3\svrt_images\generated_images\results_problem_14\sample_1_0004.png,,,,,,,,,,,,,,,,,,,,0,3,3,3,0,12,12,12,,,,,,,,,,,,,,j,14,B,A,22,0,Incorrect!,0.9317147999536246,863.3868304998614,None,863.3868304998614,None,864.3375219998416,None,,,,,88,001,2023-05-30_12h52.38.514,uncolored_sorted,2021.2.3,59.939030001008035,
C:\Users\subject\Desktop\SVRT Experiments\SVRT Experiment 3\svrt_images\generated_images\results_problem_14,,,C:\Users\subject\Desktop\SVRT Experiments\SVRT Experiment 3\svrt_images\generated_images\results_problem_10\sample_0_0012.png,C:\Users\subject\Desktop\SVRT Experiments\SVRT Experiment 3\svrt_images\generated_images\results_problem_14\sample_0_0004.png,,,,,,,,,,,,,,,,,,,,0,3,3,3,0,13,13,13,,,,,,,,,,,,,,j,14,B,B,22,1,Correct!,0.9514926001429558,865.4550578999333,None,865.4550578999333,None,866.4391101999208,None,,,,,88,001,2023-05-30_12h52.38.514,uncolored_sorted,2021.2.3,59.939030001008035,
C:\Users\subject\Desktop\SVRT Experiments\SVRT Experiment 3\svrt_images\generated_images\results_problem_14,,,C:\Users\subject\Desktop\SVRT Experiments\SVRT Experiment 3\svrt_images\generated_images\results_problem_10\sample_0_0012.png,C:\Users\subject\Desktop\SVRT Experiments\SVRT Experiment 3\svrt_images\generated_images\results_problem_14\sample_0_0003.png,,,,,,,,,,,,,,,,,,,,0,3,3,3,0,14,14,14,,,,,,,,,,,,,,j,14,B,B,22,1,Correct!,1.1378685000818223,867.5566431998741,None,867.5566431998741,None,868.7241799999028,None,,,,,88,001,2023-05-30_12h52.38.514,uncolored_sorted,2021.2.3,59.939030001008035,
C:\Users\subject\Desktop\SVRT Experiments\SVRT Experiment 3\svrt_images\generated_images\results_problem_14,,,C:\Users\subject\Desktop\SVRT Experiments\SVRT Experiment 3\svrt_images\generated_images\results_problem_10\sample_0_0012.png,C:\Users\subject\Desktop\SVRT Experiments\SVRT Experiment 3\svrt_images\generated_images\results_problem_14\sample_1_0002.png,,,,,,,,,,,,,,,,,,,,0,3,3,3,0,15,15,15,,,,,,,,,,,,,,f,14,A,A,22,1,Correct!,1.4048504999373108,869.8416907000355,None,869.8416907000355,None,871.2761072998401,None,,,,,88,001,2023-05-30_12h52.38.514,uncolored_sorted,2021.2.3,59.939030001008035,
C:\Users\subject\Desktop\SVRT Experiments\SVRT Experiment 3\svrt_images\generated_images\results_problem_14,,,C:\Users\subject\Desktop\SVRT Experiments\SVRT Experiment 3\svrt_images\generated_images\results_problem_10\sample_0_0012.png,C:\Users\subject\Desktop\SVRT Experiments\SVRT Experiment 3\svrt_images\generated_images\results_problem_14\sample_0_0000.png,,,,,,,,,,,,,,,,,,,,0,3,3,3,0,16,16,16,,,,,,,,,,,,,,f,14,A,B,22,0,Incorrect!,0.7402206000406295,872.4102839999832,None,872.4102839999832,None,873.1775434999727,None,,,,,88,001,2023-05-30_12h52.38.514,uncolored_sorted,2021.2.3,59.939030001008035,
C:\Users\subject\Desktop\SVRT Experiments\SVRT Experiment 3\svrt_images\generated_images\results_problem_14,,,C:\Users\subject\Desktop\SVRT Experiments\SVRT Experiment 3\svrt_images\generated_images\results_problem_10\sample_0_0012.png,C:\Users\subject\Desktop\SVRT Experiments\SVRT Experiment 3\svrt_images\generated_images\results_problem_14\sample_1_0014.png,,,,,,,,,,,,,,,,,,,,0,3,3,3,0,17,17,17,,,,,,,,,,,,,,f,14,A,A,22,1,Correct!,1.0701067000627518,874.3283738999162,None,874.3283738999162,None,875.4459182999562,None,,,,,88,001,2023-05-30_12h52.38.514,uncolored_sorted,2021.2.3,59.939030001008035,
C:\Users\subject\Desktop\SVRT Experiments\SVRT Experiment 3\svrt_images\generated_images\results_problem_14,,,C:\Users\subject\Desktop\SVRT Experiments\SVRT Experiment 3\svrt_images\generated_images\results_problem_10\sample_0_0012.png,C:\Users\subject\Desktop\SVRT Experiments\SVRT Experiment 3\svrt_images\generated_images\results_problem_14\sample_0_0008.png,,,,,,,,,,,,,,,,,,,,0,3,3,3,0,18,18,18,,,,,,,,,,,,,,f,14,A,B,22,0,Incorrect!,1.0176989999599755,876.5967951000202,None,876.5967951000202,None,877.6475810999982,None,,,,,88,001,2023-05-30_12h52.38.514,uncolored_sorted,2021.2.3,59.939030001008035,
C:\Users\subject\Desktop\SVRT Experiments\SVRT Experiment 3\svrt_images\generated_images\results_problem_14,,,C:\Users\subject\Desktop\SVRT Experiments\SVRT Experiment 3\svrt_images\generated_images\results_problem_10\sample_0_0012.png,C:\Users\subject\Desktop\SVRT Experiments\SVRT Experiment 3\svrt_images\generated_images\results_problem_14\sample_1_0005.png,,,,,,,,,,,,,,,,,,,,0,3,3,3,0,19,19,19,,,,,,,,,,,,,,f,14,A,A,22,1,Correct!,1.2633509000297636,878.8150921999477,None,878.8150921999477,None,880.0994247999042,None,,,,,88,001,2023-05-30_12h52.38.514,uncolored_sorted,2021.2.3,59.939030001008035,
C:\Users\subject\Desktop\SVRT Experiments\SVRT Experiment 3\svrt_images\generated_images\results_problem_14,,,C:\Users\subject\Desktop\SVRT Experiments\SVRT Experiment 3\svrt_images\generated_images\results_problem_10\sample_0_0012.png,C:\Users\subject\Desktop\SVRT Experiments\SVRT Experiment 3\svrt_images\generated_images\results_problem_14\sample_1_0009.png,,,,,,,,,,,,,,,,,,,,0,3,3,3,0,20,20,20,,,,,,,,,,,,,,f,14,A,A,22,1,Correct!,1.7547973000910133,881.2836638998706,None,881.2836638998706,None,883.0683356998488,None,,,,,88,001,2023-05-30_12h52.38.514,uncolored_sorted,2021.2.3,59.939030001008035,
C:\Users\subject\Desktop\SVRT Experiments\SVRT Experiment 3\svrt_images\generated_images\results_problem_14,,,C:\Users\subject\Desktop\SVRT Experiments\SVRT Experiment 3\svrt_images\generated_images\results_problem_10\sample_0_0012.png,C:\Users\subject\Desktop\SVRT Experiments\SVRT Experiment 3\svrt_images\generated_images\results_problem_14\sample_1_0001.png,,,,,,,,,,,,,,,,,,,,0,3,3,3,0,21,21,21,,,,,,,,,,,,,,j,14,B,A,22,0,Incorrect!,0.9778744000941515,884.2525744999293,None,884.2525744999293,None,885.2699922998436,None,,,,,88,001,2023-05-30_12h52.38.514,uncolored_sorted,2021.2.3,59.939030001008035,
C:\Users\subject\Desktop\SVRT Experiments\SVRT Experiment 3\svrt_images\generated_images\results_problem_14,,,C:\Users\subject\Desktop\SVRT Experiments\SVRT Experiment 3\svrt_images\generated_images\results_problem_10\sample_0_0012.png,C:\Users\subject\Desktop\SVRT Experiments\SVRT Experiment 3\svrt_images\generated_images\results_problem_14\sample_0_0015.png,,,,,,,,,,,,,,,,,,,,0,3,3,3,0,22,22,22,,,,,,,,,,,,,,j,14,B,B,22,1,Correct!,0.7188424000050873,886.4875870998949,None,886.4875870998949,None,887.2381153998431,None,,,,,88,001,2023-05-30_12h52.38.514,uncolored_sorted,2021.2.3,59.939030001008035,
C:\Users\subject\Desktop\SVRT Experiments\SVRT Experiment 3\svrt_images\generated_images\results_problem_14,,,C:\Users\subject\Desktop\SVRT Experiments\SVRT Experiment 3\svrt_images\generated_images\results_problem_10\sample_0_0012.png,C:\Users\subject\Desktop\SVRT Experiments\SVRT Experiment 3\svrt_images\generated_images\results_problem_14\sample_0_0006.png,,,,,,,,,,,,,,,,,,,,0,3,3,3,0,23,23,23,,,,,,,,,,,,,,j,14,B,B,22,1,Correct!,1.630614000139758,888.4557333998382,None,888.4557333998382,None,890.1069536998402,None,,,,,88,001,2023-05-30_12h52.38.514,uncolored_sorted,2021.2.3,59.939030001008035,
C:\Users\subject\Desktop\SVRT Experiments\SVRT Experiment 3\svrt_images\generated_images\results_problem_14,,,C:\Users\subject\Desktop\SVRT Experiments\SVRT Experiment 3\svrt_images\generated_images\results_problem_10\sample_0_0012.png,C:\Users\subject\Desktop\SVRT Experiments\SVRT Experiment 3\svrt_images\generated_images\results_problem_14\sample_1_0000.png,,,,,,,,,,,,,,,,,,,,0,3,3,3,0,24,24,24,,,,,,,,,,,,,,f,14,A,A,22,1,Correct!,0.7538285001646727,891.3245679999236,None,891.3245679999236,None,892.1251611998305,None,,,,,88,001,2023-05-30_12h52.38.514,uncolored_sorted,2021.2.3,59.939030001008035,
C:\Users\subject\Desktop\SVRT Experiments\SVRT Experiment 3\svrt_images\generated_images\results_problem_14,,,C:\Users\subject\Desktop\SVRT Experiments\SVRT Experiment 3\svrt_images\generated_images\results_problem_10\sample_0_0012.png,C:\Users\subject\Desktop\SVRT Experiments\SVRT Experiment 3\svrt_images\generated_images\results_problem_14\sample_0_0010.png,,,,,,,,,,,,,,,,,,,,0,3,3,3,0,25,25,25,,,,,,,,,,,,,,f,14,A,B,22,0,Incorrect!,0.5989209001418203,893.3594292998314,None,893.3594292998314,None,893.9765396998264,None,,,,,88,001,2023-05-30_12h52.38.514,uncolored_sorted,2021.2.3,59.939030001008035,
C:\Users\subject\Desktop\SVRT Experiments\SVRT Experiment 3\svrt_images\generated_images\results_problem_14,,,C:\Users\subject\Desktop\SVRT Experiments\SVRT Experiment 3\svrt_images\generated_images\results_problem_10\sample_0_0012.png,C:\Users\subject\Desktop\SVRT Experiments\SVRT Experiment 3\svrt_images\generated_images\results_problem_14\sample_1_0003.png,,,,,,,,,,,,,,,,,,,,0,3,3,3,0,26,26,26,,,,,,,,,,,,,,f,14,A,A,22,1,Correct!,3.7315295001026243,895.210832899902,None,895.210832899902,None,898.9803173998371,None,,,,,88,001,2023-05-30_12h52.38.514,uncolored_sorted,2021.2.3,59.939030001008035,
C:\Users\subject\Desktop\SVRT Experiments\SVRT Experiment 3\svrt_images\generated_images\results_problem_14,,,C:\Users\subject\Desktop\SVRT Experiments\SVRT Experiment 3\svrt_images\generated_images\results_problem_10\sample_0_0012.png,C:\Users\subject\Desktop\SVRT Experiments\SVRT Experiment 3\svrt_images\generated_images\results_problem_14\sample_1_0006.png,,,,,,,,,,,,,,,,,,,,0,3,3,3,0,27,27,27,,,,,,,,,,,,,,f,14,A,A,22,1,Correct!,2.3830375000834465,900.2312811999582,None,900.2312811999582,None,902.6497607999481,None,,,,,88,001,2023-05-30_12h52.38.514,uncolored_sorted,2021.2.3,59.939030001008035,
C:\Users\subject\Desktop\SVRT Experiments\SVRT Experiment 3\svrt_images\generated_images\results_problem_14,,,C:\Users\subject\Desktop\SVRT Experiments\SVRT Experiment 3\svrt_images\generated_images\results_problem_10\sample_0_0012.png,C:\Users\subject\Desktop\SVRT Experiments\SVRT Experiment 3\svrt_images\generated_images\results_problem_14\sample_0_0011.png,,,,,,,,,,,,,,,,,,,,0,3,3,3,0,28,28,28,,,,,,,,,,,,,,j,14,B,B,22,1,Correct!,1.0808561001904309,903.9173945998773,None,903.9173945998773,None,905.0348958000541,None,,,,,88,001,2023-05-30_12h52.38.514,uncolored_sorted,2021.2.3,59.939030001008035,
C:\Users\subject\Desktop\SVRT Experiments\SVRT Experiment 3\svrt_images\generated_images\results_problem_14,,,C:\Users\subject\Desktop\SVRT Experiments\SVRT Experiment 3\svrt_images\generated_images\results_problem_10\sample_0_0012.png,C:\Users\subject\Desktop\SVRT Experiments\SVRT Experiment 3\svrt_images\generated_images\results_problem_14\sample_0_0012.png,,,,,,,,,,,,,,,,,,,,0,3,3,3,0,29,29,29,,,,,,,,,,,,,,f,14,A,B,22,0,Incorrect!,1.6797408999409527,906.3025142999832,None,906.3025142999832,None,908.0204815999605,None,,,,,88,001,2023-05-30_12h52.38.514,uncolored_sorted,2021.2.3,59.939030001008035,
C:\Users\subject\Desktop\SVRT Experiments\SVRT Experiment 3\svrt_images\generated_images\results_problem_14,,,C:\Users\subject\Desktop\SVRT Experiments\SVRT Experiment 3\svrt_images\generated_images\results_problem_10\sample_0_0012.png,C:\Users\subject\Desktop\SVRT Experiments\SVRT Experiment 3\svrt_images\generated_images\results_problem_14\sample_0_0007.png,,,,,,,,,,,,,,,,,,,,0,3,3,3,0,30,30,30,,,,,,,,,,,,,,f,14,A,B,22,0,Incorrect!,3.005497799953446,909.3047899999656,None,909.3047899999656,None,912.3643258998636,None,,,,,88,001,2023-05-30_12h52.38.514,uncolored_sorted,2021.2.3,59.939030001008035,
C:\Users\subject\Desktop\SVRT Experiments\SVRT Experiment 3\svrt_images\generated_images\results_problem_14,,,C:\Users\subject\Desktop\SVRT Experiments\SVRT Experiment 3\svrt_images\generated_images\results_problem_10\sample_0_0012.png,C:\Users\subject\Desktop\SVRT Experiments\SVRT Experiment 3\svrt_images\generated_images\results_problem_14\sample_1_0012.png,,,,,,,,,,,,,,,,,,,,0,3,3,3,0,31,31,31,,,,,,,,,,,,,,f,14,A,A,22,1,Correct!,0.9075619999784976,913.7148197998758,None,913.7148197998758,None,914.6660580998287,None,,,,,88,001,2023-05-30_12h52.38.514,uncolored_sorted,2021.2.3,59.939030001008035,
C:\Users\subject\Desktop\SVRT Experiments\SVRT Experiment 3\svrt_images\generated_images\results_problem_14,,,C:\Users\subject\Desktop\SVRT Experiments\SVRT Experiment 3\svrt_images\generated_images\results_problem_10\sample_0_0012.png,C:\Users\subject\Desktop\SVRT Experiments\SVRT Experiment 3\svrt_images\generated_images\results_problem_14\sample_0_0016.png,,,,,,,,,,,,,,,,,,,,0,3,3,3,0,32,32,32,,,,,,,,,,,,,,j,14,B,B,22,1,Correct!,1.6799438998568803,915.99842790002,None,915.99842790002,None,917.7310329000466,None,,,,,88,001,2023-05-30_12h52.38.514,uncolored_sorted,2021.2.3,59.939030001008035,
C:\Users\subject\Desktop\SVRT Experiments\SVRT Experiment 3\svrt_images\generated_images\results_problem_14,,,C:\Users\subject\Desktop\SVRT Experiments\SVRT Experiment 3\svrt_images\generated_images\results_problem_10\sample_0_0012.png,C:\Users\subject\Desktop\SVRT Experiments\SVRT Experiment 3\svrt_images\generated_images\results_problem_14\sample_1_0011.png,,,,,,,,,,,,,,,,,,,,0,3,3,3,0,33,33,33,,,,,,,,,,,,,,j,14,B,A,22,0,Incorrect!,2.5274523999542,919.062964099925,None,919.062964099925,None,921.6437210999429,None,,,,,88,001,2023-05-30_12h52.38.514,uncolored_sorted,2021.2.3,59.939030001008035,
C:\Users\subject\Desktop\SVRT Experiments\SVRT Experiment 3\svrt_images\generated_images\results_problem_14,,,C:\Users\subject\Desktop\SVRT Experiments\SVRT Experiment 3\svrt_images\generated_images\results_problem_10\sample_0_0012.png,,,,,,,,,,,,,,,,,,,,,0,3,3,3,0,25,25,25,,,,,,,,,,,,,,,,,,,,,,,,,,,,922.6487292998936,922.6487292998936,space,1.0380040002055466,88,001,2023-05-30_12h52.38.514,uncolored_sorted,2021.2.3,59.939030001008035,
C:\Users\subject\Desktop\SVRT Experiments\SVRT Experiment 3\svrt_images\generated_images\results_problem_23,,,C:\Users\subject\Desktop\SVRT Experiments\SVRT Experiment 3\svrt_images\generated_images\results_problem_10\sample_0_0012.png,,C:\Users\subject\Desktop\SVRT Experiments\SVRT Experiment 3\svrt_images\generated_images\results_problem_23\sample_0_0014.png,,,,,,,,,,,,,,,,,,,0,4,4,4,0,0,0,0,,,,,,,,,,,,,,f,23,A,B,22,0,Incorrect!,9.505774399964139,923.7328498000279,None,923.7328498000279,None,933.2568699000403,None,,,,,88,001,2023-05-30_12h52.38.514,uncolored_sorted,2021.2.3,59.939030001008035,
C:\Users\subject\Desktop\SVRT Experiments\SVRT Experiment 3\svrt_images\generated_images\results_problem_23,,,C:\Users\subject\Desktop\SVRT Experiments\SVRT Experiment 3\svrt_images\generated_images\results_problem_10\sample_0_0012.png,,C:\Users\subject\Desktop\SVRT Experiments\SVRT Experiment 3\svrt_images\generated_images\results_problem_23\sample_1_0012.png,,,,,,,,,,,,,,,,,,,0,4,4,4,0,1,1,1,,,,,,,,,,,,,,f,23,A,A,22,1,Correct!,2.5716307000257075,934.2668949998915,None,934.2668949998915,None,936.859438000014,None,,,,,88,001,2023-05-30_12h52.38.514,uncolored_sorted,2021.2.3,59.939030001008035,
C:\Users\subject\Desktop\SVRT Experiments\SVRT Experiment 3\svrt_images\generated_images\results_problem_23,,,C:\Users\subject\Desktop\SVRT Experiments\SVRT Experiment 3\svrt_images\generated_images\results_problem_10\sample_0_0012.png,,C:\Users\subject\Desktop\SVRT Experiments\SVRT Experiment 3\svrt_images\generated_images\results_problem_23\sample_1_0000.png,,,,,,,,,,,,,,,,,,,0,4,4,4,0,2,2,2,,,,,,,,,,,,,,f,23,A,A,22,1,Correct!,1.6229669998865575,937.879519399954,None,937.879519399954,None,939.5279645000119,None,,,,,88,001,2023-05-30_12h52.38.514,uncolored_sorted,2021.2.3,59.939030001008035,
C:\Users\subject\Desktop\SVRT Experiments\SVRT Experiment 3\svrt_images\generated_images\results_problem_23,,,C:\Users\subject\Desktop\SVRT Experiments\SVRT Experiment 3\svrt_images\generated_images\results_problem_10\sample_0_0012.png,,C:\Users\subject\Desktop\SVRT Experiments\SVRT Experiment 3\svrt_images\generated_images\results_problem_23\sample_0_0003.png,,,,,,,,,,,,,,,,,,,0,4,4,4,0,3,3,3,,,,,,,,,,,,,,j,23,B,B,22,1,Correct!,1.0993325000163168,940.5551606998779,None,940.5551606998779,None,941.6796823998448,None,,,,,88,001,2023-05-30_12h52.38.514,uncolored_sorted,2021.2.3,59.939030001008035,
C:\Users\subject\Desktop\SVRT Experiments\SVRT Experiment 3\svrt_images\generated_images\results_problem_23,,,C:\Users\subject\Desktop\SVRT Experiments\SVRT Experiment 3\svrt_images\generated_images\results_problem_10\sample_0_0012.png,,C:\Users\subject\Desktop\SVRT Experiments\SVRT Experiment 3\svrt_images\generated_images\results_problem_23\sample_1_0016.png,,,,,,,,,,,,,,,,,,,0,4,4,4,0,4,4,4,,,,,,,,,,,,,,j,23,B,A,22,0,Incorrect!,2.479723200201988,942.7187051998917,None,942.7187051998917,None,945.2158361999318,None,,,,,88,001,2023-05-30_12h52.38.514,uncolored_sorted,2021.2.3,59.939030001008035,
C:\Users\subject\Desktop\SVRT Experiments\SVRT Experiment 3\svrt_images\generated_images\results_problem_23,,,C:\Users\subject\Desktop\SVRT Experiments\SVRT Experiment 3\svrt_images\generated_images\results_problem_10\sample_0_0012.png,,C:\Users\subject\Desktop\SVRT Experiments\SVRT Experiment 3\svrt_images\generated_images\results_problem_23\sample_1_0006.png,,,,,,,,,,,,,,,,,,,0,4,4,4,0,5,5,5,,,,,,,,,,,,,,j,23,B,A,22,0,Incorrect!,1.1256082998588681,946.2647551000118,None,946.2647551000118,None,947.4173649998847,None,,,,,88,001,2023-05-30_12h52.38.514,uncolored_sorted,2021.2.3,59.939030001008035,
C:\Users\subject\Desktop\SVRT Experiments\SVRT Experiment 3\svrt_images\generated_images\results_problem_23,,,C:\Users\subject\Desktop\SVRT Experiments\SVRT Experiment 3\svrt_images\generated_images\results_problem_10\sample_0_0012.png,,C:\Users\subject\Desktop\SVRT Experiments\SVRT Experiment 3\svrt_images\generated_images\results_problem_23\sample_1_0013.png,,,,,,,,,,,,,,,,,,,0,4,4,4,0,6,6,6,,,,,,,,,,,,,,j,23,B,A,22,0,Incorrect!,0.914235700154677,948.4759341999888,None,948.4759341999888,None,949.4187210998498,None,,,,,88,001,2023-05-30_12h52.38.514,uncolored_sorted,2021.2.3,59.939030001008035,
C:\Users\subject\Desktop\SVRT Experiments\SVRT Experiment 3\svrt_images\generated_images\results_problem_23,,,C:\Users\subject\Desktop\SVRT Experiments\SVRT Experiment 3\svrt_images\generated_images\results_problem_10\sample_0_0012.png,,C:\Users\subject\Desktop\SVRT Experiments\SVRT Experiment 3\svrt_images\generated_images\results_problem_23\sample_1_0011.png,,,,,,,,,,,,,,,,,,,0,4,4,4,0,7,7,7,,,,,,,,,,,,,,f,23,A,A,22,1,Correct!,1.5344950000289828,950.4798065999057,None,950.4798065999057,None,952.0373213998973,None,,,,,88,001,2023-05-30_12h52.38.514,uncolored_sorted,2021.2.3,59.939030001008035,
C:\Users\subject\Desktop\SVRT Experiments\SVRT Experiment 3\svrt_images\generated_images\results_problem_23,,,C:\Users\subject\Desktop\SVRT Experiments\SVRT Experiment 3\svrt_images\generated_images\results_problem_10\sample_0_0012.png,,C:\Users\subject\Desktop\SVRT Experiments\SVRT Experiment 3\svrt_images\generated_images\results_problem_23\sample_0_0000.png,,,,,,,,,,,,,,,,,,,0,4,4,4,0,8,8,8,,,,,,,,,,,,,,j,23,B,B,22,1,Correct!,1.5408268999308348,953.1135423998348,None,953.1135423998348,None,954.6728610999417,None,,,,,88,001,2023-05-30_12h52.38.514,uncolored_sorted,2021.2.3,59.939030001008035,
C:\Users\subject\Desktop\SVRT Experiments\SVRT Experiment 3\svrt_images\generated_images\results_problem_23,,,C:\Users\subject\Desktop\SVRT Experiments\SVRT Experiment 3\svrt_images\generated_images\results_problem_10\sample_0_0012.png,,C:\Users\subject\Desktop\SVRT Experiments\SVRT Experiment 3\svrt_images\generated_images\results_problem_23\sample_0_0013.png,,,,,,,,,,,,,,,,,,,0,4,4,4,0,9,9,9,,,,,,,,,,,,,,f,23,A,B,22,0,Incorrect!,1.65185710019432,955.7544734999537,None,955.7544734999537,None,957.4246761999093,None,,,,,88,001,2023-05-30_12h52.38.514,uncolored_sorted,2021.2.3,59.939030001008035,
C:\Users\subject\Desktop\SVRT Experiments\SVRT Experiment 3\svrt_images\generated_images\results_problem_23,,,C:\Users\subject\Desktop\SVRT Experiments\SVRT Experiment 3\svrt_images\generated_images\results_problem_10\sample_0_0012.png,,C:\Users\subject\Desktop\SVRT Experiments\SVRT Experiment 3\svrt_images\generated_images\results_problem_23\sample_0_0011.png,,,,,,,,,,,,,,,,,,,0,4,4,4,0,10,10,10,,,,,,,,,,,,,,j,23,B,B,22,1,Correct!,6.158939599990845,958.5113854999654,None,958.5113854999654,None,964.6969055000227,None,,,,,88,001,2023-05-30_12h52.38.514,uncolored_sorted,2021.2.3,59.939030001008035,
C:\Users\subject\Desktop\SVRT Experiments\SVRT Experiment 3\svrt_images\generated_images\results_problem_23,,,C:\Users\subject\Desktop\SVRT Experiments\SVRT Experiment 3\svrt_images\generated_images\results_problem_10\sample_0_0012.png,,C:\Users\subject\Desktop\SVRT Experiments\SVRT Experiment 3\svrt_images\generated_images\results_problem_23\sample_0_0006.png,,,,,,,,,,,,,,,,,,,0,4,4,4,0,11,11,11,,,,,,,,,,,,,,j,23,B,B,22,1,Correct!,2.3581878999248147,965.8001031999011,None,965.8001031999011,None,968.1827851999551,None,,,,,88,001,2023-05-30_12h52.38.514,uncolored_sorted,2021.2.3,59.939030001008035,
C:\Users\subject\Desktop\SVRT Experiments\SVRT Experiment 3\svrt_images\generated_images\results_problem_23,,,C:\Users\subject\Desktop\SVRT Experiments\SVRT Experiment 3\svrt_images\generated_images\results_problem_10\sample_0_0012.png,,C:\Users\subject\Desktop\SVRT Experiments\SVRT Experiment 3\svrt_images\generated_images\results_problem_23\sample_0_0008.png,,,,,,,,,,,,,,,,,,,0,4,4,4,0,12,12,12,,,,,,,,,,,,,,j,23,B,B,22,1,Correct!,1.6818278999999166,969.2923329998739,None,969.2923329998739,None,971.0016321998555,None,,,,,88,001,2023-05-30_12h52.38.514,uncolored_sorted,2021.2.3,59.939030001008035,
C:\Users\subject\Desktop\SVRT Experiments\SVRT Experiment 3\svrt_images\generated_images\results_problem_23,,,C:\Users\subject\Desktop\SVRT Experiments\SVRT Experiment 3\svrt_images\generated_images\results_problem_10\sample_0_0012.png,,C:\Users\subject\Desktop\SVRT Experiments\SVRT Experiment 3\svrt_images\generated_images\results_problem_23\sample_0_0012.png,,,,,,,,,,,,,,,,,,,0,4,4,4,0,13,13,13,,,,,,,,,,,,,,j,23,B,B,22,1,Correct!,0.6773367999121547,972.1206998999696,None,972.1206998999696,None,972.8195658000186,None,,,,,88,001,2023-05-30_12h52.38.514,uncolored_sorted,2021.2.3,59.939030001008035,
C:\Users\subject\Desktop\SVRT Experiments\SVRT Experiment 3\svrt_images\generated_images\results_problem_23,,,C:\Users\subject\Desktop\SVRT Experiments\SVRT Experiment 3\svrt_images\generated_images\results_problem_10\sample_0_0012.png,,C:\Users\subject\Desktop\SVRT Experiments\SVRT Experiment 3\svrt_images\generated_images\results_problem_23\sample_1_0014.png,,,,,,,,,,,,,,,,,,,0,4,4,4,0,14,14,14,,,,,,,,,,,,,,f,23,A,A,22,1,Correct!,0.6990243000909686,973.946992999874,None,973.946992999874,None,974.6709628999233,None,,,,,88,001,2023-05-30_12h52.38.514,uncolored_sorted,2021.2.3,59.939030001008035,
C:\Users\subject\Desktop\SVRT Experiments\SVRT Experiment 3\svrt_images\generated_images\results_problem_23,,,C:\Users\subject\Desktop\SVRT Experiments\SVRT Experiment 3\svrt_images\generated_images\results_problem_10\sample_0_0012.png,,C:\Users\subject\Desktop\SVRT Experiments\SVRT Experiment 3\svrt_images\generated_images\results_problem_23\sample_1_0010.png,,,,,,,,,,,,,,,,,,,0,4,4,4,0,15,15,15,,,,,,,,,,,,,,f,23,A,A,22,1,Correct!,0.8058811998926103,975.8241157999728,None,975.8241157999728,None,976.6557432999834,None,,,,,88,001,2023-05-30_12h52.38.514,uncolored_sorted,2021.2.3,59.939030001008035,
C:\Users\subject\Desktop\SVRT Experiments\SVRT Experiment 3\svrt_images\generated_images\results_problem_23,,,C:\Users\subject\Desktop\SVRT Experiments\SVRT Experiment 3\svrt_images\generated_images\results_problem_10\sample_0_0012.png,,C:\Users\subject\Desktop\SVRT Experiments\SVRT Experiment 3\svrt_images\generated_images\results_problem_23\sample_0_0009.png,,,,,,,,,,,,,,,,,,,0,4,4,4,0,16,16,16,,,,,,,,,,,,,,j,23,B,B,22,1,Correct!,1.4291985998861492,977.8007383998483,None,977.8007383998483,None,979.2410760000348,None,,,,,88,001,2023-05-30_12h52.38.514,uncolored_sorted,2021.2.3,59.939030001008035,
C:\Users\subject\Desktop\SVRT Experiments\SVRT Experiment 3\svrt_images\generated_images\results_problem_23,,,C:\Users\subject\Desktop\SVRT Experiments\SVRT Experiment 3\svrt_images\generated_images\results_problem_10\sample_0_0012.png,,C:\Users\subject\Desktop\SVRT Experiments\SVRT Experiment 3\svrt_images\generated_images\results_problem_23\sample_1_0003.png,,,,,,,,,,,,,,,,,,,0,4,4,4,0,17,17,17,,,,,,,,,,,,,,,,,,,,,,,,,,,,980.2420723999385,980.2420723999385,space,0.996137399924919,88,001,2023-05-30_12h52.38.514,uncolored_sorted,2021.2.3,59.939030001008035,
C:\Users\subject\Desktop\SVRT Experiments\SVRT Experiment 3\svrt_images\generated_images\results_problem_17,,,C:\Users\subject\Desktop\SVRT Experiments\SVRT Experiment 3\svrt_images\generated_images\results_problem_10\sample_0_0012.png,,C:\Users\subject\Desktop\SVRT Experiments\SVRT Experiment 3\svrt_images\generated_images\results_problem_23\sample_1_0003.png,C:\Users\subject\Desktop\SVRT Experiments\SVRT Experiment 3\svrt_images\generated_images\results_problem_17\sample_0_0015.png,,,,,,,,,,,,,,,,,,0,5,5,5,0,0,0,0,,,,,,,,,,,,,,f,17,A,B,22,0,Incorrect!,6.586737900041044,981.2595190999564,None,981.2595190999564,None,987.8645273998845,None,,,,,88,001,2023-05-30_12h52.38.514,uncolored_sorted,2021.2.3,59.939030001008035,
C:\Users\subject\Desktop\SVRT Experiments\SVRT Experiment 3\svrt_images\generated_images\results_problem_17,,,C:\Users\subject\Desktop\SVRT Experiments\SVRT Experiment 3\svrt_images\generated_images\results_problem_10\sample_0_0012.png,,C:\Users\subject\Desktop\SVRT Experiments\SVRT Experiment 3\svrt_images\generated_images\results_problem_23\sample_1_0003.png,C:\Users\subject\Desktop\SVRT Experiments\SVRT Experiment 3\svrt_images\generated_images\results_problem_17\sample_0_0013.png,,,,,,,,,,,,,,,,,,0,5,5,5,0,1,1,1,,,,,,,,,,,,,,f,17,A,B,22,0,Incorrect!,0.9905785000883043,988.8715649000369,None,988.8715649000369,None,989.8827924998477,None,,,,,88,001,2023-05-30_12h52.38.514,uncolored_sorted,2021.2.3,59.939030001008035,
C:\Users\subject\Desktop\SVRT Experiments\SVRT Experiment 3\svrt_images\generated_images\results_problem_17,,,C:\Users\subject\Desktop\SVRT Experiments\SVRT Experiment 3\svrt_images\generated_images\results_problem_10\sample_0_0012.png,,C:\Users\subject\Desktop\SVRT Experiments\SVRT Experiment 3\svrt_images\generated_images\results_problem_23\sample_1_0003.png,C:\Users\subject\Desktop\SVRT Experiments\SVRT Experiment 3\svrt_images\generated_images\results_problem_17\sample_1_0015.png,,,,,,,,,,,,,,,,,,0,5,5,5,0,2,2,2,,,,,,,,,,,,,,j,17,B,A,22,0,Incorrect!,1.2659328998997808,990.9002703998704,None,990.9002703998704,None,992.1845745998435,None,,,,,88,001,2023-05-30_12h52.38.514,uncolored_sorted,2021.2.3,59.939030001008035,
C:\Users\subject\Desktop\SVRT Experiments\SVRT Experiment 3\svrt_images\generated_images\results_problem_17,,,C:\Users\subject\Desktop\SVRT Experiments\SVRT Experiment 3\svrt_images\generated_images\results_problem_10\sample_0_0012.png,,C:\Users\subject\Desktop\SVRT Experiments\SVRT Experiment 3\svrt_images\generated_images\results_problem_23\sample_1_0003.png,C:\Users\subject\Desktop\SVRT Experiments\SVRT Experiment 3\svrt_images\generated_images\results_problem_17\sample_0_0003.png,,,,,,,,,,,,,,,,,,0,5,5,5,0,3,3,3,,,,,,,,,,,,,,j,17,B,B,22,1,Correct!,3.2320570000447333,993.1980300999712,None,993.1980300999712,None,996.45438869996,None,,,,,88,001,2023-05-30_12h52.38.514,uncolored_sorted,2021.2.3,59.939030001008035,
C:\Users\subject\Desktop\SVRT Experiments\SVRT Experiment 3\svrt_images\generated_images\results_problem_17,,,C:\Users\subject\Desktop\SVRT Experiments\SVRT Experiment 3\svrt_images\generated_images\results_problem_10\sample_0_0012.png,,C:\Users\subject\Desktop\SVRT Experiments\SVRT Experiment 3\svrt_images\generated_images\results_problem_23\sample_1_0003.png,C:\Users\subject\Desktop\SVRT Experiments\SVRT Experiment 3\svrt_images\generated_images\results_problem_17\sample_0_0000.png,,,,,,,,,,,,,,,,,,0,5,5,5,0,4,4,4,,,,,,,,,,,,,,j,17,B,B,22,1,Correct!,1.3005954001564533,997.4894494998734,None,997.4894494998734,None,998.8228280998301,None,,,,,88,001,2023-05-30_12h52.38.514,uncolored_sorted,2021.2.3,59.939030001008035,
C:\Users\subject\Desktop\SVRT Experiments\SVRT Experiment 3\svrt_images\generated_images\results_problem_17,,,C:\Users\subject\Desktop\SVRT Experiments\SVRT Experiment 3\svrt_images\generated_images\results_problem_10\sample_0_0012.png,,C:\Users\subject\Desktop\SVRT Experiments\SVRT Experiment 3\svrt_images\generated_images\results_problem_23\sample_1_0003.png,C:\Users\subject\Desktop\SVRT Experiments\SVRT Experiment 3\svrt_images\generated_images\results_problem_17\sample_1_0013.png,,,,,,,,,,,,,,,,,,0,5,5,5,0,5,5,5,,,,,,,,,,,,,,f,17,A,A,22,1,Correct!,0.9165260000154376,999.8655691000167,None,999.8655691000167,None,1000.8077128999867,None,,,,,88,001,2023-05-30_12h52.38.514,uncolored_sorted,2021.2.3,59.939030001008035,
C:\Users\subject\Desktop\SVRT Experiments\SVRT Experiment 3\svrt_images\generated_images\results_problem_17,,,C:\Users\subject\Desktop\SVRT Experiments\SVRT Experiment 3\svrt_images\generated_images\results_problem_10\sample_0_0012.png,,C:\Users\subject\Desktop\SVRT Experiments\SVRT Experiment 3\svrt_images\generated_images\results_problem_23\sample_1_0003.png,C:\Users\subject\Desktop\SVRT Experiments\SVRT Experiment 3\svrt_images\generated_images\results_problem_17\sample_0_0014.png,,,,,,,,,,,,,,,,,,0,5,5,5,0,6,6,6,,,,,,,,,,,,,,f,17,A,B,22,0,Incorrect!,0.7850486999377608,1001.8610167999286,None,1001.8610167999286,None,1002.6755043000448,None,,,,,88,001,2023-05-30_12h52.38.514,uncolored_sorted,2021.2.3,59.939030001008035,
C:\Users\subject\Desktop\SVRT Experiments\SVRT Experiment 3\svrt_images\generated_images\results_problem_17,,,C:\Users\subject\Desktop\SVRT Experiments\SVRT Experiment 3\svrt_images\generated_images\results_problem_10\sample_0_0012.png,,C:\Users\subject\Desktop\SVRT Experiments\SVRT Experiment 3\svrt_images\generated_images\results_problem_23\sample_1_0003.png,C:\Users\subject\Desktop\SVRT Experiments\SVRT Experiment 3\svrt_images\generated_images\results_problem_17\sample_0_0008.png,,,,,,,,,,,,,,,,,,0,5,5,5,0,7,7,7,,,,,,,,,,,,,,j,17,B,B,22,1,Correct!,1.223881799960509,1003.7341622000095,None,1003.7341622000095,None,1004.9772302999627,None,,,,,88,001,2023-05-30_12h52.38.514,uncolored_sorted,2021.2.3,59.939030001008035,
C:\Users\subject\Desktop\SVRT Experiments\SVRT Experiment 3\svrt_images\generated_images\results_problem_17,,,C:\Users\subject\Desktop\SVRT Experiments\SVRT Experiment 3\svrt_images\generated_images\results_problem_10\sample_0_0012.png,,C:\Users\subject\Desktop\SVRT Experiments\SVRT Experiment 3\svrt_images\generated_images\results_problem_23\sample_1_0003.png,C:\Users\subject\Desktop\SVRT Experiments\SVRT Experiment 3\svrt_images\generated_images\results_problem_17\sample_1_0003.png,,,,,,,,,,,,,,,,,,0,5,5,5,0,8,8,8,,,,,,,,,,,,,,f,17,A,A,22,1,Correct!,1.2601747999433428,1006.0578200998716,None,1006.0578200998716,None,1007.3457015999593,None,,,,,88,001,2023-05-30_12h52.38.514,uncolored_sorted,2021.2.3,59.939030001008035,
C:\Users\subject\Desktop\SVRT Experiments\SVRT Experiment 3\svrt_images\generated_images\results_problem_17,,,C:\Users\subject\Desktop\SVRT Experiments\SVRT Experiment 3\svrt_images\generated_images\results_problem_10\sample_0_0012.png,,C:\Users\subject\Desktop\SVRT Experiments\SVRT Experiment 3\svrt_images\generated_images\results_problem_23\sample_1_0003.png,C:\Users\subject\Desktop\SVRT Experiments\SVRT Experiment 3\svrt_images\generated_images\results_problem_17\sample_0_0012.png,,,,,,,,,,,,,,,,,,0,5,5,5,0,9,9,9,,,,,,,,,,,,,,f,17,A,B,22,0,Incorrect!,0.7705473999958485,1008.4112074999139,None,1008.4112074999139,None,1009.2137472999748,None,,,,,88,001,2023-05-30_12h52.38.514,uncolored_sorted,2021.2.3,59.939030001008035,
C:\Users\subject\Desktop\SVRT Experiments\SVRT Experiment 3\svrt_images\generated_images\results_problem_17,,,C:\Users\subject\Desktop\SVRT Experiments\SVRT Experiment 3\svrt_images\generated_images\results_problem_10\sample_0_0012.png,,C:\Users\subject\Desktop\SVRT Experiments\SVRT Experiment 3\svrt_images\generated_images\results_problem_23\sample_1_0003.png,C:\Users\subject\Desktop\SVRT Experiments\SVRT Experiment 3\svrt_images\generated_images\results_problem_17\sample_1_0007.png,,,,,,,,,,,,,,,,,,0,5,5,5,0,10,10,10,,,,,,,,,,,,,,f,17,A,A,22,1,Correct!,2.1164490999653935,1010.3132843000349,None,1010.3132843000349,None,1012.4495919998735,None,,,,,88,001,2023-05-30_12h52.38.514,uncolored_sorted,2021.2.3,59.939030001008035,
C:\Users\subject\Desktop\SVRT Experiments\SVRT Experiment 3\svrt_images\generated_images\results_problem_17,,,C:\Users\subject\Desktop\SVRT Experiments\SVRT Experiment 3\svrt_images\generated_images\results_problem_10\sample_0_0012.png,,C:\Users\subject\Desktop\SVRT Experiments\SVRT Experiment 3\svrt_images\generated_images\results_problem_23\sample_1_0003.png,C:\Users\subject\Desktop\SVRT Experiments\SVRT Experiment 3\svrt_images\generated_images\results_problem_17\sample_0_0011.png,,,,,,,,,,,,,,,,,,0,5,5,5,0,11,11,11,,,,,,,,,,,,,,j,17,B,B,22,1,Correct!,1.2093599999789149,1013.5484819000121,None,1013.5484819000121,None,1014.7846923999023,None,,,,,88,001,2023-05-30_12h52.38.514,uncolored_sorted,2021.2.3,59.939030001008035,
C:\Users\subject\Desktop\SVRT Experiments\SVRT Experiment 3\svrt_images\generated_images\results_problem_17,,,C:\Users\subject\Desktop\SVRT Experiments\SVRT Experiment 3\svrt_images\generated_images\results_problem_10\sample_0_0012.png,,C:\Users\subject\Desktop\SVRT Experiments\SVRT Experiment 3\svrt_images\generated_images\results_problem_23\sample_1_0003.png,C:\Users\subject\Desktop\SVRT Experiments\SVRT Experiment 3\svrt_images\generated_images\results_problem_17\sample_0_0016.png,,,,,,,,,,,,,,,,,,0,5,5,5,0,12,12,12,,,,,,,,,,,,,,j,17,B,B,22,1,Correct!,1.69341959990561,1015.8884166998323,None,1015.8884166998323,None,1017.603420099942,None,,,,,88,001,2023-05-30_12h52.38.514,uncolored_sorted,2021.2.3,59.939030001008035,
C:\Users\subject\Desktop\SVRT Experiments\SVRT Experiment 3\svrt_images\generated_images\results_problem_17,,,C:\Users\subject\Desktop\SVRT Experiments\SVRT Experiment 3\svrt_images\generated_images\results_problem_10\sample_0_0012.png,,C:\Users\subject\Desktop\SVRT Experiments\SVRT Experiment 3\svrt_images\generated_images\results_problem_23\sample_1_0003.png,C:\Users\subject\Desktop\SVRT Experiments\SVRT Experiment 3\svrt_images\generated_images\results_problem_17\sample_1_0011.png,,,,,,,,,,,,,,,,,,0,5,5,5,0,13,13,13,,,,,,,,,,,,,,f,17,A,A,22,1,Correct!,0.6997688999399543,1018.7220584000461,None,1018.7220584000461,None,1019.4547814000398,None,,,,,88,001,2023-05-30_12h52.38.514,uncolored_sorted,2021.2.3,59.939030001008035,
C:\Users\subject\Desktop\SVRT Experiments\SVRT Experiment 3\svrt_images\generated_images\results_problem_17,,,C:\Users\subject\Desktop\SVRT Experiments\SVRT Experiment 3\svrt_images\generated_images\results_problem_10\sample_0_0012.png,,C:\Users\subject\Desktop\SVRT Experiments\SVRT Experiment 3\svrt_images\generated_images\results_problem_23\sample_1_0003.png,C:\Users\subject\Desktop\SVRT Experiments\SVRT Experiment 3\svrt_images\generated_images\results_problem_17\sample_0_0006.png,,,,,,,,,,,,,,,,,,0,5,5,5,0,14,14,14,,,,,,,,,,,,,,j,17,B,B,22,1,Correct!,1.142641699872911,1020.5830457999837,None,1020.5830457999837,None,1021.7564415000379,None,,,,,88,001,2023-05-30_12h52.38.514,uncolored_sorted,2021.2.3,59.939030001008035,
C:\Users\subject\Desktop\SVRT Experiments\SVRT Experiment 3\svrt_images\generated_images\results_problem_17,,,C:\Users\subject\Desktop\SVRT Experiments\SVRT Experiment 3\svrt_images\generated_images\results_problem_10\sample_0_0012.png,,C:\Users\subject\Desktop\SVRT Experiments\SVRT Experiment 3\svrt_images\generated_images\results_problem_23\sample_1_0003.png,C:\Users\subject\Desktop\SVRT Experiments\SVRT Experiment 3\svrt_images\generated_images\results_problem_17\sample_1_0016.png,,,,,,,,,,,,,,,,,,0,5,5,5,0,15,15,15,,,,,,,,,,,,,,f,17,A,A,22,1,Correct!,0.8852657000534236,1022.8804425999988,None,1022.8804425999988,None,1023.7913011999335,None,,,,,88,001,2023-05-30_12h52.38.514,uncolored_sorted,2021.2.3,59.939030001008035,
C:\Users\subject\Desktop\SVRT Experiments\SVRT Experiment 3\svrt_images\generated_images\results_problem_17,,,C:\Users\subject\Desktop\SVRT Experiments\SVRT Experiment 3\svrt_images\generated_images\results_problem_10\sample_0_0012.png,,C:\Users\subject\Desktop\SVRT Experiments\SVRT Experiment 3\svrt_images\generated_images\results_problem_23\sample_1_0003.png,C:\Users\subject\Desktop\SVRT Experiments\SVRT Experiment 3\svrt_images\generated_images\results_problem_17\sample_0_0009.png,,,,,,,,,,,,,,,,,,0,5,5,5,0,16,16,16,,,,,,,,,,,,,,f,17,A,B,22,0,Incorrect!,2.2418551000300795,1024.915737599833,None,1024.915737599833,None,1027.177155500045,None,,,,,88,001,2023-05-30_12h52.38.514,uncolored_sorted,2021.2.3,59.939030001008035,
C:\Users\subject\Desktop\SVRT Experiments\SVRT Experiment 3\svrt_images\generated_images\results_problem_17,,,C:\Users\subject\Desktop\SVRT Experiments\SVRT Experiment 3\svrt_images\generated_images\results_problem_10\sample_0_0012.png,,C:\Users\subject\Desktop\SVRT Experiments\SVRT Experiment 3\svrt_images\generated_images\results_problem_23\sample_1_0003.png,C:\Users\subject\Desktop\SVRT Experiments\SVRT Experiment 3\svrt_images\generated_images\results_problem_17\sample_1_0002.png,,,,,,,,,,,,,,,,,,0,5,5,5,0,17,17,17,,,,,,,,,,,,,,f,17,A,A,22,1,Correct!,1.941661500139162,1028.3359968999866,None,1028.3359968999866,None,1030.2903153998777,None,,,,,88,001,2023-05-30_12h52.38.514,uncolored_sorted,2021.2.3,59.939030001008035,
C:\Users\subject\Desktop\SVRT Experiments\SVRT Experiment 3\svrt_images\generated_images\results_problem_17,,,C:\Users\subject\Desktop\SVRT Experiments\SVRT Experiment 3\svrt_images\generated_images\results_problem_10\sample_0_0012.png,,C:\Users\subject\Desktop\SVRT Experiments\SVRT Experiment 3\svrt_images\generated_images\results_problem_23\sample_1_0003.png,C:\Users\subject\Desktop\SVRT Experiments\SVRT Experiment 3\svrt_images\generated_images\results_problem_17\sample_1_0001.png,,,,,,,,,,,,,,,,,,0,5,5,5,0,18,18,18,,,,,,,,,,,,,,f,17,A,A,22,1,Correct!,0.9238617999944836,1031.4497128999792,None,1031.4497128999792,None,1032.3862332999706,None,,,,,88,001,2023-05-30_12h52.38.514,uncolored_sorted,2021.2.3,59.939030001008035,
C:\Users\subject\Desktop\SVRT Experiments\SVRT Experiment 3\svrt_images\generated_images\results_problem_17,,,C:\Users\subject\Desktop\SVRT Experiments\SVRT Experiment 3\svrt_images\generated_images\results_problem_10\sample_0_0012.png,,C:\Users\subject\Desktop\SVRT Experiments\SVRT Experiment 3\svrt_images\generated_images\results_problem_23\sample_1_0003.png,C:\Users\subject\Desktop\SVRT Experiments\SVRT Experiment 3\svrt_images\generated_images\results_problem_17\sample_1_0006.png,,,,,,,,,,,,,,,,,,0,5,5,5,0,19,19,19,,,,,,,,,,,,,,j,17,B,A,22,0,Incorrect!,0.550460500176996,1033.5673901999835,None,1033.5673901999835,None,1034.1324405998457,None,,,,,88,001,2023-05-30_12h52.38.514,uncolored_sorted,2021.2.3,59.939030001008035,
C:\Users\subject\Desktop\SVRT Experiments\SVRT Experiment 3\svrt_images\generated_images\results_problem_17,,,C:\Users\subject\Desktop\SVRT Experiments\SVRT Experiment 3\svrt_images\generated_images\results_problem_10\sample_0_0012.png,,C:\Users\subject\Desktop\SVRT Experiments\SVRT Experiment 3\svrt_images\generated_images\results_problem_23\sample_1_0003.png,C:\Users\subject\Desktop\SVRT Experiments\SVRT Experiment 3\svrt_images\generated_images\results_problem_17\sample_0_0001.png,,,,,,,,,,,,,,,,,,0,5,5,5,0,20,20,20,,,,,,,,,,,,,,j,17,B,B,22,1,Correct!,0.9505274998955429,1035.3107979998458,None,1035.3107979998458,None,1036.2936076999176,None,,,,,88,001,2023-05-30_12h52.38.514,uncolored_sorted,2021.2.3,59.939030001008035,
C:\Users\subject\Desktop\SVRT Experiments\SVRT Experiment 3\svrt_images\generated_images\results_problem_17,,,C:\Users\subject\Desktop\SVRT Experiments\SVRT Experiment 3\svrt_images\generated_images\results_problem_10\sample_0_0012.png,,C:\Users\subject\Desktop\SVRT Experiments\SVRT Experiment 3\svrt_images\generated_images\results_problem_23\sample_1_0003.png,C:\Users\subject\Desktop\SVRT Experiments\SVRT Experiment 3\svrt_images\generated_images\results_problem_17\sample_1_0008.png,,,,,,,,,,,,,,,,,,0,5,5,5,0,21,21,21,,,,,,,,,,,,,,f,17,A,A,22,1,Correct!,0.9195608000736684,1037.4859948998783,None,1037.4859948998783,None,1038.4190000998788,None,,,,,88,001,2023-05-30_12h52.38.514,uncolored_sorted,2021.2.3,59.939030001008035,
C:\Users\subject\Desktop\SVRT Experiments\SVRT Experiment 3\svrt_images\generated_images\results_problem_17,,,C:\Users\subject\Desktop\SVRT Experiments\SVRT Experiment 3\svrt_images\generated_images\results_problem_10\sample_0_0012.png,,C:\Users\subject\Desktop\SVRT Experiments\SVRT Experiment 3\svrt_images\generated_images\results_problem_23\sample_1_0003.png,C:\Users\subject\Desktop\SVRT Experiments\SVRT Experiment 3\svrt_images\generated_images\results_problem_17\sample_1_0010.png,,,,,,,,,,,,,,,,,,0,5,5,5,0,22,22,22,,,,,,,,,,,,,,f,17,A,A,22,1,Correct!,0.6653533999342471,1039.6121661998332,None,1039.6121661998332,None,1040.2870515999384,None,,,,,88,001,2023-05-30_12h52.38.514,uncolored_sorted,2021.2.3,59.939030001008035,
C:\Users\subject\Desktop\SVRT Experiments\SVRT Experiment 3\svrt_images\generated_images\results_problem_17,,,C:\Users\subject\Desktop\SVRT Experiments\SVRT Experiment 3\svrt_images\generated_images\results_problem_10\sample_0_0012.png,,C:\Users\subject\Desktop\SVRT Experiments\SVRT Experiment 3\svrt_images\generated_images\results_problem_23\sample_1_0003.png,C:\Users\subject\Desktop\SVRT Experiments\SVRT Experiment 3\svrt_images\generated_images\results_problem_17\sample_0_0010.png,,,,,,,,,,,,,,,,,,0,5,5,5,0,23,23,23,,,,,,,,,,,,,,j,17,B,B,22,1,Correct!,2.4335308000445366,1041.4920071000233,None,1041.4920071000233,None,1043.9564700999763,None,,,,,88,001,2023-05-30_12h52.38.514,uncolored_sorted,2021.2.3,59.939030001008035,
C:\Users\subject\Desktop\SVRT Experiments\SVRT Experiment 3\svrt_images\generated_images\results_problem_17,,,C:\Users\subject\Desktop\SVRT Experiments\SVRT Experiment 3\svrt_images\generated_images\results_problem_10\sample_0_0012.png,,C:\Users\subject\Desktop\SVRT Experiments\SVRT Experiment 3\svrt_images\generated_images\results_problem_23\sample_1_0003.png,C:\Users\subject\Desktop\SVRT Experiments\SVRT Experiment 3\svrt_images\generated_images\results_problem_17\sample_0_0002.png,,,,,,,,,,,,,,,,,,0,5,5,5,0,24,24,24,,,,,,,,,,,,,,j,17,B,B,22,1,Correct!,0.7992627001367509,1045.1822513998486,None,1045.1822513998486,None,1046.0175856000278,None,,,,,88,001,2023-05-30_12h52.38.514,uncolored_sorted,2021.2.3,59.939030001008035,
C:\Users\subject\Desktop\SVRT Experiments\SVRT Experiment 3\svrt_images\generated_images\results_problem_17,,,C:\Users\subject\Desktop\SVRT Experiments\SVRT Experiment 3\svrt_images\generated_images\results_problem_10\sample_0_0012.png,,C:\Users\subject\Desktop\SVRT Experiments\SVRT Experiment 3\svrt_images\generated_images\results_problem_23\sample_1_0003.png,C:\Users\subject\Desktop\SVRT Experiments\SVRT Experiment 3\svrt_images\generated_images\results_problem_17\sample_0_0004.png,,,,,,,,,,,,,,,,,,0,5,5,5,0,25,25,25,,,,,,,,,,,,,,f,17,A,B,22,0,Incorrect!,0.4431598000228405,1047.258299499983,None,1047.258299499983,None,1047.720033599995,None,,,,,88,001,2023-05-30_12h52.38.514,uncolored_sorted,2021.2.3,59.939030001008035,
C:\Users\subject\Desktop\SVRT Experiments\SVRT Experiment 3\svrt_images\generated_images\results_problem_17,,,C:\Users\subject\Desktop\SVRT Experiments\SVRT Experiment 3\svrt_images\generated_images\results_problem_10\sample_0_0012.png,,C:\Users\subject\Desktop\SVRT Experiments\SVRT Experiment 3\svrt_images\generated_images\results_problem_23\sample_1_0003.png,C:\Users\subject\Desktop\SVRT Experiments\SVRT Experiment 3\svrt_images\generated_images\results_problem_17\sample_1_0014.png,,,,,,,,,,,,,,,,,,0,5,5,5,0,26,26,26,,,,,,,,,,,,,,f,17,A,A,22,1,Correct!,0.42828239989466965,1048.9611921999604,None,1048.9611921999604,None,1049.4218254999723,None,,,,,88,001,2023-05-30_12h52.38.514,uncolored_sorted,2021.2.3,59.939030001008035,
C:\Users\subject\Desktop\SVRT Experiments\SVRT Experiment 3\svrt_images\generated_images\results_problem_17,,,C:\Users\subject\Desktop\SVRT Experiments\SVRT Experiment 3\svrt_images\generated_images\results_problem_10\sample_0_0012.png,,C:\Users\subject\Desktop\SVRT Experiments\SVRT Experiment 3\svrt_images\generated_images\results_problem_23\sample_1_0003.png,C:\Users\subject\Desktop\SVRT Experiments\SVRT Experiment 3\svrt_images\generated_images\results_problem_17\sample_0_0005.png,,,,,,,,,,,,,,,,,,0,5,5,5,0,27,27,27,,,,,,,,,,,,,,f,17,A,B,22,0,Incorrect!,0.976818700088188,1050.6766510999296,None,1050.6766510999296,None,1051.6993109998293,None,,,,,88,001,2023-05-30_12h52.38.514,uncolored_sorted,2021.2.3,59.939030001008035,
