folder,results_problem_18,results_problem_15,results_problem_11,results_problem_8,results_problem_21,results_problem_19,results_problem_3,results_problem_17,results_problem_23,results_problem_12,results_problem_13,results_problem_1,results_problem_20,results_problem_7,results_problem_9,results_problem_16,results_problem_2,results_problem_5,results_problem_22,results_problem_6,results_problem_10,results_problem_14,results_problem_4,categories.thisRepN,categories.thisTrialN,categories.thisN,categories.thisIndex,trials.thisRepN,trials.thisTrialN,trials.thisN,trials.thisIndex,consent_text.started,consent_kb.started,consent_kb.keys,consent_kb.rt,Gender.keys,Gender.rt,Age,instructions_text.started,instructions_text.stopped,instructions_kb.keys,instructions_kb.rt,instructions_kb.started,instructions_kb.stopped,trial_kb.keys,current_problem_num,category_resp,answer,seed,accuracy,feedback,trial_kb.rt,trial_kb.started,trial_kb.stopped,trial_image.started,trial_image.stopped,feedback_text.started,feedback_text.stopped,new_problem_kb.started,new_problem_text.started,new_problem_kb.keys,new_problem_kb.rt,Participant #,session,date,expName,psychopyVersion,frameRate,
,,,,,,,,,,,,,,,,,,,,,,,,,,,,,,,,8.809934900142252,8.809934900142252,y,631.046980000101,,,,,,,,,,,,,,,,,,,,,,,,,,,,89,001,2023-05-30_12h54.48.874,colored_shuffled,2021.2.3,60.00636066677871,
,,,,,,,,,,,,,,,,,,,,,,,,,,,,,,,,,,,,w,8.49005790008232,,,,,,,,,,,,,,,,,,,,,,,,,,89,001,2023-05-30_12h54.48.874,colored_shuffled,2021.2.3,60.00636066677871,
,,,,,,,,,,,,,,,,,,,,,,,,,,,,,,,,,,,,,,23,665.5950947999954,None,space,41.95780330011621,665.5950947999954,None,,,,,,,,,,,,,,,,,,,89,001,2023-05-30_12h54.48.874,colored_shuffled,2021.2.3,60.00636066677871,
C:\Users\subject\Desktop\SVRT Experiments\SVRT Experiment 3\svrt_images\generated_images\results_problem_18,C:\Users\subject\Desktop\SVRT Experiments\SVRT Experiment 3\svrt_images\generated_images\results_problem_18\sample_1_0016.png,,,,,,,,,,,,,,,,,,,,,,,0,0,0,0,0,0,0,0,,,,,,,,,,,,,,f,18,A,A,23,1,Correct!,12.926533600082621,707.5943322000094,None,707.5943322000094,None,720.5607674000785,None,,,,,89,001,2023-05-30_12h54.48.874,colored_shuffled,2021.2.3,60.00636066677871,
C:\Users\subject\Desktop\SVRT Experiments\SVRT Experiment 3\svrt_images\generated_images\results_problem_18,C:\Users\subject\Desktop\SVRT Experiments\SVRT Experiment 3\svrt_images\generated_images\results_problem_18\sample_1_0006.png,,,,,,,,,,,,,,,,,,,,,,,0,0,0,0,0,1,1,1,,,,,,,,,,,,,,f,18,A,A,23,1,Correct!,2.3995719000231475,721.5773891999852,None,721.5773891999852,None,723.9940347000957,None,,,,,89,001,2023-05-30_12h54.48.874,colored_shuffled,2021.2.3,60.00636066677871,
C:\Users\subject\Desktop\SVRT Experiments\SVRT Experiment 3\svrt_images\generated_images\results_problem_18,C:\Users\subject\Desktop\SVRT Experiments\SVRT Experiment 3\svrt_images\generated_images\results_problem_18\sample_1_0000.png,,,,,,,,,,,,,,,,,,,,,,,0,0,0,0,0,2,2,2,,,,,,,,,,,,,,f,18,A,A,23,1,Correct!,0.7182314000092447,725.0106486000586,None,725.0106486000586,None,725.7606494999491,None,,,,,89,001,2023-05-30_12h54.48.874,colored_shuffled,2021.2.3,60.00636066677871,
C:\Users\subject\Desktop\SVRT Experiments\SVRT Experiment 3\svrt_images\generated_images\results_problem_18,C:\Users\subject\Desktop\SVRT Experiments\SVRT Experiment 3\svrt_images\generated_images\results_problem_18\sample_1_0012.png,,,,,,,,,,,,,,,,,,,,,,,0,0,0,0,0,3,3,3,,,,,,,,,,,,,,f,18,A,A,23,1,Correct!,0.39894820004701614,726.7939733001404,None,726.7939733001404,None,727.210684500169,None,,,,,89,001,2023-05-30_12h54.48.874,colored_shuffled,2021.2.3,60.00636066677871,
C:\Users\subject\Desktop\SVRT Experiments\SVRT Experiment 3\svrt_images\generated_images\results_problem_18,C:\Users\subject\Desktop\SVRT Experiments\SVRT Experiment 3\svrt_images\generated_images\results_problem_18\sample_0_0000.png,,,,,,,,,,,,,,,,,,,,,,,0,0,0,0,0,4,4,4,,,,,,,,,,,,,,f,18,A,B,23,0,Incorrect!,0.8043207998853177,728.2606126000173,None,728.2606126000173,None,729.0939271999523,None,,,,,89,001,2023-05-30_12h54.48.874,colored_shuffled,2021.2.3,60.00636066677871,
C:\Users\subject\Desktop\SVRT Experiments\SVRT Experiment 3\svrt_images\generated_images\results_problem_18,C:\Users\subject\Desktop\SVRT Experiments\SVRT Experiment 3\svrt_images\generated_images\results_problem_18\sample_1_0001.png,,,,,,,,,,,,,,,,,,,,,,,0,0,0,0,0,5,5,5,,,,,,,,,,,,,,j,18,B,A,23,0,Incorrect!,1.7523240998852998,730.1605690999422,None,730.1605690999422,None,731.9439058001153,None,,,,,89,001,2023-05-30_12h54.48.874,colored_shuffled,2021.2.3,60.00636066677871,
C:\Users\subject\Desktop\SVRT Experiments\SVRT Experiment 3\svrt_images\generated_images\results_problem_18,C:\Users\subject\Desktop\SVRT Experiments\SVRT Experiment 3\svrt_images\generated_images\results_problem_18\sample_1_0014.png,,,,,,,,,,,,,,,,,,,,,,,0,0,0,0,0,6,6,6,,,,,,,,,,,,,,f,18,A,A,23,1,Correct!,0.6699653998948634,733.0271624000743,None,733.0271624000743,None,733.7271749000065,None,,,,,89,001,2023-05-30_12h54.48.874,colored_shuffled,2021.2.3,60.00636066677871,
C:\Users\subject\Desktop\SVRT Experiments\SVRT Experiment 3\svrt_images\generated_images\results_problem_18,C:\Users\subject\Desktop\SVRT Experiments\SVRT Experiment 3\svrt_images\generated_images\results_problem_18\sample_0_0004.png,,,,,,,,,,,,,,,,,,,,,,,0,0,0,0,0,7,7,7,,,,,,,,,,,,,,f,18,A,B,23,0,Incorrect!,0.5982042998075485,734.8105355999433,None,734.8105355999433,None,735.4270983999595,None,,,,,89,001,2023-05-30_12h54.48.874,colored_shuffled,2021.2.3,60.00636066677871,
C:\Users\subject\Desktop\SVRT Experiments\SVRT Experiment 3\svrt_images\generated_images\results_problem_18,C:\Users\subject\Desktop\SVRT Experiments\SVRT Experiment 3\svrt_images\generated_images\results_problem_18\sample_0_0011.png,,,,,,,,,,,,,,,,,,,,,,,0,0,0,0,0,8,8,8,,,,,,,,,,,,,,j,18,B,B,23,1,Correct!,0.36960969981737435,736.5271463000681,None,736.5271463000681,None,736.9270675000735,None,,,,,89,001,2023-05-30_12h54.48.874,colored_shuffled,2021.2.3,60.00636066677871,
C:\Users\subject\Desktop\SVRT Experiments\SVRT Experiment 3\svrt_images\generated_images\results_problem_18,C:\Users\subject\Desktop\SVRT Experiments\SVRT Experiment 3\svrt_images\generated_images\results_problem_18\sample_1_0007.png,,,,,,,,,,,,,,,,,,,,,,,0,0,0,0,0,9,9,9,,,,,,,,,,,,,,j,18,B,A,23,0,Incorrect!,0.8290454000234604,738.04378800001,None,738.04378800001,None,738.8937701999675,None,,,,,89,001,2023-05-30_12h54.48.874,colored_shuffled,2021.2.3,60.00636066677871,
C:\Users\subject\Desktop\SVRT Experiments\SVRT Experiment 3\svrt_images\generated_images\results_problem_18,C:\Users\subject\Desktop\SVRT Experiments\SVRT Experiment 3\svrt_images\generated_images\results_problem_18\sample_0_0012.png,,,,,,,,,,,,,,,,,,,,,,,0,0,0,0,0,10,10,10,,,,,,,,,,,,,,f,18,A,B,23,0,Incorrect!,0.6225407000165433,740.0103992000222,None,740.0103992000222,None,740.660388499964,None,,,,,89,001,2023-05-30_12h54.48.874,colored_shuffled,2021.2.3,60.00636066677871,
C:\Users\subject\Desktop\SVRT Experiments\SVRT Experiment 3\svrt_images\generated_images\results_problem_18,C:\Users\subject\Desktop\SVRT Experiments\SVRT Experiment 3\svrt_images\generated_images\results_problem_18\sample_1_0002.png,,,,,,,,,,,,,,,,,,,,,,,0,0,0,0,0,11,11,11,,,,,,,,,,,,,,j,18,B,A,23,0,Incorrect!,2.279115700162947,741.7937088999897,None,741.7937088999897,None,744.1103249001317,None,,,,,89,001,2023-05-30_12h54.48.874,colored_shuffled,2021.2.3,60.00636066677871,
C:\Users\subject\Desktop\SVRT Experiments\SVRT Experiment 3\svrt_images\generated_images\results_problem_18,C:\Users\subject\Desktop\SVRT Experiments\SVRT Experiment 3\svrt_images\generated_images\results_problem_18\sample_1_0009.png,,,,,,,,,,,,,,,,,,,,,,,0,0,0,0,0,12,12,12,,,,,,,,,,,,,,f,18,A,A,23,1,Correct!,12.869371799984947,745.2435880000703,None,745.2435880000703,None,758.160068300087,None,,,,,89,001,2023-05-30_12h54.48.874,colored_shuffled,2021.2.3,60.00636066677871,
C:\Users\subject\Desktop\SVRT Experiments\SVRT Experiment 3\svrt_images\generated_images\results_problem_18,C:\Users\subject\Desktop\SVRT Experiments\SVRT Experiment 3\svrt_images\generated_images\results_problem_18\sample_0_0006.png,,,,,,,,,,,,,,,,,,,,,,,0,0,0,0,0,13,13,13,,,,,,,,,,,,,,f,18,A,B,23,0,Incorrect!,0.5788589001167566,759.3100601001643,None,759.3100601001643,None,759.9267069001216,None,,,,,89,001,2023-05-30_12h54.48.874,colored_shuffled,2021.2.3,60.00636066677871,
C:\Users\subject\Desktop\SVRT Experiments\SVRT Experiment 3\svrt_images\generated_images\results_problem_18,C:\Users\subject\Desktop\SVRT Experiments\SVRT Experiment 3\svrt_images\generated_images\results_problem_18\sample_0_0010.png,,,,,,,,,,,,,,,,,,,,,,,0,0,0,0,0,14,14,14,,,,,,,,,,,,,,f,18,A,B,23,0,Incorrect!,7.331547300098464,761.0933652999811,None,761.0933652999811,None,768.4432382001542,None,,,,,89,001,2023-05-30_12h54.48.874,colored_shuffled,2021.2.3,60.00636066677871,
C:\Users\subject\Desktop\SVRT Experiments\SVRT Experiment 3\svrt_images\generated_images\results_problem_18,C:\Users\subject\Desktop\SVRT Experiments\SVRT Experiment 3\svrt_images\generated_images\results_problem_18\sample_0_0003.png,,,,,,,,,,,,,,,,,,,,,,,0,0,0,0,0,15,15,15,,,,,,,,,,,,,,j,18,B,B,23,1,Correct!,0.7663180998060852,769.626562600024,None,769.626562600024,None,770.4098789000418,None,,,,,89,001,2023-05-30_12h54.48.874,colored_shuffled,2021.2.3,60.00636066677871,
C:\Users\subject\Desktop\SVRT Experiments\SVRT Experiment 3\svrt_images\generated_images\results_problem_18,C:\Users\subject\Desktop\SVRT Experiments\SVRT Experiment 3\svrt_images\generated_images\results_problem_18\sample_0_0016.png,,,,,,,,,,,,,,,,,,,,,,,0,0,0,0,0,16,16,16,,,,,,,,,,,,,,j,18,B,B,23,1,Correct!,0.806933999992907,771.6098538001534,None,771.6098538001534,None,772.4598197001033,None,,,,,89,001,2023-05-30_12h54.48.874,colored_shuffled,2021.2.3,60.00636066677871,
C:\Users\subject\Desktop\SVRT Experiments\SVRT Experiment 3\svrt_images\generated_images\results_problem_18,C:\Users\subject\Desktop\SVRT Experiments\SVRT Experiment 3\svrt_images\generated_images\results_problem_18\sample_1_0003.png,,,,,,,,,,,,,,,,,,,,,,,0,0,0,0,0,17,17,17,,,,,,,,,,,,,,j,18,B,A,23,0,Incorrect!,0.5003649999853224,773.6764951001387,None,773.6764951001387,None,774.2264545999933,None,,,,,89,001,2023-05-30_12h54.48.874,colored_shuffled,2021.2.3,60.00636066677871,
C:\Users\subject\Desktop\SVRT Experiments\SVRT Experiment 3\svrt_images\generated_images\results_problem_18,C:\Users\subject\Desktop\SVRT Experiments\SVRT Experiment 3\svrt_images\generated_images\results_problem_18\sample_1_0005.png,,,,,,,,,,,,,,,,,,,,,,,0,0,0,0,0,18,18,18,,,,,,,,,,,,,,f,18,A,A,23,1,Correct!,2.7249616999179125,775.4598102001473,None,775.4598102001473,None,778.2264352999628,None,,,,,89,001,2023-05-30_12h54.48.874,colored_shuffled,2021.2.3,60.00636066677871,
C:\Users\subject\Desktop\SVRT Experiments\SVRT Experiment 3\svrt_images\generated_images\results_problem_18,C:\Users\subject\Desktop\SVRT Experiments\SVRT Experiment 3\svrt_images\generated_images\results_problem_18\sample_1_0015.png,,,,,,,,,,,,,,,,,,,,,,,0,0,0,0,0,19,19,19,,,,,,,,,,,,,,f,18,A,A,23,1,Correct!,0.7884835000149906,779.4763947001193,None,779.4763947001193,None,780.2930326000787,None,,,,,89,001,2023-05-30_12h54.48.874,colored_shuffled,2021.2.3,60.00636066677871,
C:\Users\subject\Desktop\SVRT Experiments\SVRT Experiment 3\svrt_images\generated_images\results_problem_18,C:\Users\subject\Desktop\SVRT Experiments\SVRT Experiment 3\svrt_images\generated_images\results_problem_18\sample_0_0015.png,,,,,,,,,,,,,,,,,,,,,,,0,0,0,0,0,20,20,20,,,,,,,,,,,,,,f,18,A,B,23,0,Incorrect!,0.9778609001077712,781.5430326000787,None,781.5430326000787,None,782.559606899973,None,,,,,89,001,2023-05-30_12h54.48.874,colored_shuffled,2021.2.3,60.00636066677871,
C:\Users\subject\Desktop\SVRT Experiments\SVRT Experiment 3\svrt_images\generated_images\results_problem_18,C:\Users\subject\Desktop\SVRT Experiments\SVRT Experiment 3\svrt_images\generated_images\results_problem_18\sample_1_0004.png,,,,,,,,,,,,,,,,,,,,,,,0,0,0,0,0,21,21,21,,,,,,,,,,,,,,j,18,B,A,23,0,Incorrect!,4.990687099983916,783.8263225001283,None,783.8263225001283,None,788.8428744999692,None,,,,,89,001,2023-05-30_12h54.48.874,colored_shuffled,2021.2.3,60.00636066677871,
C:\Users\subject\Desktop\SVRT Experiments\SVRT Experiment 3\svrt_images\generated_images\results_problem_18,C:\Users\subject\Desktop\SVRT Experiments\SVRT Experiment 3\svrt_images\generated_images\results_problem_18\sample_1_0008.png,,,,,,,,,,,,,,,,,,,,,,,0,0,0,0,0,22,22,22,,,,,,,,,,,,,,f,18,A,A,23,1,Correct!,1.3946829000487924,790.1262102001347,None,790.1262102001347,None,791.5928352000192,None,,,,,89,001,2023-05-30_12h54.48.874,colored_shuffled,2021.2.3,60.00636066677871,
C:\Users\subject\Desktop\SVRT Experiments\SVRT Experiment 3\svrt_images\generated_images\results_problem_18,C:\Users\subject\Desktop\SVRT Experiments\SVRT Experiment 3\svrt_images\generated_images\results_problem_18\sample_1_0013.png,,,,,,,,,,,,,,,,,,,,,,,0,0,0,0,0,23,23,23,,,,,,,,,,,,,,f,18,A,A,23,1,Correct!,1.2280925998929888,792.8928285001311,None,792.8928285001311,None,794.1760996000376,None,,,,,89,001,2023-05-30_12h54.48.874,colored_shuffled,2021.2.3,60.00636066677871,
C:\Users\subject\Desktop\SVRT Experiments\SVRT Experiment 3\svrt_images\generated_images\results_problem_18,C:\Users\subject\Desktop\SVRT Experiments\SVRT Experiment 3\svrt_images\generated_images\results_problem_18\sample_0_0007.png,,,,,,,,,,,,,,,,,,,,,,,0,0,0,0,0,24,24,24,,,,,,,,,,,,,,f,18,A,B,23,0,Incorrect!,0.8761797999031842,795.4927779000718,None,795.4927779000718,None,796.442725900095,None,,,,,89,001,2023-05-30_12h54.48.874,colored_shuffled,2021.2.3,60.00636066677871,
C:\Users\subject\Desktop\SVRT Experiments\SVRT Experiment 3\svrt_images\generated_images\results_problem_18,C:\Users\subject\Desktop\SVRT Experiments\SVRT Experiment 3\svrt_images\generated_images\results_problem_18\sample_0_0002.png,,,,,,,,,,,,,,,,,,,,,,,0,0,0,0,0,25,25,25,,,,,,,,,,,,,,j,18,B,B,23,1,Correct!,4.832878699991852,797.7760612999555,None,797.7760612999555,None,802.6593085001223,None,,,,,89,001,2023-05-30_12h54.48.874,colored_shuffled,2021.2.3,60.00636066677871,
C:\Users\subject\Desktop\SVRT Experiments\SVRT Experiment 3\svrt_images\generated_images\results_problem_18,C:\Users\subject\Desktop\SVRT Experiments\SVRT Experiment 3\svrt_images\generated_images\results_problem_18\sample_1_0010.png,,,,,,,,,,,,,,,,,,,,,,,0,0,0,0,0,26,26,26,,,,,,,,,,,,,,f,18,A,A,23,1,Correct!,0.9915105998516083,804.0092822001316,None,804.0092822001316,None,805.0259039001539,None,,,,,89,001,2023-05-30_12h54.48.874,colored_shuffled,2021.2.3,60.00636066677871,
C:\Users\subject\Desktop\SVRT Experiments\SVRT Experiment 3\svrt_images\generated_images\results_problem_18,C:\Users\subject\Desktop\SVRT Experiments\SVRT Experiment 3\svrt_images\generated_images\results_problem_18\sample_0_0005.png,,,,,,,,,,,,,,,,,,,,,,,0,0,0,0,0,27,27,27,,,,,,,,,,,,,,f,18,A,B,23,0,Incorrect!,2.1201986998785287,806.3925908000674,None,806.3925908000674,None,808.5924979001284,None,,,,,89,001,2023-05-30_12h54.48.874,colored_shuffled,2021.2.3,60.00636066677871,
C:\Users\subject\Desktop\SVRT Experiments\SVRT Experiment 3\svrt_images\generated_images\results_problem_18,C:\Users\subject\Desktop\SVRT Experiments\SVRT Experiment 3\svrt_images\generated_images\results_problem_18\sample_0_0001.png,,,,,,,,,,,,,,,,,,,,,,,0,0,0,0,0,28,28,28,,,,,,,,,,,,,,j,18,B,B,23,1,Correct!,7.832973899785429,809.9758334001526,None,809.9758334001526,None,817.8923412000295,None,,,,,89,001,2023-05-30_12h54.48.874,colored_shuffled,2021.2.3,60.00636066677871,
C:\Users\subject\Desktop\SVRT Experiments\SVRT Experiment 3\svrt_images\generated_images\results_problem_18,C:\Users\subject\Desktop\SVRT Experiments\SVRT Experiment 3\svrt_images\generated_images\results_problem_18\sample_0_0014.png,,,,,,,,,,,,,,,,,,,,,,,0,0,0,0,0,29,29,29,,,,,,,,,,,,,,f,18,A,B,23,0,Incorrect!,1.4604679998010397,819.2923580999486,None,819.2923580999486,None,820.8089728001505,None,,,,,89,001,2023-05-30_12h54.48.874,colored_shuffled,2021.2.3,60.00636066677871,
C:\Users\subject\Desktop\SVRT Experiments\SVRT Experiment 3\svrt_images\generated_images\results_problem_18,C:\Users\subject\Desktop\SVRT Experiments\SVRT Experiment 3\svrt_images\generated_images\results_problem_18\sample_0_0009.png,,,,,,,,,,,,,,,,,,,,,,,0,0,0,0,0,30,30,30,,,,,,,,,,,,,,f,18,A,B,23,0,Incorrect!,0.9746212000027299,822.2423114001285,None,822.2423114001285,None,823.2589139000047,None,,,,,89,001,2023-05-30_12h54.48.874,colored_shuffled,2021.2.3,60.00636066677871,
C:\Users\subject\Desktop\SVRT Experiments\SVRT Experiment 3\svrt_images\generated_images\results_problem_18,C:\Users\subject\Desktop\SVRT Experiments\SVRT Experiment 3\svrt_images\generated_images\results_problem_18\sample_0_0008.png,,,,,,,,,,,,,,,,,,,,,,,0,0,0,0,0,31,31,31,,,,,,,,,,,,,,j,18,B,B,23,1,Correct!,1.3085811000782996,824.6922504000831,None,824.6922504000831,None,826.108861700166,None,,,,,89,001,2023-05-30_12h54.48.874,colored_shuffled,2021.2.3,60.00636066677871,
C:\Users\subject\Desktop\SVRT Experiments\SVRT Experiment 3\svrt_images\generated_images\results_problem_18,C:\Users\subject\Desktop\SVRT Experiments\SVRT Experiment 3\svrt_images\generated_images\results_problem_18\sample_0_0013.png,,,,,,,,,,,,,,,,,,,,,,,0,0,0,0,0,32,32,32,,,,,,,,,,,,,,j,18,B,B,23,1,Correct!,0.769992400193587,827.5589016999584,None,827.5589016999584,None,828.3921769999433,None,,,,,89,001,2023-05-30_12h54.48.874,colored_shuffled,2021.2.3,60.00636066677871,
C:\Users\subject\Desktop\SVRT Experiments\SVRT Experiment 3\svrt_images\generated_images\results_problem_18,C:\Users\subject\Desktop\SVRT Experiments\SVRT Experiment 3\svrt_images\generated_images\results_problem_18\sample_1_0011.png,,,,,,,,,,,,,,,,,,,,,,,0,0,0,0,0,33,33,33,,,,,,,,,,,,,,f,18,A,A,23,1,Correct!,2.870175499934703,829.8587706000544,None,829.8587706000544,None,832.7920777001418,None,,,,,89,001,2023-05-30_12h54.48.874,colored_shuffled,2021.2.3,60.00636066677871,
C:\Users\subject\Desktop\SVRT Experiments\SVRT Experiment 3\svrt_images\generated_images\results_problem_18,,,,,,,,,,,,,,,,,,,,,,,,0,0,0,0,,,,,,,,,,,,,,,,,,,,,,,,,,,,,,,,833.7921146000735,833.7921146000735,space,2.688664000015706,89,001,2023-05-30_12h54.48.874,colored_shuffled,2021.2.3,60.00636066677871,
C:\Users\subject\Desktop\SVRT Experiments\SVRT Experiment 3\svrt_images\generated_images\results_problem_15,,C:\Users\subject\Desktop\SVRT Experiments\SVRT Experiment 3\svrt_images\generated_images\results_problem_15\sample_0_0005.png,,,,,,,,,,,,,,,,,,,,,,0,1,1,1,0,0,0,0,,,,,,,,,,,,,,f,15,A,B,23,0,Incorrect!,28.356152799911797,836.5086775999516,None,836.5086775999516,None,864.8915560999885,None,,,,,89,001,2023-05-30_12h54.48.874,colored_shuffled,2021.2.3,60.00636066677871,
C:\Users\subject\Desktop\SVRT Experiments\SVRT Experiment 3\svrt_images\generated_images\results_problem_15,,C:\Users\subject\Desktop\SVRT Experiments\SVRT Experiment 3\svrt_images\generated_images\results_problem_15\sample_1_0015.png,,,,,,,,,,,,,,,,,,,,,,0,1,1,1,0,1,1,1,,,,,,,,,,,,,,f,15,A,A,23,1,Correct!,2.8127419999800622,865.9081651000306,None,865.9081651000306,None,868.7414685999975,None,,,,,89,001,2023-05-30_12h54.48.874,colored_shuffled,2021.2.3,60.00636066677871,
C:\Users\subject\Desktop\SVRT Experiments\SVRT Experiment 3\svrt_images\generated_images\results_problem_15,,C:\Users\subject\Desktop\SVRT Experiments\SVRT Experiment 3\svrt_images\generated_images\results_problem_15\sample_1_0008.png,,,,,,,,,,,,,,,,,,,,,,0,1,1,1,0,2,2,2,,,,,,,,,,,,,,j,15,B,A,23,0,Incorrect!,3.594024100108072,869.774802000029,None,869.774802000029,None,873.3913976999465,None,,,,,89,001,2023-05-30_12h54.48.874,colored_shuffled,2021.2.3,60.00636066677871,
C:\Users\subject\Desktop\SVRT Experiments\SVRT Experiment 3\svrt_images\generated_images\results_problem_15,,C:\Users\subject\Desktop\SVRT Experiments\SVRT Experiment 3\svrt_images\generated_images\results_problem_15\sample_0_0007.png,,,,,,,,,,,,,,,,,,,,,,0,1,1,1,0,3,3,3,,,,,,,,,,,,,,j,15,B,B,23,1,Correct!,1.32005859981291,874.4246764001437,None,874.4246764001437,None,875.774638999952,None,,,,,89,001,2023-05-30_12h54.48.874,colored_shuffled,2021.2.3,60.00636066677871,
C:\Users\subject\Desktop\SVRT Experiments\SVRT Experiment 3\svrt_images\generated_images\results_problem_15,,C:\Users\subject\Desktop\SVRT Experiments\SVRT Experiment 3\svrt_images\generated_images\results_problem_15\sample_0_0006.png,,,,,,,,,,,,,,,,,,,,,,0,1,1,1,0,4,4,4,,,,,,,,,,,,,,j,15,B,B,23,1,Correct!,5.9283285001292825,876.8246114000212,None,876.8246114000212,None,882.7745435000397,None,,,,,89,001,2023-05-30_12h54.48.874,colored_shuffled,2021.2.3,60.00636066677871,
C:\Users\subject\Desktop\SVRT Experiments\SVRT Experiment 3\svrt_images\generated_images\results_problem_15,,C:\Users\subject\Desktop\SVRT Experiments\SVRT Experiment 3\svrt_images\generated_images\results_problem_15\sample_1_0004.png,,,,,,,,,,,,,,,,,,,,,,0,1,1,1,0,5,5,5,,,,,,,,,,,,,,f,15,A,A,23,1,Correct!,1.1035955999977887,883.8412047999445,None,883.8412047999445,None,884.9745257000905,None,,,,,89,001,2023-05-30_12h54.48.874,colored_shuffled,2021.2.3,60.00636066677871,
C:\Users\subject\Desktop\SVRT Experiments\SVRT Experiment 3\svrt_images\generated_images\results_problem_15,,C:\Users\subject\Desktop\SVRT Experiments\SVRT Experiment 3\svrt_images\generated_images\results_problem_15\sample_1_0013.png,,,,,,,,,,,,,,,,,,,,,,0,1,1,1,0,6,6,6,,,,,,,,,,,,,,f,15,A,A,23,1,Correct!,3.4797574998810887,886.0411623001564,None,886.0411623001564,None,889.5410990000237,None,,,,,89,001,2023-05-30_12h54.48.874,colored_shuffled,2021.2.3,60.00636066677871,
C:\Users\subject\Desktop\SVRT Experiments\SVRT Experiment 3\svrt_images\generated_images\results_problem_15,,C:\Users\subject\Desktop\SVRT Experiments\SVRT Experiment 3\svrt_images\generated_images\results_problem_15\sample_0_0015.png,,,,,,,,,,,,,,,,,,,,,,0,1,1,1,0,7,7,7,,,,,,,,,,,,,,j,15,B,B,23,1,Correct!,1.9364149998873472,890.6243735000025,None,890.6243735000025,None,892.5910355001688,None,,,,,89,001,2023-05-30_12h54.48.874,colored_shuffled,2021.2.3,60.00636066677871,
C:\Users\subject\Desktop\SVRT Experiments\SVRT Experiment 3\svrt_images\generated_images\results_problem_15,,C:\Users\subject\Desktop\SVRT Experiments\SVRT Experiment 3\svrt_images\generated_images\results_problem_15\sample_1_0005.png,,,,,,,,,,,,,,,,,,,,,,0,1,1,1,0,8,8,8,,,,,,,,,,,,,,j,15,B,A,23,0,Incorrect!,5.373719399794936,893.6910562999547,None,893.6910562999547,None,899.0909557000268,None,,,,,89,001,2023-05-30_12h54.48.874,colored_shuffled,2021.2.3,60.00636066677871,
C:\Users\subject\Desktop\SVRT Experiments\SVRT Experiment 3\svrt_images\generated_images\results_problem_15,,C:\Users\subject\Desktop\SVRT Experiments\SVRT Experiment 3\svrt_images\generated_images\results_problem_15\sample_1_0010.png,,,,,,,,,,,,,,,,,,,,,,0,1,1,1,0,9,9,9,,,,,,,,,,,,,,f,15,A,A,23,1,Correct!,1.6019437999930233,900.1909263001289,None,900.1909263001289,None,901.8242228999734,None,,,,,89,001,2023-05-30_12h54.48.874,colored_shuffled,2021.2.3,60.00636066677871,
C:\Users\subject\Desktop\SVRT Experiments\SVRT Experiment 3\svrt_images\generated_images\results_problem_15,,C:\Users\subject\Desktop\SVRT Experiments\SVRT Experiment 3\svrt_images\generated_images\results_problem_15\sample_1_0003.png,,,,,,,,,,,,,,,,,,,,,,0,1,1,1,0,10,10,10,,,,,,,,,,,,,,f,15,A,A,23,1,Correct!,2.8119234000332654,902.9408289999701,None,902.9408289999701,None,905.7741533000953,None,,,,,89,001,2023-05-30_12h54.48.874,colored_shuffled,2021.2.3,60.00636066677871,
C:\Users\subject\Desktop\SVRT Experiments\SVRT Experiment 3\svrt_images\generated_images\results_problem_15,,C:\Users\subject\Desktop\SVRT Experiments\SVRT Experiment 3\svrt_images\generated_images\results_problem_15\sample_0_0012.png,,,,,,,,,,,,,,,,,,,,,,0,1,1,1,0,11,11,11,,,,,,,,,,,,,,f,15,A,B,23,0,Incorrect!,1.4452536997850984,906.9074973000679,None,906.9074973000679,None,908.3908112000208,None,,,,,89,001,2023-05-30_12h54.48.874,colored_shuffled,2021.2.3,60.00636066677871,
C:\Users\subject\Desktop\SVRT Experiments\SVRT Experiment 3\svrt_images\generated_images\results_problem_15,,C:\Users\subject\Desktop\SVRT Experiments\SVRT Experiment 3\svrt_images\generated_images\results_problem_15\sample_1_0007.png,,,,,,,,,,,,,,,,,,,,,,0,1,1,1,0,12,12,12,,,,,,,,,,,,,,j,15,B,A,23,0,Incorrect!,3.11609679996036,909.5407624000218,None,909.5407624000218,None,912.6907039999496,None,,,,,89,001,2023-05-30_12h54.48.874,colored_shuffled,2021.2.3,60.00636066677871,
C:\Users\subject\Desktop\SVRT Experiments\SVRT Experiment 3\svrt_images\generated_images\results_problem_15,,C:\Users\subject\Desktop\SVRT Experiments\SVRT Experiment 3\svrt_images\generated_images\results_problem_15\sample_0_0010.png,,,,,,,,,,,,,,,,,,,,,,0,1,1,1,0,13,13,13,,,,,,,,,,,,,,j,15,B,B,23,1,Correct!,1.1595025998540223,913.8573511000723,None,913.8573511000723,None,915.0406395001337,None,,,,,89,001,2023-05-30_12h54.48.874,colored_shuffled,2021.2.3,60.00636066677871,
C:\Users\subject\Desktop\SVRT Experiments\SVRT Experiment 3\svrt_images\generated_images\results_problem_15,,C:\Users\subject\Desktop\SVRT Experiments\SVRT Experiment 3\svrt_images\generated_images\results_problem_15\sample_0_0001.png,,,,,,,,,,,,,,,,,,,,,,0,1,1,1,0,14,14,14,,,,,,,,,,,,,,f,15,A,B,23,0,Incorrect!,0.4815915999934077,916.2072968999855,None,916.2072968999855,None,916.7239286999684,None,,,,,89,001,2023-05-30_12h54.48.874,colored_shuffled,2021.2.3,60.00636066677871,
C:\Users\subject\Desktop\SVRT Experiments\SVRT Experiment 3\svrt_images\generated_images\results_problem_15,,C:\Users\subject\Desktop\SVRT Experiments\SVRT Experiment 3\svrt_images\generated_images\results_problem_15\sample_1_0014.png,,,,,,,,,,,,,,,,,,,,,,0,1,1,1,0,15,15,15,,,,,,,,,,,,,,j,15,B,A,23,0,Incorrect!,0.7088695999700576,917.9239710001275,None,917.9239710001275,None,918.6739109000191,None,,,,,89,001,2023-05-30_12h54.48.874,colored_shuffled,2021.2.3,60.00636066677871,
C:\Users\subject\Desktop\SVRT Experiments\SVRT Experiment 3\svrt_images\generated_images\results_problem_15,,C:\Users\subject\Desktop\SVRT Experiments\SVRT Experiment 3\svrt_images\generated_images\results_problem_15\sample_1_0002.png,,,,,,,,,,,,,,,,,,,,,,0,1,1,1,0,16,16,16,,,,,,,,,,,,,,f,15,A,A,23,1,Correct!,2.0310363001190126,919.8739146001171,None,919.8739146001171,None,921.9238573000766,None,,,,,89,001,2023-05-30_12h54.48.874,colored_shuffled,2021.2.3,60.00636066677871,
C:\Users\subject\Desktop\SVRT Experiments\SVRT Experiment 3\svrt_images\generated_images\results_problem_15,,C:\Users\subject\Desktop\SVRT Experiments\SVRT Experiment 3\svrt_images\generated_images\results_problem_15\sample_0_0011.png,,,,,,,,,,,,,,,,,,,,,,0,1,1,1,0,17,17,17,,,,,,,,,,,,,,f,15,A,B,23,0,Incorrect!,0.36421489994972944,923.1406120001338,None,923.1406120001338,None,923.5572124000173,None,,,,,89,001,2023-05-30_12h54.48.874,colored_shuffled,2021.2.3,60.00636066677871,
C:\Users\subject\Desktop\SVRT Experiments\SVRT Experiment 3\svrt_images\generated_images\results_problem_15,,C:\Users\subject\Desktop\SVRT Experiments\SVRT Experiment 3\svrt_images\generated_images\results_problem_15\sample_1_0016.png,,,,,,,,,,,,,,,,,,,,,,0,1,1,1,0,18,18,18,,,,,,,,,,,,,,j,15,B,A,23,0,Incorrect!,0.4423414000775665,924.7905105000827,None,924.7905105000827,None,925.2571509999689,None,,,,,89,001,2023-05-30_12h54.48.874,colored_shuffled,2021.2.3,60.00636066677871,
C:\Users\subject\Desktop\SVRT Experiments\SVRT Experiment 3\svrt_images\generated_images\results_problem_15,,C:\Users\subject\Desktop\SVRT Experiments\SVRT Experiment 3\svrt_images\generated_images\results_problem_15\sample_0_0014.png,,,,,,,,,,,,,,,,,,,,,,0,1,1,1,0,19,19,19,,,,,,,,,,,,,,f,15,A,B,23,0,Incorrect!,0.3817684999667108,926.5071583001409,None,926.5071583001409,None,926.9238029001281,None,,,,,89,001,2023-05-30_12h54.48.874,colored_shuffled,2021.2.3,60.00636066677871,
C:\Users\subject\Desktop\SVRT Experiments\SVRT Experiment 3\svrt_images\generated_images\results_problem_15,,C:\Users\subject\Desktop\SVRT Experiments\SVRT Experiment 3\svrt_images\generated_images\results_problem_15\sample_1_0009.png,,,,,,,,,,,,,,,,,,,,,,0,1,1,1,0,20,20,20,,,,,,,,,,,,,,j,15,B,A,23,0,Incorrect!,20.778327899985015,928.1904575000517,None,928.1904575000517,None,949.0067480001599,None,,,,,89,001,2023-05-30_12h54.48.874,colored_shuffled,2021.2.3,60.00636066677871,
C:\Users\subject\Desktop\SVRT Experiments\SVRT Experiment 3\svrt_images\generated_images\results_problem_15,,C:\Users\subject\Desktop\SVRT Experiments\SVRT Experiment 3\svrt_images\generated_images\results_problem_15\sample_1_0011.png,,,,,,,,,,,,,,,,,,,,,,0,1,1,1,0,21,21,21,,,,,,,,,,,,,,f,15,A,A,23,1,Correct!,0.7108432000968605,950.2900593001395,None,950.2900593001395,None,951.0566485000309,None,,,,,89,001,2023-05-30_12h54.48.874,colored_shuffled,2021.2.3,60.00636066677871,
C:\Users\subject\Desktop\SVRT Experiments\SVRT Experiment 3\svrt_images\generated_images\results_problem_15,,C:\Users\subject\Desktop\SVRT Experiments\SVRT Experiment 3\svrt_images\generated_images\results_problem_15\sample_0_0000.png,,,,,,,,,,,,,,,,,,,,,,0,1,1,1,0,22,22,22,,,,,,,,,,,,,,f,15,A,B,23,0,Incorrect!,0.3642005999572575,952.3566596000455,None,952.3566596000455,None,952.7732780000661,None,,,,,89,001,2023-05-30_12h54.48.874,colored_shuffled,2021.2.3,60.00636066677871,
C:\Users\subject\Desktop\SVRT Experiments\SVRT Experiment 3\svrt_images\generated_images\results_problem_15,,C:\Users\subject\Desktop\SVRT Experiments\SVRT Experiment 3\svrt_images\generated_images\results_problem_15\sample_1_0001.png,,,,,,,,,,,,,,,,,,,,,,0,1,1,1,0,23,23,23,,,,,,,,,,,,,,j,15,B,A,23,0,Incorrect!,1.5747038999106735,954.0900143999606,None,954.0900143999606,None,955.7065799999982,None,,,,,89,001,2023-05-30_12h54.48.874,colored_shuffled,2021.2.3,60.00636066677871,
C:\Users\subject\Desktop\SVRT Experiments\SVRT Experiment 3\svrt_images\generated_images\results_problem_15,,C:\Users\subject\Desktop\SVRT Experiments\SVRT Experiment 3\svrt_images\generated_images\results_problem_15\sample_1_0000.png,,,,,,,,,,,,,,,,,,,,,,0,1,1,1,0,24,24,24,,,,,,,,,,,,,,f,15,A,A,23,1,Correct!,5.552895199973136,957.0399416000582,None,957.0399416000582,None,962.6565340999514,None,,,,,89,001,2023-05-30_12h54.48.874,colored_shuffled,2021.2.3,60.00636066677871,
C:\Users\subject\Desktop\SVRT Experiments\SVRT Experiment 3\svrt_images\generated_images\results_problem_15,,C:\Users\subject\Desktop\SVRT Experiments\SVRT Experiment 3\svrt_images\generated_images\results_problem_15\sample_1_0006.png,,,,,,,,,,,,,,,,,,,,,,0,1,1,1,0,25,25,25,,,,,,,,,,,,,,f,15,A,A,23,1,Correct!,1.395049300044775,963.9898328999989,None,963.9898328999989,None,965.4064418000635,None,,,,,89,001,2023-05-30_12h54.48.874,colored_shuffled,2021.2.3,60.00636066677871,
C:\Users\subject\Desktop\SVRT Experiments\SVRT Experiment 3\svrt_images\generated_images\results_problem_15,,C:\Users\subject\Desktop\SVRT Experiments\SVRT Experiment 3\svrt_images\generated_images\results_problem_15\sample_0_0004.png,,,,,,,,,,,,,,,,,,,,,,0,1,1,1,0,26,26,26,,,,,,,,,,,,,,j,15,B,B,23,1,Correct!,3.7323962999507785,966.7564544000197,None,966.7564544000197,None,970.5230656999629,None,,,,,89,001,2023-05-30_12h54.48.874,colored_shuffled,2021.2.3,60.00636066677871,
C:\Users\subject\Desktop\SVRT Experiments\SVRT Experiment 3\svrt_images\generated_images\results_problem_15,,C:\Users\subject\Desktop\SVRT Experiments\SVRT Experiment 3\svrt_images\generated_images\results_problem_15\sample_0_0013.png,,,,,,,,,,,,,,,,,,,,,,0,1,1,1,0,27,27,27,,,,,,,,,,,,,,j,15,B,B,23,1,Correct!,8.262457699980587,971.906379000051,None,971.906379000051,None,980.2562102000229,None,,,,,89,001,2023-05-30_12h54.48.874,colored_shuffled,2021.2.3,60.00636066677871,
C:\Users\subject\Desktop\SVRT Experiments\SVRT Experiment 3\svrt_images\generated_images\results_problem_15,,C:\Users\subject\Desktop\SVRT Experiments\SVRT Experiment 3\svrt_images\generated_images\results_problem_15\sample_0_0002.png,,,,,,,,,,,,,,,,,,,,,,0,1,1,1,0,28,28,28,,,,,,,,,,,,,,j,15,B,B,23,1,Correct!,1.1213728999719024,981.6395354999695,None,981.6395354999695,None,982.822820500005,None,,,,,89,001,2023-05-30_12h54.48.874,colored_shuffled,2021.2.3,60.00636066677871,
C:\Users\subject\Desktop\SVRT Experiments\SVRT Experiment 3\svrt_images\generated_images\results_problem_15,,C:\Users\subject\Desktop\SVRT Experiments\SVRT Experiment 3\svrt_images\generated_images\results_problem_15\sample_0_0003.png,,,,,,,,,,,,,,,,,,,,,,0,1,1,1,0,29,29,29,,,,,,,,,,,,,,j,15,B,B,23,1,Correct!,0.8338728998787701,984.2228310001083,None,984.2228310001083,None,985.1227846001275,None,,,,,89,001,2023-05-30_12h54.48.874,colored_shuffled,2021.2.3,60.00636066677871,
C:\Users\subject\Desktop\SVRT Experiments\SVRT Experiment 3\svrt_images\generated_images\results_problem_15,,C:\Users\subject\Desktop\SVRT Experiments\SVRT Experiment 3\svrt_images\generated_images\results_problem_15\sample_1_0012.png,,,,,,,,,,,,,,,,,,,,,,0,1,1,1,0,30,30,30,,,,,,,,,,,,,,j,15,B,A,23,0,Incorrect!,0.940827100072056,986.5561240001116,None,986.5561240001116,None,987.5727308001369,None,,,,,89,001,2023-05-30_12h54.48.874,colored_shuffled,2021.2.3,60.00636066677871,
C:\Users\subject\Desktop\SVRT Experiments\SVRT Experiment 3\svrt_images\generated_images\results_problem_15,,C:\Users\subject\Desktop\SVRT Experiments\SVRT Experiment 3\svrt_images\generated_images\results_problem_15\sample_0_0009.png,,,,,,,,,,,,,,,,,,,,,,0,1,1,1,0,31,31,31,,,,,,,,,,,,,,f,15,A,B,23,0,Incorrect!,1.7788372000213712,989.0060670000967,None,989.0060670000967,None,990.8393397000618,None,,,,,89,001,2023-05-30_12h54.48.874,colored_shuffled,2021.2.3,60.00636066677871,
C:\Users\subject\Desktop\SVRT Experiments\SVRT Experiment 3\svrt_images\generated_images\results_problem_15,,C:\Users\subject\Desktop\SVRT Experiments\SVRT Experiment 3\svrt_images\generated_images\results_problem_15\sample_0_0008.png,,,,,,,,,,,,,,,,,,,,,,0,1,1,1,0,32,32,32,,,,,,,,,,,,,,j,15,B,B,23,1,Correct!,1.318766799988225,992.3060266999528,None,992.3060266999528,None,993.7060008000117,None,,,,,89,001,2023-05-30_12h54.48.874,colored_shuffled,2021.2.3,60.00636066677871,
C:\Users\subject\Desktop\SVRT Experiments\SVRT Experiment 3\svrt_images\generated_images\results_problem_15,,C:\Users\subject\Desktop\SVRT Experiments\SVRT Experiment 3\svrt_images\generated_images\results_problem_15\sample_0_0016.png,,,,,,,,,,,,,,,,,,,,,,0,1,1,1,0,33,33,33,,,,,,,,,,,,,,j,15,B,B,23,1,Correct!,0.5035804999060929,995.2892299001105,None,995.2892299001105,None,995.8892598999664,None,,,,,89,001,2023-05-30_12h54.48.874,colored_shuffled,2021.2.3,60.00636066677871,
C:\Users\subject\Desktop\SVRT Experiments\SVRT Experiment 3\svrt_images\generated_images\results_problem_15,,,,,,,,,,,,,,,,,,,,,,,,0,1,1,1,,,,,,,,,,,,,,,,,,,,,,,,,,,,,,,,996.8892572999466,996.8892572999466,space,1.4314645999111235,89,001,2023-05-30_12h54.48.874,colored_shuffled,2021.2.3,60.00636066677871,
C:\Users\subject\Desktop\SVRT Experiments\SVRT Experiment 3\svrt_images\generated_images\results_problem_11,,,C:\Users\subject\Desktop\SVRT Experiments\SVRT Experiment 3\svrt_images\generated_images\results_problem_11\sample_0_0006.png,,,,,,,,,,,,,,,,,,,,,0,2,2,2,0,0,0,0,,,,,,,,,,,,,,j,11,B,B,23,1,Correct!,13.525675999931991,998.3392131000292,None,998.3392131000292,None,1011.8889834999572,None,,,,,89,001,2023-05-30_12h54.48.874,colored_shuffled,2021.2.3,60.00636066677871,
C:\Users\subject\Desktop\SVRT Experiments\SVRT Experiment 3\svrt_images\generated_images\results_problem_11,,,C:\Users\subject\Desktop\SVRT Experiments\SVRT Experiment 3\svrt_images\generated_images\results_problem_11\sample_1_0003.png,,,,,,,,,,,,,,,,,,,,,0,2,2,2,0,1,1,1,,,,,,,,,,,,,,f,11,A,A,23,1,Correct!,10.5912528000772,1012.9056136000436,None,1012.9056136000436,None,1023.5221494999714,None,,,,,89,001,2023-05-30_12h54.48.874,colored_shuffled,2021.2.3,60.00636066677871,
C:\Users\subject\Desktop\SVRT Experiments\SVRT Experiment 3\svrt_images\generated_images\results_problem_11,,,C:\Users\subject\Desktop\SVRT Experiments\SVRT Experiment 3\svrt_images\generated_images\results_problem_11\sample_0_0004.png,,,,,,,,,,,,,,,,,,,,,0,2,2,2,0,2,2,2,,,,,,,,,,,,,,j,11,B,B,23,1,Correct!,1.9894154001958668,1024.5554603000637,None,1024.5554603000637,None,1026.5720863000024,None,,,,,89,001,2023-05-30_12h54.48.874,colored_shuffled,2021.2.3,60.00636066677871,
C:\Users\subject\Desktop\SVRT Experiments\SVRT Experiment 3\svrt_images\generated_images\results_problem_11,,,C:\Users\subject\Desktop\SVRT Experiments\SVRT Experiment 3\svrt_images\generated_images\results_problem_11\sample_0_0003.png,,,,,,,,,,,,,,,,,,,,,0,2,2,2,0,3,3,3,,,,,,,,,,,,,,j,11,B,B,23,1,Correct!,0.747375400038436,1027.605410200078,None,1027.605410200078,None,1028.3720341001172,None,,,,,89,001,2023-05-30_12h54.48.874,colored_shuffled,2021.2.3,60.00636066677871,
C:\Users\subject\Desktop\SVRT Experiments\SVRT Experiment 3\svrt_images\generated_images\results_problem_11,,,C:\Users\subject\Desktop\SVRT Experiments\SVRT Experiment 3\svrt_images\generated_images\results_problem_11\sample_1_0002.png,,,,,,,,,,,,,,,,,,,,,0,2,2,2,0,4,4,4,,,,,,,,,,,,,,f,11,A,A,23,1,Correct!,0.5948131000623107,1029.4220650000498,None,1029.4220650000498,None,1030.0386777000967,None,,,,,89,001,2023-05-30_12h54.48.874,colored_shuffled,2021.2.3,60.00636066677871,
C:\Users\subject\Desktop\SVRT Experiments\SVRT Experiment 3\svrt_images\generated_images\results_problem_11,,,C:\Users\subject\Desktop\SVRT Experiments\SVRT Experiment 3\svrt_images\generated_images\results_problem_11\sample_0_0001.png,,,,,,,,,,,,,,,,,,,,,0,2,2,2,0,5,5,5,,,,,,,,,,,,,,j,11,B,B,23,1,Correct!,0.45531089999713004,1031.105372400023,None,1031.105372400023,None,1031.5886479001492,None,,,,,89,001,2023-05-30_12h54.48.874,colored_shuffled,2021.2.3,60.00636066677871,
C:\Users\subject\Desktop\SVRT Experiments\SVRT Experiment 3\svrt_images\generated_images\results_problem_11,,,C:\Users\subject\Desktop\SVRT Experiments\SVRT Experiment 3\svrt_images\generated_images\results_problem_11\sample_1_0013.png,,,,,,,,,,,,,,,,,,,,,0,2,2,2,0,6,6,6,,,,,,,,,,,,,,f,11,A,A,23,1,Correct!,1.089345799991861,1032.6553448999766,None,1032.6553448999766,None,1033.7719465000555,None,,,,,89,001,2023-05-30_12h54.48.874,colored_shuffled,2021.2.3,60.00636066677871,
C:\Users\subject\Desktop\SVRT Experiments\SVRT Experiment 3\svrt_images\generated_images\results_problem_11,,,C:\Users\subject\Desktop\SVRT Experiments\SVRT Experiment 3\svrt_images\generated_images\results_problem_11\sample_0_0012.png,,,,,,,,,,,,,,,,,,,,,0,2,2,2,0,7,7,7,,,,,,,,,,,,,,,,,,,,,,,,,,,,1034.7719495999627,1034.7719495999627,space,1.6448985999450088,89,001,2023-05-30_12h54.48.874,colored_shuffled,2021.2.3,60.00636066677871,
C:\Users\subject\Desktop\SVRT Experiments\SVRT Experiment 3\svrt_images\generated_images\results_problem_8,,,C:\Users\subject\Desktop\SVRT Experiments\SVRT Experiment 3\svrt_images\generated_images\results_problem_11\sample_0_0012.png,C:\Users\subject\Desktop\SVRT Experiments\SVRT Experiment 3\svrt_images\generated_images\results_problem_8\sample_0_0013.png,,,,,,,,,,,,,,,,,,,,0,3,3,3,0,0,0,0,,,,,,,,,,,,,,j,8,B,B,23,1,Correct!,5.546247899997979,1036.4385772000533,None,1036.4385772000533,None,1042.0051741001662,None,,,,,89,001,2023-05-30_12h54.48.874,colored_shuffled,2021.2.3,60.00636066677871,
C:\Users\subject\Desktop\SVRT Experiments\SVRT Experiment 3\svrt_images\generated_images\results_problem_8,,,C:\Users\subject\Desktop\SVRT Experiments\SVRT Experiment 3\svrt_images\generated_images\results_problem_11\sample_0_0012.png,C:\Users\subject\Desktop\SVRT Experiments\SVRT Experiment 3\svrt_images\generated_images\results_problem_8\sample_0_0014.png,,,,,,,,,,,,,,,,,,,,0,3,3,3,0,1,1,1,,,,,,,,,,,,,,f,8,A,B,23,0,Incorrect!,0.8430682001635432,1043.021802400006,None,1043.021802400006,None,1043.8884666999802,None,,,,,89,001,2023-05-30_12h54.48.874,colored_shuffled,2021.2.3,60.00636066677871,
C:\Users\subject\Desktop\SVRT Experiments\SVRT Experiment 3\svrt_images\generated_images\results_problem_8,,,C:\Users\subject\Desktop\SVRT Experiments\SVRT Experiment 3\svrt_images\generated_images\results_problem_11\sample_0_0012.png,C:\Users\subject\Desktop\SVRT Experiments\SVRT Experiment 3\svrt_images\generated_images\results_problem_8\sample_1_0007.png,,,,,,,,,,,,,,,,,,,,0,3,3,3,0,2,2,2,,,,,,,,,,,,,,j,8,B,A,23,0,Incorrect!,6.686874000122771,1044.921812799992,None,1044.921812799992,None,1051.6383088999428,None,,,,,89,001,2023-05-30_12h54.48.874,colored_shuffled,2021.2.3,60.00636066677871,
C:\Users\subject\Desktop\SVRT Experiments\SVRT Experiment 3\svrt_images\generated_images\results_problem_8,,,C:\Users\subject\Desktop\SVRT Experiments\SVRT Experiment 3\svrt_images\generated_images\results_problem_11\sample_0_0012.png,C:\Users\subject\Desktop\SVRT Experiments\SVRT Experiment 3\svrt_images\generated_images\results_problem_8\sample_1_0012.png,,,,,,,,,,,,,,,,,,,,0,3,3,3,0,3,3,3,,,,,,,,,,,,,,f,8,A,A,23,1,Correct!,5.657078600022942,1052.671603300143,None,1052.671603300143,None,1058.3548344001174,None,,,,,89,001,2023-05-30_12h54.48.874,colored_shuffled,2021.2.3,60.00636066677871,
C:\Users\subject\Desktop\SVRT Experiments\SVRT Experiment 3\svrt_images\generated_images\results_problem_8,,,C:\Users\subject\Desktop\SVRT Experiments\SVRT Experiment 3\svrt_images\generated_images\results_problem_11\sample_0_0012.png,C:\Users\subject\Desktop\SVRT Experiments\SVRT Experiment 3\svrt_images\generated_images\results_problem_8\sample_1_0009.png,,,,,,,,,,,,,,,,,,,,0,3,3,3,0,4,4,4,,,,,,,,,,,,,,f,8,A,A,23,1,Correct!,1.4440153001341969,1059.4048774000257,None,1059.4048774000257,None,1060.8715397999622,None,,,,,89,001,2023-05-30_12h54.48.874,colored_shuffled,2021.2.3,60.00636066677871,
C:\Users\subject\Desktop\SVRT Experiments\SVRT Experiment 3\svrt_images\generated_images\results_problem_8,,,C:\Users\subject\Desktop\SVRT Experiments\SVRT Experiment 3\svrt_images\generated_images\results_problem_11\sample_0_0012.png,C:\Users\subject\Desktop\SVRT Experiments\SVRT Experiment 3\svrt_images\generated_images\results_problem_8\sample_1_0010.png,,,,,,,,,,,,,,,,,,,,0,3,3,3,0,5,5,5,,,,,,,,,,,,,,f,8,A,A,23,1,Correct!,0.8371059999335557,1061.9714796000626,None,1061.9714796000626,None,1062.8381575001404,None,,,,,89,001,2023-05-30_12h54.48.874,colored_shuffled,2021.2.3,60.00636066677871,
C:\Users\subject\Desktop\SVRT Experiments\SVRT Experiment 3\svrt_images\generated_images\results_problem_8,,,C:\Users\subject\Desktop\SVRT Experiments\SVRT Experiment 3\svrt_images\generated_images\results_problem_11\sample_0_0012.png,C:\Users\subject\Desktop\SVRT Experiments\SVRT Experiment 3\svrt_images\generated_images\results_problem_8\sample_1_0008.png,,,,,,,,,,,,,,,,,,,,0,3,3,3,0,6,6,6,,,,,,,,,,,,,,f,8,A,A,23,1,Correct!,0.8551596999168396,1063.9214761001058,None,1063.9214761001058,None,1064.8047666000202,None,,,,,89,001,2023-05-30_12h54.48.874,colored_shuffled,2021.2.3,60.00636066677871,
C:\Users\subject\Desktop\SVRT Experiments\SVRT Experiment 3\svrt_images\generated_images\results_problem_8,,,C:\Users\subject\Desktop\SVRT Experiments\SVRT Experiment 3\svrt_images\generated_images\results_problem_11\sample_0_0012.png,C:\Users\subject\Desktop\SVRT Experiments\SVRT Experiment 3\svrt_images\generated_images\results_problem_8\sample_1_0006.png,,,,,,,,,,,,,,,,,,,,0,3,3,3,0,7,7,7,,,,,,,,,,,,,,f,8,A,A,23,1,Correct!,1.488558999961242,1065.8881038001273,None,1065.8881038001273,None,1067.4047654001042,None,,,,,89,001,2023-05-30_12h54.48.874,colored_shuffled,2021.2.3,60.00636066677871,
C:\Users\subject\Desktop\SVRT Experiments\SVRT Experiment 3\svrt_images\generated_images\results_problem_8,,,C:\Users\subject\Desktop\SVRT Experiments\SVRT Experiment 3\svrt_images\generated_images\results_problem_11\sample_0_0012.png,C:\Users\subject\Desktop\SVRT Experiments\SVRT Experiment 3\svrt_images\generated_images\results_problem_8\sample_1_0013.png,,,,,,,,,,,,,,,,,,,,0,3,3,3,0,8,8,8,,,,,,,,,,,,,,f,8,A,A,23,1,Correct!,0.9112271999474615,1068.5214154999703,None,1068.5214154999703,None,1069.4546588000376,None,,,,,89,001,2023-05-30_12h54.48.874,colored_shuffled,2021.2.3,60.00636066677871,
C:\Users\subject\Desktop\SVRT Experiments\SVRT Experiment 3\svrt_images\generated_images\results_problem_8,,,C:\Users\subject\Desktop\SVRT Experiments\SVRT Experiment 3\svrt_images\generated_images\results_problem_11\sample_0_0012.png,C:\Users\subject\Desktop\SVRT Experiments\SVRT Experiment 3\svrt_images\generated_images\results_problem_8\sample_1_0002.png,,,,,,,,,,,,,,,,,,,,0,3,3,3,0,9,9,9,,,,,,,,,,,,,,f,8,A,A,23,1,Correct!,1.165343999862671,1070.5713746000547,None,1070.5713746000547,None,1071.7546268999577,None,,,,,89,001,2023-05-30_12h54.48.874,colored_shuffled,2021.2.3,60.00636066677871,
C:\Users\subject\Desktop\SVRT Experiments\SVRT Experiment 3\svrt_images\generated_images\results_problem_8,,,C:\Users\subject\Desktop\SVRT Experiments\SVRT Experiment 3\svrt_images\generated_images\results_problem_11\sample_0_0012.png,C:\Users\subject\Desktop\SVRT Experiments\SVRT Experiment 3\svrt_images\generated_images\results_problem_8\sample_1_0001.png,,,,,,,,,,,,,,,,,,,,0,3,3,3,0,10,10,10,,,,,,,,,,,,,,,,,,,,,,,,,,,,1072.7546787001193,1072.7546787001193,space,0.8938788999803364,89,001,2023-05-30_12h54.48.874,colored_shuffled,2021.2.3,60.00636066677871,
C:\Users\subject\Desktop\SVRT Experiments\SVRT Experiment 3\svrt_images\generated_images\results_problem_21,,,C:\Users\subject\Desktop\SVRT Experiments\SVRT Experiment 3\svrt_images\generated_images\results_problem_11\sample_0_0012.png,C:\Users\subject\Desktop\SVRT Experiments\SVRT Experiment 3\svrt_images\generated_images\results_problem_8\sample_1_0001.png,C:\Users\subject\Desktop\SVRT Experiments\SVRT Experiment 3\svrt_images\generated_images\results_problem_21\sample_0_0010.png,,,,,,,,,,,,,,,,,,,0,4,4,4,0,0,0,0,,,,,,,,,,,,,,f,21,A,B,23,0,Incorrect!,2.8385326999705285,1073.690164100146,None,1073.690164100146,None,1076.5545952999964,None,,,,,89,001,2023-05-30_12h54.48.874,colored_shuffled,2021.2.3,60.00636066677871,
C:\Users\subject\Desktop\SVRT Experiments\SVRT Experiment 3\svrt_images\generated_images\results_problem_21,,,C:\Users\subject\Desktop\SVRT Experiments\SVRT Experiment 3\svrt_images\generated_images\results_problem_11\sample_0_0012.png,C:\Users\subject\Desktop\SVRT Experiments\SVRT Experiment 3\svrt_images\generated_images\results_problem_8\sample_1_0001.png,C:\Users\subject\Desktop\SVRT Experiments\SVRT Experiment 3\svrt_images\generated_images\results_problem_21\sample_0_0006.png,,,,,,,,,,,,,,,,,,,0,4,4,4,0,1,1,1,,,,,,,,,,,,,,f,21,A,B,23,0,Incorrect!,10.541441099951044,1077.5712445001118,None,1077.5712445001118,None,1088.1377155999653,None,,,,,89,001,2023-05-30_12h54.48.874,colored_shuffled,2021.2.3,60.00636066677871,
C:\Users\subject\Desktop\SVRT Experiments\SVRT Experiment 3\svrt_images\generated_images\results_problem_21,,,C:\Users\subject\Desktop\SVRT Experiments\SVRT Experiment 3\svrt_images\generated_images\results_problem_11\sample_0_0012.png,C:\Users\subject\Desktop\SVRT Experiments\SVRT Experiment 3\svrt_images\generated_images\results_problem_8\sample_1_0001.png,C:\Users\subject\Desktop\SVRT Experiments\SVRT Experiment 3\svrt_images\generated_images\results_problem_21\sample_0_0004.png,,,,,,,,,,,,,,,,,,,0,4,4,4,0,2,2,2,,,,,,,,,,,,,,f,21,A,B,23,0,Incorrect!,1.854473700048402,1089.1543515000958,None,1089.1543515000958,None,1091.0376498000696,None,,,,,89,001,2023-05-30_12h54.48.874,colored_shuffled,2021.2.3,60.00636066677871,
C:\Users\subject\Desktop\SVRT Experiments\SVRT Experiment 3\svrt_images\generated_images\results_problem_21,,,C:\Users\subject\Desktop\SVRT Experiments\SVRT Experiment 3\svrt_images\generated_images\results_problem_11\sample_0_0012.png,C:\Users\subject\Desktop\SVRT Experiments\SVRT Experiment 3\svrt_images\generated_images\results_problem_8\sample_1_0001.png,C:\Users\subject\Desktop\SVRT Experiments\SVRT Experiment 3\svrt_images\generated_images\results_problem_21\sample_1_0007.png,,,,,,,,,,,,,,,,,,,0,4,4,4,0,3,3,3,,,,,,,,,,,,,,j,21,B,A,23,0,Incorrect!,2.9296524999663234,1092.071012499975,None,1092.071012499975,None,1095.0209365000483,None,,,,,89,001,2023-05-30_12h54.48.874,colored_shuffled,2021.2.3,60.00636066677871,
C:\Users\subject\Desktop\SVRT Experiments\SVRT Experiment 3\svrt_images\generated_images\results_problem_21,,,C:\Users\subject\Desktop\SVRT Experiments\SVRT Experiment 3\svrt_images\generated_images\results_problem_11\sample_0_0012.png,C:\Users\subject\Desktop\SVRT Experiments\SVRT Experiment 3\svrt_images\generated_images\results_problem_8\sample_1_0001.png,C:\Users\subject\Desktop\SVRT Experiments\SVRT Experiment 3\svrt_images\generated_images\results_problem_21\sample_1_0016.png,,,,,,,,,,,,,,,,,,,0,4,4,4,0,4,4,4,,,,,,,,,,,,,,f,21,A,A,23,1,Correct!,1.6659723001066595,1096.0709124000277,None,1096.0709124000277,None,1097.7542181999888,None,,,,,89,001,2023-05-30_12h54.48.874,colored_shuffled,2021.2.3,60.00636066677871,
C:\Users\subject\Desktop\SVRT Experiments\SVRT Experiment 3\svrt_images\generated_images\results_problem_21,,,C:\Users\subject\Desktop\SVRT Experiments\SVRT Experiment 3\svrt_images\generated_images\results_problem_11\sample_0_0012.png,C:\Users\subject\Desktop\SVRT Experiments\SVRT Experiment 3\svrt_images\generated_images\results_problem_8\sample_1_0001.png,C:\Users\subject\Desktop\SVRT Experiments\SVRT Experiment 3\svrt_images\generated_images\results_problem_21\sample_0_0005.png,,,,,,,,,,,,,,,,,,,0,4,4,4,0,5,5,5,,,,,,,,,,,,,,j,21,B,B,23,1,Correct!,6.180517500033602,1098.8042111000977,None,1098.8042111000977,None,1105.0041048000567,None,,,,,89,001,2023-05-30_12h54.48.874,colored_shuffled,2021.2.3,60.00636066677871,
C:\Users\subject\Desktop\SVRT Experiments\SVRT Experiment 3\svrt_images\generated_images\results_problem_21,,,C:\Users\subject\Desktop\SVRT Experiments\SVRT Experiment 3\svrt_images\generated_images\results_problem_11\sample_0_0012.png,C:\Users\subject\Desktop\SVRT Experiments\SVRT Experiment 3\svrt_images\generated_images\results_problem_8\sample_1_0001.png,C:\Users\subject\Desktop\SVRT Experiments\SVRT Experiment 3\svrt_images\generated_images\results_problem_21\sample_1_0002.png,,,,,,,,,,,,,,,,,,,0,4,4,4,0,6,6,6,,,,,,,,,,,,,,f,21,A,A,23,1,Correct!,10.946029899874702,1106.0707235001028,None,1106.0707235001028,None,1117.0372200000565,None,,,,,89,001,2023-05-30_12h54.48.874,colored_shuffled,2021.2.3,60.00636066677871,
C:\Users\subject\Desktop\SVRT Experiments\SVRT Experiment 3\svrt_images\generated_images\results_problem_21,,,C:\Users\subject\Desktop\SVRT Experiments\SVRT Experiment 3\svrt_images\generated_images\results_problem_11\sample_0_0012.png,C:\Users\subject\Desktop\SVRT Experiments\SVRT Experiment 3\svrt_images\generated_images\results_problem_8\sample_1_0001.png,C:\Users\subject\Desktop\SVRT Experiments\SVRT Experiment 3\svrt_images\generated_images\results_problem_21\sample_1_0010.png,,,,,,,,,,,,,,,,,,,0,4,4,4,0,7,7,7,,,,,,,,,,,,,,f,21,A,A,23,1,Correct!,2.112211599946022,1118.1205694000237,None,1118.1205694000237,None,1120.2538811000995,None,,,,,89,001,2023-05-30_12h54.48.874,colored_shuffled,2021.2.3,60.00636066677871,
C:\Users\subject\Desktop\SVRT Experiments\SVRT Experiment 3\svrt_images\generated_images\results_problem_21,,,C:\Users\subject\Desktop\SVRT Experiments\SVRT Experiment 3\svrt_images\generated_images\results_problem_11\sample_0_0012.png,C:\Users\subject\Desktop\SVRT Experiments\SVRT Experiment 3\svrt_images\generated_images\results_problem_8\sample_1_0001.png,C:\Users\subject\Desktop\SVRT Experiments\SVRT Experiment 3\svrt_images\generated_images\results_problem_21\sample_0_0009.png,,,,,,,,,,,,,,,,,,,0,4,4,4,0,8,8,8,,,,,,,,,,,,,,j,21,B,B,23,1,Correct!,1.9349613999947906,1121.353835399961,None,1121.353835399961,None,1123.3204815001227,None,,,,,89,001,2023-05-30_12h54.48.874,colored_shuffled,2021.2.3,60.00636066677871,
C:\Users\subject\Desktop\SVRT Experiments\SVRT Experiment 3\svrt_images\generated_images\results_problem_21,,,C:\Users\subject\Desktop\SVRT Experiments\SVRT Experiment 3\svrt_images\generated_images\results_problem_11\sample_0_0012.png,C:\Users\subject\Desktop\SVRT Experiments\SVRT Experiment 3\svrt_images\generated_images\results_problem_8\sample_1_0001.png,C:\Users\subject\Desktop\SVRT Experiments\SVRT Experiment 3\svrt_images\generated_images\results_problem_21\sample_1_0005.png,,,,,,,,,,,,,,,,,,,0,4,4,4,0,9,9,9,,,,,,,,,,,,,,j,21,B,A,23,0,Incorrect!,1.7069502000231296,1124.453756300034,None,1124.453756300034,None,1126.1870635000523,None,,,,,89,001,2023-05-30_12h54.48.874,colored_shuffled,2021.2.3,60.00636066677871,
C:\Users\subject\Desktop\SVRT Experiments\SVRT Experiment 3\svrt_images\generated_images\results_problem_21,,,C:\Users\subject\Desktop\SVRT Experiments\SVRT Experiment 3\svrt_images\generated_images\results_problem_11\sample_0_0012.png,C:\Users\subject\Desktop\SVRT Experiments\SVRT Experiment 3\svrt_images\generated_images\results_problem_8\sample_1_0001.png,C:\Users\subject\Desktop\SVRT Experiments\SVRT Experiment 3\svrt_images\generated_images\results_problem_21\sample_1_0008.png,,,,,,,,,,,,,,,,,,,0,4,4,4,0,10,10,10,,,,,,,,,,,,,,f,21,A,A,23,1,Correct!,3.6331078000366688,1127.3037205000874,None,1127.3037205000874,None,1130.953635000158,None,,,,,89,001,2023-05-30_12h54.48.874,colored_shuffled,2021.2.3,60.00636066677871,
C:\Users\subject\Desktop\SVRT Experiments\SVRT Experiment 3\svrt_images\generated_images\results_problem_21,,,C:\Users\subject\Desktop\SVRT Experiments\SVRT Experiment 3\svrt_images\generated_images\results_problem_11\sample_0_0012.png,C:\Users\subject\Desktop\SVRT Experiments\SVRT Experiment 3\svrt_images\generated_images\results_problem_8\sample_1_0001.png,C:\Users\subject\Desktop\SVRT Experiments\SVRT Experiment 3\svrt_images\generated_images\results_problem_21\sample_0_0002.png,,,,,,,,,,,,,,,,,,,0,4,4,4,0,11,11,11,,,,,,,,,,,,,,j,21,B,B,23,1,Correct!,1.4017773000523448,1132.086972600082,None,1132.086972600082,None,1133.5369605000596,None,,,,,89,001,2023-05-30_12h54.48.874,colored_shuffled,2021.2.3,60.00636066677871,
C:\Users\subject\Desktop\SVRT Experiments\SVRT Experiment 3\svrt_images\generated_images\results_problem_21,,,C:\Users\subject\Desktop\SVRT Experiments\SVRT Experiment 3\svrt_images\generated_images\results_problem_11\sample_0_0012.png,C:\Users\subject\Desktop\SVRT Experiments\SVRT Experiment 3\svrt_images\generated_images\results_problem_8\sample_1_0001.png,C:\Users\subject\Desktop\SVRT Experiments\SVRT Experiment 3\svrt_images\generated_images\results_problem_21\sample_1_0006.png,,,,,,,,,,,,,,,,,,,0,4,4,4,0,12,12,12,,,,,,,,,,,,,,f,21,A,A,23,1,Correct!,1.4098954999353737,1134.6868896000087,None,1134.6868896000087,None,1136.1368989001494,None,,,,,89,001,2023-05-30_12h54.48.874,colored_shuffled,2021.2.3,60.00636066677871,
C:\Users\subject\Desktop\SVRT Experiments\SVRT Experiment 3\svrt_images\generated_images\results_problem_21,,,C:\Users\subject\Desktop\SVRT Experiments\SVRT Experiment 3\svrt_images\generated_images\results_problem_11\sample_0_0012.png,C:\Users\subject\Desktop\SVRT Experiments\SVRT Experiment 3\svrt_images\generated_images\results_problem_8\sample_1_0001.png,C:\Users\subject\Desktop\SVRT Experiments\SVRT Experiment 3\svrt_images\generated_images\results_problem_21\sample_0_0013.png,,,,,,,,,,,,,,,,,,,0,4,4,4,0,13,13,13,,,,,,,,,,,,,,j,21,B,B,23,1,Correct!,0.8652733999770135,1137.3035763001535,None,1137.3035763001535,None,1138.1868996999692,None,,,,,89,001,2023-05-30_12h54.48.874,colored_shuffled,2021.2.3,60.00636066677871,
C:\Users\subject\Desktop\SVRT Experiments\SVRT Experiment 3\svrt_images\generated_images\results_problem_21,,,C:\Users\subject\Desktop\SVRT Experiments\SVRT Experiment 3\svrt_images\generated_images\results_problem_11\sample_0_0012.png,C:\Users\subject\Desktop\SVRT Experiments\SVRT Experiment 3\svrt_images\generated_images\results_problem_8\sample_1_0001.png,C:\Users\subject\Desktop\SVRT Experiments\SVRT Experiment 3\svrt_images\generated_images\results_problem_21\sample_0_0011.png,,,,,,,,,,,,,,,,,,,0,4,4,4,0,14,14,14,,,,,,,,,,,,,,f,21,A,B,23,0,Incorrect!,1.2312103998847306,1139.3535428000614,None,1139.3535428000614,None,1140.6035374000203,None,,,,,89,001,2023-05-30_12h54.48.874,colored_shuffled,2021.2.3,60.00636066677871,
C:\Users\subject\Desktop\SVRT Experiments\SVRT Experiment 3\svrt_images\generated_images\results_problem_21,,,C:\Users\subject\Desktop\SVRT Experiments\SVRT Experiment 3\svrt_images\generated_images\results_problem_11\sample_0_0012.png,C:\Users\subject\Desktop\SVRT Experiments\SVRT Experiment 3\svrt_images\generated_images\results_problem_8\sample_1_0001.png,C:\Users\subject\Desktop\SVRT Experiments\SVRT Experiment 3\svrt_images\generated_images\results_problem_21\sample_0_0012.png,,,,,,,,,,,,,,,,,,,0,4,4,4,0,15,15,15,,,,,,,,,,,,,,j,21,B,B,23,1,Correct!,1.2780168999452144,1141.7867773000617,None,1141.7867773000617,None,1143.1034554000944,None,,,,,89,001,2023-05-30_12h54.48.874,colored_shuffled,2021.2.3,60.00636066677871,
C:\Users\subject\Desktop\SVRT Experiments\SVRT Experiment 3\svrt_images\generated_images\results_problem_21,,,C:\Users\subject\Desktop\SVRT Experiments\SVRT Experiment 3\svrt_images\generated_images\results_problem_11\sample_0_0012.png,C:\Users\subject\Desktop\SVRT Experiments\SVRT Experiment 3\svrt_images\generated_images\results_problem_8\sample_1_0001.png,C:\Users\subject\Desktop\SVRT Experiments\SVRT Experiment 3\svrt_images\generated_images\results_problem_21\sample_0_0007.png,,,,,,,,,,,,,,,,,,,0,4,4,4,0,16,16,16,,,,,,,,,,,,,,j,21,B,B,23,1,Correct!,0.9052452000323683,1144.303451700136,None,1144.303451700136,None,1145.2534197000787,None,,,,,89,001,2023-05-30_12h54.48.874,colored_shuffled,2021.2.3,60.00636066677871,
C:\Users\subject\Desktop\SVRT Experiments\SVRT Experiment 3\svrt_images\generated_images\results_problem_21,,,C:\Users\subject\Desktop\SVRT Experiments\SVRT Experiment 3\svrt_images\generated_images\results_problem_11\sample_0_0012.png,C:\Users\subject\Desktop\SVRT Experiments\SVRT Experiment 3\svrt_images\generated_images\results_problem_8\sample_1_0001.png,C:\Users\subject\Desktop\SVRT Experiments\SVRT Experiment 3\svrt_images\generated_images\results_problem_21\sample_0_0008.png,,,,,,,,,,,,,,,,,,,0,4,4,4,0,17,17,17,,,,,,,,,,,,,,j,21,B,B,23,1,Correct!,0.8986519000027329,1146.470103400061,None,1146.470103400061,None,1147.40338100004,None,,,,,89,001,2023-05-30_12h54.48.874,colored_shuffled,2021.2.3,60.00636066677871,
C:\Users\subject\Desktop\SVRT Experiments\SVRT Experiment 3\svrt_images\generated_images\results_problem_21,,,C:\Users\subject\Desktop\SVRT Experiments\SVRT Experiment 3\svrt_images\generated_images\results_problem_11\sample_0_0012.png,C:\Users\subject\Desktop\SVRT Experiments\SVRT Experiment 3\svrt_images\generated_images\results_problem_8\sample_1_0001.png,C:\Users\subject\Desktop\SVRT Experiments\SVRT Experiment 3\svrt_images\generated_images\results_problem_21\sample_0_0001.png,,,,,,,,,,,,,,,,,,,0,4,4,4,0,18,18,18,,,,,,,,,,,,,,j,21,B,B,23,1,Correct!,1.9081604999955744,1148.6367170000449,None,1148.6367170000449,None,1150.6033398001455,None,,,,,89,001,2023-05-30_12h54.48.874,colored_shuffled,2021.2.3,60.00636066677871,
C:\Users\subject\Desktop\SVRT Experiments\SVRT Experiment 3\svrt_images\generated_images\results_problem_21,,,C:\Users\subject\Desktop\SVRT Experiments\SVRT Experiment 3\svrt_images\generated_images\results_problem_11\sample_0_0012.png,C:\Users\subject\Desktop\SVRT Experiments\SVRT Experiment 3\svrt_images\generated_images\results_problem_8\sample_1_0001.png,C:\Users\subject\Desktop\SVRT Experiments\SVRT Experiment 3\svrt_images\generated_images\results_problem_21\sample_1_0001.png,,,,,,,,,,,,,,,,,,,0,4,4,4,0,19,19,19,,,,,,,,,,,,,,f,21,A,A,23,1,Correct!,1.0914465999230742,1151.8533451000694,None,1151.8533451000694,None,1152.9699921000283,None,,,,,89,001,2023-05-30_12h54.48.874,colored_shuffled,2021.2.3,60.00636066677871,
C:\Users\subject\Desktop\SVRT Experiments\SVRT Experiment 3\svrt_images\generated_images\results_problem_21,,,C:\Users\subject\Desktop\SVRT Experiments\SVRT Experiment 3\svrt_images\generated_images\results_problem_11\sample_0_0012.png,C:\Users\subject\Desktop\SVRT Experiments\SVRT Experiment 3\svrt_images\generated_images\results_problem_8\sample_1_0001.png,C:\Users\subject\Desktop\SVRT Experiments\SVRT Experiment 3\svrt_images\generated_images\results_problem_21\sample_0_0000.png,,,,,,,,,,,,,,,,,,,0,4,4,4,0,20,20,20,,,,,,,,,,,,,,j,21,B,B,23,1,Correct!,2.124190399888903,1154.2365906001069,None,1154.2365906001069,None,1156.403234000085,None,,,,,89,001,2023-05-30_12h54.48.874,colored_shuffled,2021.2.3,60.00636066677871,
C:\Users\subject\Desktop\SVRT Experiments\SVRT Experiment 3\svrt_images\generated_images\results_problem_21,,,C:\Users\subject\Desktop\SVRT Experiments\SVRT Experiment 3\svrt_images\generated_images\results_problem_11\sample_0_0012.png,C:\Users\subject\Desktop\SVRT Experiments\SVRT Experiment 3\svrt_images\generated_images\results_problem_8\sample_1_0001.png,C:\Users\subject\Desktop\SVRT Experiments\SVRT Experiment 3\svrt_images\generated_images\results_problem_21\sample_1_0009.png,,,,,,,,,,,,,,,,,,,0,4,4,4,0,21,21,21,,,,,,,,,,,,,,f,21,A,A,23,1,Correct!,3.538205899996683,1157.6866248999722,None,1157.6866248999722,None,1161.2531896999571,None,,,,,89,001,2023-05-30_12h54.48.874,colored_shuffled,2021.2.3,60.00636066677871,
C:\Users\subject\Desktop\SVRT Experiments\SVRT Experiment 3\svrt_images\generated_images\results_problem_21,,,C:\Users\subject\Desktop\SVRT Experiments\SVRT Experiment 3\svrt_images\generated_images\results_problem_11\sample_0_0012.png,C:\Users\subject\Desktop\SVRT Experiments\SVRT Experiment 3\svrt_images\generated_images\results_problem_8\sample_1_0001.png,C:\Users\subject\Desktop\SVRT Experiments\SVRT Experiment 3\svrt_images\generated_images\results_problem_21\sample_1_0004.png,,,,,,,,,,,,,,,,,,,0,4,4,4,0,22,22,22,,,,,,,,,,,,,,,,,,,,,,,,,,,,1162.2531522000208,1162.2531522000208,space,1.0434691000264138,89,001,2023-05-30_12h54.48.874,colored_shuffled,2021.2.3,60.00636066677871,
C:\Users\subject\Desktop\SVRT Experiments\SVRT Experiment 3\svrt_images\generated_images\results_problem_19,,,C:\Users\subject\Desktop\SVRT Experiments\SVRT Experiment 3\svrt_images\generated_images\results_problem_11\sample_0_0012.png,C:\Users\subject\Desktop\SVRT Experiments\SVRT Experiment 3\svrt_images\generated_images\results_problem_8\sample_1_0001.png,C:\Users\subject\Desktop\SVRT Experiments\SVRT Experiment 3\svrt_images\generated_images\results_problem_21\sample_1_0004.png,C:\Users\subject\Desktop\SVRT Experiments\SVRT Experiment 3\svrt_images\generated_images\results_problem_19\sample_0_0013.png,,,,,,,,,,,,,,,,,,0,5,5,5,0,0,0,0,,,,,,,,,,,,,,j,19,B,B,23,1,Correct!,1.1848484000656754,1163.3197856000625,None,1163.3197856000625,None,1164.5364632001147,None,,,,,89,001,2023-05-30_12h54.48.874,colored_shuffled,2021.2.3,60.00636066677871,
C:\Users\subject\Desktop\SVRT Experiments\SVRT Experiment 3\svrt_images\generated_images\results_problem_19,,,C:\Users\subject\Desktop\SVRT Experiments\SVRT Experiment 3\svrt_images\generated_images\results_problem_11\sample_0_0012.png,C:\Users\subject\Desktop\SVRT Experiments\SVRT Experiment 3\svrt_images\generated_images\results_problem_8\sample_1_0001.png,C:\Users\subject\Desktop\SVRT Experiments\SVRT Experiment 3\svrt_images\generated_images\results_problem_21\sample_1_0004.png,C:\Users\subject\Desktop\SVRT Experiments\SVRT Experiment 3\svrt_images\generated_images\results_problem_19\sample_1_0001.png,,,,,,,,,,,,,,,,,,0,5,5,5,0,1,1,1,,,,,,,,,,,,,,f,19,A,A,23,1,Correct!,4.7036188000347465,1165.553084100131,None,1165.553084100131,None,1170.2863426001277,None,,,,,89,001,2023-05-30_12h54.48.874,colored_shuffled,2021.2.3,60.00636066677871,
C:\Users\subject\Desktop\SVRT Experiments\SVRT Experiment 3\svrt_images\generated_images\results_problem_19,,,C:\Users\subject\Desktop\SVRT Experiments\SVRT Experiment 3\svrt_images\generated_images\results_problem_11\sample_0_0012.png,C:\Users\subject\Desktop\SVRT Experiments\SVRT Experiment 3\svrt_images\generated_images\results_problem_8\sample_1_0001.png,C:\Users\subject\Desktop\SVRT Experiments\SVRT Experiment 3\svrt_images\generated_images\results_problem_21\sample_1_0004.png,C:\Users\subject\Desktop\SVRT Experiments\SVRT Experiment 3\svrt_images\generated_images\results_problem_19\sample_0_0006.png,,,,,,,,,,,,,,,,,,0,5,5,5,0,2,2,2,,,,,,,,,,,,,,j,19,B,B,23,1,Correct!,1.2250021998770535,1171.3196334000677,None,1171.3196334000677,None,1172.5696765000466,None,,,,,89,001,2023-05-30_12h54.48.874,colored_shuffled,2021.2.3,60.00636066677871,
C:\Users\subject\Desktop\SVRT Experiments\SVRT Experiment 3\svrt_images\generated_images\results_problem_19,,,C:\Users\subject\Desktop\SVRT Experiments\SVRT Experiment 3\svrt_images\generated_images\results_problem_11\sample_0_0012.png,C:\Users\subject\Desktop\SVRT Experiments\SVRT Experiment 3\svrt_images\generated_images\results_problem_8\sample_1_0001.png,C:\Users\subject\Desktop\SVRT Experiments\SVRT Experiment 3\svrt_images\generated_images\results_problem_21\sample_1_0004.png,C:\Users\subject\Desktop\SVRT Experiments\SVRT Experiment 3\svrt_images\generated_images\results_problem_19\sample_1_0000.png,,,,,,,,,,,,,,,,,,0,5,5,5,0,3,3,3,,,,,,,,,,,,,,f,19,A,A,23,1,Correct!,1.309853299986571,1173.6029672999866,None,1173.6029672999866,None,1174.9362719000783,None,,,,,89,001,2023-05-30_12h54.48.874,colored_shuffled,2021.2.3,60.00636066677871,
C:\Users\subject\Desktop\SVRT Experiments\SVRT Experiment 3\svrt_images\generated_images\results_problem_19,,,C:\Users\subject\Desktop\SVRT Experiments\SVRT Experiment 3\svrt_images\generated_images\results_problem_11\sample_0_0012.png,C:\Users\subject\Desktop\SVRT Experiments\SVRT Experiment 3\svrt_images\generated_images\results_problem_8\sample_1_0001.png,C:\Users\subject\Desktop\SVRT Experiments\SVRT Experiment 3\svrt_images\generated_images\results_problem_21\sample_1_0004.png,C:\Users\subject\Desktop\SVRT Experiments\SVRT Experiment 3\svrt_images\generated_images\results_problem_19\sample_1_0009.png,,,,,,,,,,,,,,,,,,0,5,5,5,0,4,4,4,,,,,,,,,,,,,,f,19,A,A,23,1,Correct!,0.662387500051409,1175.9862850001082,None,1175.9862850001082,None,1176.6695832000114,None,,,,,89,001,2023-05-30_12h54.48.874,colored_shuffled,2021.2.3,60.00636066677871,
C:\Users\subject\Desktop\SVRT Experiments\SVRT Experiment 3\svrt_images\generated_images\results_problem_19,,,C:\Users\subject\Desktop\SVRT Experiments\SVRT Experiment 3\svrt_images\generated_images\results_problem_11\sample_0_0012.png,C:\Users\subject\Desktop\SVRT Experiments\SVRT Experiment 3\svrt_images\generated_images\results_problem_8\sample_1_0001.png,C:\Users\subject\Desktop\SVRT Experiments\SVRT Experiment 3\svrt_images\generated_images\results_problem_21\sample_1_0004.png,C:\Users\subject\Desktop\SVRT Experiments\SVRT Experiment 3\svrt_images\generated_images\results_problem_19\sample_1_0014.png,,,,,,,,,,,,,,,,,,0,5,5,5,0,5,5,5,,,,,,,,,,,,,,f,19,A,A,23,1,Correct!,0.6085109000559896,1177.736247499939,None,1177.736247499939,None,1178.3695555999875,None,,,,,89,001,2023-05-30_12h54.48.874,colored_shuffled,2021.2.3,60.00636066677871,
C:\Users\subject\Desktop\SVRT Experiments\SVRT Experiment 3\svrt_images\generated_images\results_problem_19,,,C:\Users\subject\Desktop\SVRT Experiments\SVRT Experiment 3\svrt_images\generated_images\results_problem_11\sample_0_0012.png,C:\Users\subject\Desktop\SVRT Experiments\SVRT Experiment 3\svrt_images\generated_images\results_problem_8\sample_1_0001.png,C:\Users\subject\Desktop\SVRT Experiments\SVRT Experiment 3\svrt_images\generated_images\results_problem_21\sample_1_0004.png,C:\Users\subject\Desktop\SVRT Experiments\SVRT Experiment 3\svrt_images\generated_images\results_problem_19\sample_0_0016.png,,,,,,,,,,,,,,,,,,0,5,5,5,0,6,6,6,,,,,,,,,,,,,,j,19,B,B,23,1,Correct!,2.8044280998874456,1179.436202000128,None,1179.436202000128,None,1182.2694884000812,None,,,,,89,001,2023-05-30_12h54.48.874,colored_shuffled,2021.2.3,60.00636066677871,
C:\Users\subject\Desktop\SVRT Experiments\SVRT Experiment 3\svrt_images\generated_images\results_problem_19,,,C:\Users\subject\Desktop\SVRT Experiments\SVRT Experiment 3\svrt_images\generated_images\results_problem_11\sample_0_0012.png,C:\Users\subject\Desktop\SVRT Experiments\SVRT Experiment 3\svrt_images\generated_images\results_problem_8\sample_1_0001.png,C:\Users\subject\Desktop\SVRT Experiments\SVRT Experiment 3\svrt_images\generated_images\results_problem_21\sample_1_0004.png,C:\Users\subject\Desktop\SVRT Experiments\SVRT Experiment 3\svrt_images\generated_images\results_problem_19\sample_0_0005.png,,,,,,,,,,,,,,,,,,0,5,5,5,0,7,7,7,,,,,,,,,,,,,,,,,,,,,,,,,,,,1183.269451300148,1183.269451300148,space,0.9153240998275578,89,001,2023-05-30_12h54.48.874,colored_shuffled,2021.2.3,60.00636066677871,
C:\Users\subject\Desktop\SVRT Experiments\SVRT Experiment 3\svrt_images\generated_images\results_problem_3,,,C:\Users\subject\Desktop\SVRT Experiments\SVRT Experiment 3\svrt_images\generated_images\results_problem_11\sample_0_0012.png,C:\Users\subject\Desktop\SVRT Experiments\SVRT Experiment 3\svrt_images\generated_images\results_problem_8\sample_1_0001.png,C:\Users\subject\Desktop\SVRT Experiments\SVRT Experiment 3\svrt_images\generated_images\results_problem_21\sample_1_0004.png,C:\Users\subject\Desktop\SVRT Experiments\SVRT Experiment 3\svrt_images\generated_images\results_problem_19\sample_0_0005.png,C:\Users\subject\Desktop\SVRT Experiments\SVRT Experiment 3\svrt_images\generated_images\results_problem_3\sample_0_0000.png,,,,,,,,,,,,,,,,,0,6,6,6,0,0,0,0,,,,,,,,,,,,,,j,3,B,B,23,1,Correct!,2.5580398999154568,1184.2027751000132,None,1184.2027751000132,None,1186.7860793001018,None,,,,,89,001,2023-05-30_12h54.48.874,colored_shuffled,2021.2.3,60.00636066677871,
C:\Users\subject\Desktop\SVRT Experiments\SVRT Experiment 3\svrt_images\generated_images\results_problem_3,,,C:\Users\subject\Desktop\SVRT Experiments\SVRT Experiment 3\svrt_images\generated_images\results_problem_11\sample_0_0012.png,C:\Users\subject\Desktop\SVRT Experiments\SVRT Experiment 3\svrt_images\generated_images\results_problem_8\sample_1_0001.png,C:\Users\subject\Desktop\SVRT Experiments\SVRT Experiment 3\svrt_images\generated_images\results_problem_21\sample_1_0004.png,C:\Users\subject\Desktop\SVRT Experiments\SVRT Experiment 3\svrt_images\generated_images\results_problem_19\sample_0_0005.png,C:\Users\subject\Desktop\SVRT Experiments\SVRT Experiment 3\svrt_images\generated_images\results_problem_3\sample_0_0006.png,,,,,,,,,,,,,,,,,0,6,6,6,0,1,1,1,,,,,,,,,,,,,,j,3,B,B,23,1,Correct!,3.214049599831924,1187.8027515001595,None,1187.8027515001595,None,1191.036021700129,None,,,,,89,001,2023-05-30_12h54.48.874,colored_shuffled,2021.2.3,60.00636066677871,
C:\Users\subject\Desktop\SVRT Experiments\SVRT Experiment 3\svrt_images\generated_images\results_problem_3,,,C:\Users\subject\Desktop\SVRT Experiments\SVRT Experiment 3\svrt_images\generated_images\results_problem_11\sample_0_0012.png,C:\Users\subject\Desktop\SVRT Experiments\SVRT Experiment 3\svrt_images\generated_images\results_problem_8\sample_1_0001.png,C:\Users\subject\Desktop\SVRT Experiments\SVRT Experiment 3\svrt_images\generated_images\results_problem_21\sample_1_0004.png,C:\Users\subject\Desktop\SVRT Experiments\SVRT Experiment 3\svrt_images\generated_images\results_problem_19\sample_0_0005.png,C:\Users\subject\Desktop\SVRT Experiments\SVRT Experiment 3\svrt_images\generated_images\results_problem_3\sample_0_0003.png,,,,,,,,,,,,,,,,,0,6,6,6,0,2,2,2,,,,,,,,,,,,,,j,3,B,B,23,1,Correct!,1.4353529999498278,1192.0693257001694,None,1192.0693257001694,None,1193.5359505000524,None,,,,,89,001,2023-05-30_12h54.48.874,colored_shuffled,2021.2.3,60.00636066677871,
C:\Users\subject\Desktop\SVRT Experiments\SVRT Experiment 3\svrt_images\generated_images\results_problem_3,,,C:\Users\subject\Desktop\SVRT Experiments\SVRT Experiment 3\svrt_images\generated_images\results_problem_11\sample_0_0012.png,C:\Users\subject\Desktop\SVRT Experiments\SVRT Experiment 3\svrt_images\generated_images\results_problem_8\sample_1_0001.png,C:\Users\subject\Desktop\SVRT Experiments\SVRT Experiment 3\svrt_images\generated_images\results_problem_21\sample_1_0004.png,C:\Users\subject\Desktop\SVRT Experiments\SVRT Experiment 3\svrt_images\generated_images\results_problem_19\sample_0_0005.png,C:\Users\subject\Desktop\SVRT Experiments\SVRT Experiment 3\svrt_images\generated_images\results_problem_3\sample_0_0007.png,,,,,,,,,,,,,,,,,0,6,6,6,0,3,3,3,,,,,,,,,,,,,,j,3,B,B,23,1,Correct!,0.7594538999255747,1194.5692729000002,None,1194.5692729000002,None,1195.3525789999403,None,,,,,89,001,2023-05-30_12h54.48.874,colored_shuffled,2021.2.3,60.00636066677871,
C:\Users\subject\Desktop\SVRT Experiments\SVRT Experiment 3\svrt_images\generated_images\results_problem_3,,,C:\Users\subject\Desktop\SVRT Experiments\SVRT Experiment 3\svrt_images\generated_images\results_problem_11\sample_0_0012.png,C:\Users\subject\Desktop\SVRT Experiments\SVRT Experiment 3\svrt_images\generated_images\results_problem_8\sample_1_0001.png,C:\Users\subject\Desktop\SVRT Experiments\SVRT Experiment 3\svrt_images\generated_images\results_problem_21\sample_1_0004.png,C:\Users\subject\Desktop\SVRT Experiments\SVRT Experiment 3\svrt_images\generated_images\results_problem_19\sample_0_0005.png,C:\Users\subject\Desktop\SVRT Experiments\SVRT Experiment 3\svrt_images\generated_images\results_problem_3\sample_1_0009.png,,,,,,,,,,,,,,,,,0,6,6,6,0,4,4,4,,,,,,,,,,,,,,f,3,A,A,23,1,Correct!,0.7901178000029176,1196.4026079999749,None,1196.4026079999749,None,1197.219256500015,None,,,,,89,001,2023-05-30_12h54.48.874,colored_shuffled,2021.2.3,60.00636066677871,
C:\Users\subject\Desktop\SVRT Experiments\SVRT Experiment 3\svrt_images\generated_images\results_problem_3,,,C:\Users\subject\Desktop\SVRT Experiments\SVRT Experiment 3\svrt_images\generated_images\results_problem_11\sample_0_0012.png,C:\Users\subject\Desktop\SVRT Experiments\SVRT Experiment 3\svrt_images\generated_images\results_problem_8\sample_1_0001.png,C:\Users\subject\Desktop\SVRT Experiments\SVRT Experiment 3\svrt_images\generated_images\results_problem_21\sample_1_0004.png,C:\Users\subject\Desktop\SVRT Experiments\SVRT Experiment 3\svrt_images\generated_images\results_problem_19\sample_0_0005.png,C:\Users\subject\Desktop\SVRT Experiments\SVRT Experiment 3\svrt_images\generated_images\results_problem_3\sample_0_0016.png,,,,,,,,,,,,,,,,,0,6,6,6,0,5,5,5,,,,,,,,,,,,,,j,3,B,B,23,1,Correct!,1.7635629000142217,1198.2692031001206,None,1198.2692031001206,None,1200.0525142999832,None,,,,,89,001,2023-05-30_12h54.48.874,colored_shuffled,2021.2.3,60.00636066677871,
C:\Users\subject\Desktop\SVRT Experiments\SVRT Experiment 3\svrt_images\generated_images\results_problem_3,,,C:\Users\subject\Desktop\SVRT Experiments\SVRT Experiment 3\svrt_images\generated_images\results_problem_11\sample_0_0012.png,C:\Users\subject\Desktop\SVRT Experiments\SVRT Experiment 3\svrt_images\generated_images\results_problem_8\sample_1_0001.png,C:\Users\subject\Desktop\SVRT Experiments\SVRT Experiment 3\svrt_images\generated_images\results_problem_21\sample_1_0004.png,C:\Users\subject\Desktop\SVRT Experiments\SVRT Experiment 3\svrt_images\generated_images\results_problem_19\sample_0_0005.png,C:\Users\subject\Desktop\SVRT Experiments\SVRT Experiment 3\svrt_images\generated_images\results_problem_3\sample_1_0002.png,,,,,,,,,,,,,,,,,0,6,6,6,0,6,6,6,,,,,,,,,,,,,,f,3,A,A,23,1,Correct!,0.9214856999460608,1201.1191633001436,None,1201.1191633001436,None,1202.0691410000436,None,,,,,89,001,2023-05-30_12h54.48.874,colored_shuffled,2021.2.3,60.00636066677871,
C:\Users\subject\Desktop\SVRT Experiments\SVRT Experiment 3\svrt_images\generated_images\results_problem_3,,,C:\Users\subject\Desktop\SVRT Experiments\SVRT Experiment 3\svrt_images\generated_images\results_problem_11\sample_0_0012.png,C:\Users\subject\Desktop\SVRT Experiments\SVRT Experiment 3\svrt_images\generated_images\results_problem_8\sample_1_0001.png,C:\Users\subject\Desktop\SVRT Experiments\SVRT Experiment 3\svrt_images\generated_images\results_problem_21\sample_1_0004.png,C:\Users\subject\Desktop\SVRT Experiments\SVRT Experiment 3\svrt_images\generated_images\results_problem_19\sample_0_0005.png,C:\Users\subject\Desktop\SVRT Experiments\SVRT Experiment 3\svrt_images\generated_images\results_problem_3\sample_1_0007.png,,,,,,,,,,,,,,,,,0,6,6,6,0,7,7,7,,,,,,,,,,,,,,,,,,,,,,,,,,,,1203.0691409001593,1203.0691409001593,space,1.2756280999165028,89,001,2023-05-30_12h54.48.874,colored_shuffled,2021.2.3,60.00636066677871,
C:\Users\subject\Desktop\SVRT Experiments\SVRT Experiment 3\svrt_images\generated_images\results_problem_17,,,C:\Users\subject\Desktop\SVRT Experiments\SVRT Experiment 3\svrt_images\generated_images\results_problem_11\sample_0_0012.png,C:\Users\subject\Desktop\SVRT Experiments\SVRT Experiment 3\svrt_images\generated_images\results_problem_8\sample_1_0001.png,C:\Users\subject\Desktop\SVRT Experiments\SVRT Experiment 3\svrt_images\generated_images\results_problem_21\sample_1_0004.png,C:\Users\subject\Desktop\SVRT Experiments\SVRT Experiment 3\svrt_images\generated_images\results_problem_19\sample_0_0005.png,C:\Users\subject\Desktop\SVRT Experiments\SVRT Experiment 3\svrt_images\generated_images\results_problem_3\sample_1_0007.png,C:\Users\subject\Desktop\SVRT Experiments\SVRT Experiment 3\svrt_images\generated_images\results_problem_17\sample_0_0012.png,,,,,,,,,,,,,,,,0,7,7,7,0,0,0,0,,,,,,,,,,,,,,j,17,B,B,23,1,Correct!,1.7914798001293093,1204.3691396999639,None,1204.3691396999639,None,1206.185757700121,None,,,,,89,001,2023-05-30_12h54.48.874,colored_shuffled,2021.2.3,60.00636066677871,
C:\Users\subject\Desktop\SVRT Experiments\SVRT Experiment 3\svrt_images\generated_images\results_problem_17,,,C:\Users\subject\Desktop\SVRT Experiments\SVRT Experiment 3\svrt_images\generated_images\results_problem_11\sample_0_0012.png,C:\Users\subject\Desktop\SVRT Experiments\SVRT Experiment 3\svrt_images\generated_images\results_problem_8\sample_1_0001.png,C:\Users\subject\Desktop\SVRT Experiments\SVRT Experiment 3\svrt_images\generated_images\results_problem_21\sample_1_0004.png,C:\Users\subject\Desktop\SVRT Experiments\SVRT Experiment 3\svrt_images\generated_images\results_problem_19\sample_0_0005.png,C:\Users\subject\Desktop\SVRT Experiments\SVRT Experiment 3\svrt_images\generated_images\results_problem_3\sample_1_0007.png,C:\Users\subject\Desktop\SVRT Experiments\SVRT Experiment 3\svrt_images\generated_images\results_problem_17\sample_0_0007.png,,,,,,,,,,,,,,,,0,7,7,7,0,1,1,1,,,,,,,,,,,,,,j,17,B,B,23,1,Correct!,1.894253599923104,1207.2024362999946,None,1207.2024362999946,None,1209.1190544001292,None,,,,,89,001,2023-05-30_12h54.48.874,colored_shuffled,2021.2.3,60.00636066677871,
C:\Users\subject\Desktop\SVRT Experiments\SVRT Experiment 3\svrt_images\generated_images\results_problem_17,,,C:\Users\subject\Desktop\SVRT Experiments\SVRT Experiment 3\svrt_images\generated_images\results_problem_11\sample_0_0012.png,C:\Users\subject\Desktop\SVRT Experiments\SVRT Experiment 3\svrt_images\generated_images\results_problem_8\sample_1_0001.png,C:\Users\subject\Desktop\SVRT Experiments\SVRT Experiment 3\svrt_images\generated_images\results_problem_21\sample_1_0004.png,C:\Users\subject\Desktop\SVRT Experiments\SVRT Experiment 3\svrt_images\generated_images\results_problem_19\sample_0_0005.png,C:\Users\subject\Desktop\SVRT Experiments\SVRT Experiment 3\svrt_images\generated_images\results_problem_3\sample_1_0007.png,C:\Users\subject\Desktop\SVRT Experiments\SVRT Experiment 3\svrt_images\generated_images\results_problem_17\sample_0_0003.png,,,,,,,,,,,,,,,,0,7,7,7,0,2,2,2,,,,,,,,,,,,,,j,17,B,B,23,1,Correct!,4.00898819998838,1210.1356792000588,None,1210.1356792000588,None,1214.1689607000444,None,,,,,89,001,2023-05-30_12h54.48.874,colored_shuffled,2021.2.3,60.00636066677871,
C:\Users\subject\Desktop\SVRT Experiments\SVRT Experiment 3\svrt_images\generated_images\results_problem_17,,,C:\Users\subject\Desktop\SVRT Experiments\SVRT Experiment 3\svrt_images\generated_images\results_problem_11\sample_0_0012.png,C:\Users\subject\Desktop\SVRT Experiments\SVRT Experiment 3\svrt_images\generated_images\results_problem_8\sample_1_0001.png,C:\Users\subject\Desktop\SVRT Experiments\SVRT Experiment 3\svrt_images\generated_images\results_problem_21\sample_1_0004.png,C:\Users\subject\Desktop\SVRT Experiments\SVRT Experiment 3\svrt_images\generated_images\results_problem_19\sample_0_0005.png,C:\Users\subject\Desktop\SVRT Experiments\SVRT Experiment 3\svrt_images\generated_images\results_problem_3\sample_1_0007.png,C:\Users\subject\Desktop\SVRT Experiments\SVRT Experiment 3\svrt_images\generated_images\results_problem_17\sample_1_0005.png,,,,,,,,,,,,,,,,0,7,7,7,0,3,3,3,,,,,,,,,,,,,,j,17,B,A,23,0,Incorrect!,1.8864298998378217,1215.2022595000453,None,1215.2022595000453,None,1217.1189105000813,None,,,,,89,001,2023-05-30_12h54.48.874,colored_shuffled,2021.2.3,60.00636066677871,
C:\Users\subject\Desktop\SVRT Experiments\SVRT Experiment 3\svrt_images\generated_images\results_problem_17,,,C:\Users\subject\Desktop\SVRT Experiments\SVRT Experiment 3\svrt_images\generated_images\results_problem_11\sample_0_0012.png,C:\Users\subject\Desktop\SVRT Experiments\SVRT Experiment 3\svrt_images\generated_images\results_problem_8\sample_1_0001.png,C:\Users\subject\Desktop\SVRT Experiments\SVRT Experiment 3\svrt_images\generated_images\results_problem_21\sample_1_0004.png,C:\Users\subject\Desktop\SVRT Experiments\SVRT Experiment 3\svrt_images\generated_images\results_problem_19\sample_0_0005.png,C:\Users\subject\Desktop\SVRT Experiments\SVRT Experiment 3\svrt_images\generated_images\results_problem_3\sample_1_0007.png,C:\Users\subject\Desktop\SVRT Experiments\SVRT Experiment 3\svrt_images\generated_images\results_problem_17\sample_0_0004.png,,,,,,,,,,,,,,,,0,7,7,7,0,4,4,4,,,,,,,,,,,,,,j,17,B,B,23,1,Correct!,4.159916199976578,1218.1689045000821,None,1218.1689045000821,None,1222.3521466001403,None,,,,,89,001,2023-05-30_12h54.48.874,colored_shuffled,2021.2.3,60.00636066677871,
C:\Users\subject\Desktop\SVRT Experiments\SVRT Experiment 3\svrt_images\generated_images\results_problem_17,,,C:\Users\subject\Desktop\SVRT Experiments\SVRT Experiment 3\svrt_images\generated_images\results_problem_11\sample_0_0012.png,C:\Users\subject\Desktop\SVRT Experiments\SVRT Experiment 3\svrt_images\generated_images\results_problem_8\sample_1_0001.png,C:\Users\subject\Desktop\SVRT Experiments\SVRT Experiment 3\svrt_images\generated_images\results_problem_21\sample_1_0004.png,C:\Users\subject\Desktop\SVRT Experiments\SVRT Experiment 3\svrt_images\generated_images\results_problem_19\sample_0_0005.png,C:\Users\subject\Desktop\SVRT Experiments\SVRT Experiment 3\svrt_images\generated_images\results_problem_3\sample_1_0007.png,C:\Users\subject\Desktop\SVRT Experiments\SVRT Experiment 3\svrt_images\generated_images\results_problem_17\sample_0_0013.png,,,,,,,,,,,,,,,,0,7,7,7,0,5,5,5,,,,,,,,,,,,,,j,17,B,B,23,1,Correct!,6.789954500040039,1223.4187603001483,None,1223.4187603001483,None,1230.2353597001638,None,,,,,89,001,2023-05-30_12h54.48.874,colored_shuffled,2021.2.3,60.00636066677871,
C:\Users\subject\Desktop\SVRT Experiments\SVRT Experiment 3\svrt_images\generated_images\results_problem_17,,,C:\Users\subject\Desktop\SVRT Experiments\SVRT Experiment 3\svrt_images\generated_images\results_problem_11\sample_0_0012.png,C:\Users\subject\Desktop\SVRT Experiments\SVRT Experiment 3\svrt_images\generated_images\results_problem_8\sample_1_0001.png,C:\Users\subject\Desktop\SVRT Experiments\SVRT Experiment 3\svrt_images\generated_images\results_problem_21\sample_1_0004.png,C:\Users\subject\Desktop\SVRT Experiments\SVRT Experiment 3\svrt_images\generated_images\results_problem_19\sample_0_0005.png,C:\Users\subject\Desktop\SVRT Experiments\SVRT Experiment 3\svrt_images\generated_images\results_problem_3\sample_1_0007.png,C:\Users\subject\Desktop\SVRT Experiments\SVRT Experiment 3\svrt_images\generated_images\results_problem_17\sample_0_0015.png,,,,,,,,,,,,,,,,0,7,7,7,0,6,6,6,,,,,,,,,,,,,,j,17,B,B,23,1,Correct!,2.242716900072992,1231.3020462000277,None,1231.3020462000277,None,1233.5686040001456,None,,,,,89,001,2023-05-30_12h54.48.874,colored_shuffled,2021.2.3,60.00636066677871,
C:\Users\subject\Desktop\SVRT Experiments\SVRT Experiment 3\svrt_images\generated_images\results_problem_17,,,C:\Users\subject\Desktop\SVRT Experiments\SVRT Experiment 3\svrt_images\generated_images\results_problem_11\sample_0_0012.png,C:\Users\subject\Desktop\SVRT Experiments\SVRT Experiment 3\svrt_images\generated_images\results_problem_8\sample_1_0001.png,C:\Users\subject\Desktop\SVRT Experiments\SVRT Experiment 3\svrt_images\generated_images\results_problem_21\sample_1_0004.png,C:\Users\subject\Desktop\SVRT Experiments\SVRT Experiment 3\svrt_images\generated_images\results_problem_19\sample_0_0005.png,C:\Users\subject\Desktop\SVRT Experiments\SVRT Experiment 3\svrt_images\generated_images\results_problem_3\sample_1_0007.png,C:\Users\subject\Desktop\SVRT Experiments\SVRT Experiment 3\svrt_images\generated_images\results_problem_17\sample_1_0014.png,,,,,,,,,,,,,,,,0,7,7,7,0,7,7,7,,,,,,,,,,,,,,f,17,A,A,23,1,Correct!,1.851096199825406,1234.6536872000434,None,1234.6536872000434,None,1236.5352821000852,None,,,,,89,001,2023-05-30_12h54.48.874,colored_shuffled,2021.2.3,60.00636066677871,
C:\Users\subject\Desktop\SVRT Experiments\SVRT Experiment 3\svrt_images\generated_images\results_problem_17,,,C:\Users\subject\Desktop\SVRT Experiments\SVRT Experiment 3\svrt_images\generated_images\results_problem_11\sample_0_0012.png,C:\Users\subject\Desktop\SVRT Experiments\SVRT Experiment 3\svrt_images\generated_images\results_problem_8\sample_1_0001.png,C:\Users\subject\Desktop\SVRT Experiments\SVRT Experiment 3\svrt_images\generated_images\results_problem_21\sample_1_0004.png,C:\Users\subject\Desktop\SVRT Experiments\SVRT Experiment 3\svrt_images\generated_images\results_problem_19\sample_0_0005.png,C:\Users\subject\Desktop\SVRT Experiments\SVRT Experiment 3\svrt_images\generated_images\results_problem_3\sample_1_0007.png,C:\Users\subject\Desktop\SVRT Experiments\SVRT Experiment 3\svrt_images\generated_images\results_problem_17\sample_1_0012.png,,,,,,,,,,,,,,,,0,7,7,7,0,8,8,8,,,,,,,,,,,,,,f,17,A,A,23,1,Correct!,1.7735669000539929,1237.6352440000046,None,1237.6352440000046,None,1239.435207300121,None,,,,,89,001,2023-05-30_12h54.48.874,colored_shuffled,2021.2.3,60.00636066677871,
C:\Users\subject\Desktop\SVRT Experiments\SVRT Experiment 3\svrt_images\generated_images\results_problem_17,,,C:\Users\subject\Desktop\SVRT Experiments\SVRT Experiment 3\svrt_images\generated_images\results_problem_11\sample_0_0012.png,C:\Users\subject\Desktop\SVRT Experiments\SVRT Experiment 3\svrt_images\generated_images\results_problem_8\sample_1_0001.png,C:\Users\subject\Desktop\SVRT Experiments\SVRT Experiment 3\svrt_images\generated_images\results_problem_21\sample_1_0004.png,C:\Users\subject\Desktop\SVRT Experiments\SVRT Experiment 3\svrt_images\generated_images\results_problem_19\sample_0_0005.png,C:\Users\subject\Desktop\SVRT Experiments\SVRT Experiment 3\svrt_images\generated_images\results_problem_3\sample_1_0007.png,C:\Users\subject\Desktop\SVRT Experiments\SVRT Experiment 3\svrt_images\generated_images\results_problem_17\sample_1_0006.png,,,,,,,,,,,,,,,,0,7,7,7,0,9,9,9,,,,,,,,,,,,,,f,17,A,A,23,1,Correct!,2.1455433000810444,1240.5351784999948,None,1240.5351784999948,None,1242.701844900148,None,,,,,89,001,2023-05-30_12h54.48.874,colored_shuffled,2021.2.3,60.00636066677871,
C:\Users\subject\Desktop\SVRT Experiments\SVRT Experiment 3\svrt_images\generated_images\results_problem_17,,,C:\Users\subject\Desktop\SVRT Experiments\SVRT Experiment 3\svrt_images\generated_images\results_problem_11\sample_0_0012.png,C:\Users\subject\Desktop\SVRT Experiments\SVRT Experiment 3\svrt_images\generated_images\results_problem_8\sample_1_0001.png,C:\Users\subject\Desktop\SVRT Experiments\SVRT Experiment 3\svrt_images\generated_images\results_problem_21\sample_1_0004.png,C:\Users\subject\Desktop\SVRT Experiments\SVRT Experiment 3\svrt_images\generated_images\results_problem_19\sample_0_0005.png,C:\Users\subject\Desktop\SVRT Experiments\SVRT Experiment 3\svrt_images\generated_images\results_problem_3\sample_1_0007.png,C:\Users\subject\Desktop\SVRT Experiments\SVRT Experiment 3\svrt_images\generated_images\results_problem_17\sample_1_0003.png,,,,,,,,,,,,,,,,0,7,7,7,0,10,10,10,,,,,,,,,,,,,,f,17,A,A,23,1,Correct!,1.1821472002193332,1243.8185014999472,None,1243.8185014999472,None,1245.0184571000282,None,,,,,89,001,2023-05-30_12h54.48.874,colored_shuffled,2021.2.3,60.00636066677871,
C:\Users\subject\Desktop\SVRT Experiments\SVRT Experiment 3\svrt_images\generated_images\results_problem_17,,,C:\Users\subject\Desktop\SVRT Experiments\SVRT Experiment 3\svrt_images\generated_images\results_problem_11\sample_0_0012.png,C:\Users\subject\Desktop\SVRT Experiments\SVRT Experiment 3\svrt_images\generated_images\results_problem_8\sample_1_0001.png,C:\Users\subject\Desktop\SVRT Experiments\SVRT Experiment 3\svrt_images\generated_images\results_problem_21\sample_1_0004.png,C:\Users\subject\Desktop\SVRT Experiments\SVRT Experiment 3\svrt_images\generated_images\results_problem_19\sample_0_0005.png,C:\Users\subject\Desktop\SVRT Experiments\SVRT Experiment 3\svrt_images\generated_images\results_problem_3\sample_1_0007.png,C:\Users\subject\Desktop\SVRT Experiments\SVRT Experiment 3\svrt_images\generated_images\results_problem_17\sample_1_0010.png,,,,,,,,,,,,,,,,0,7,7,7,0,11,11,11,,,,,,,,,,,,,,,,,,,,,,,,,,,,1246.0184379999992,1246.0184379999992,space,0.9022434998769313,89,001,2023-05-30_12h54.48.874,colored_shuffled,2021.2.3,60.00636066677871,
C:\Users\subject\Desktop\SVRT Experiments\SVRT Experiment 3\svrt_images\generated_images\results_problem_23,,,C:\Users\subject\Desktop\SVRT Experiments\SVRT Experiment 3\svrt_images\generated_images\results_problem_11\sample_0_0012.png,C:\Users\subject\Desktop\SVRT Experiments\SVRT Experiment 3\svrt_images\generated_images\results_problem_8\sample_1_0001.png,C:\Users\subject\Desktop\SVRT Experiments\SVRT Experiment 3\svrt_images\generated_images\results_problem_21\sample_1_0004.png,C:\Users\subject\Desktop\SVRT Experiments\SVRT Experiment 3\svrt_images\generated_images\results_problem_19\sample_0_0005.png,C:\Users\subject\Desktop\SVRT Experiments\SVRT Experiment 3\svrt_images\generated_images\results_problem_3\sample_1_0007.png,C:\Users\subject\Desktop\SVRT Experiments\SVRT Experiment 3\svrt_images\generated_images\results_problem_17\sample_1_0010.png,C:\Users\subject\Desktop\SVRT Experiments\SVRT Experiment 3\svrt_images\generated_images\results_problem_23\sample_1_0013.png,,,,,,,,,,,,,,,0,8,8,8,0,0,0,0,,,,,,,,,,,,,,j,23,B,A,23,0,Incorrect!,1.1688500999007374,1246.9517602999695,None,1246.9517602999695,None,1248.1517199999653,None,,,,,89,001,2023-05-30_12h54.48.874,colored_shuffled,2021.2.3,60.00636066677871,
C:\Users\subject\Desktop\SVRT Experiments\SVRT Experiment 3\svrt_images\generated_images\results_problem_23,,,C:\Users\subject\Desktop\SVRT Experiments\SVRT Experiment 3\svrt_images\generated_images\results_problem_11\sample_0_0012.png,C:\Users\subject\Desktop\SVRT Experiments\SVRT Experiment 3\svrt_images\generated_images\results_problem_8\sample_1_0001.png,C:\Users\subject\Desktop\SVRT Experiments\SVRT Experiment 3\svrt_images\generated_images\results_problem_21\sample_1_0004.png,C:\Users\subject\Desktop\SVRT Experiments\SVRT Experiment 3\svrt_images\generated_images\results_problem_19\sample_0_0005.png,C:\Users\subject\Desktop\SVRT Experiments\SVRT Experiment 3\svrt_images\generated_images\results_problem_3\sample_1_0007.png,C:\Users\subject\Desktop\SVRT Experiments\SVRT Experiment 3\svrt_images\generated_images\results_problem_17\sample_1_0010.png,C:\Users\subject\Desktop\SVRT Experiments\SVRT Experiment 3\svrt_images\generated_images\results_problem_23\sample_1_0005.png,,,,,,,,,,,,,,,0,8,8,8,0,1,1,1,,,,,,,,,,,,,,f,23,A,A,23,1,Correct!,3.6643297001719475,1249.1684072001372,None,1249.1684072001372,None,1252.8516645999625,None,,,,,89,001,2023-05-30_12h54.48.874,colored_shuffled,2021.2.3,60.00636066677871,
C:\Users\subject\Desktop\SVRT Experiments\SVRT Experiment 3\svrt_images\generated_images\results_problem_23,,,C:\Users\subject\Desktop\SVRT Experiments\SVRT Experiment 3\svrt_images\generated_images\results_problem_11\sample_0_0012.png,C:\Users\subject\Desktop\SVRT Experiments\SVRT Experiment 3\svrt_images\generated_images\results_problem_8\sample_1_0001.png,C:\Users\subject\Desktop\SVRT Experiments\SVRT Experiment 3\svrt_images\generated_images\results_problem_21\sample_1_0004.png,C:\Users\subject\Desktop\SVRT Experiments\SVRT Experiment 3\svrt_images\generated_images\results_problem_19\sample_0_0005.png,C:\Users\subject\Desktop\SVRT Experiments\SVRT Experiment 3\svrt_images\generated_images\results_problem_3\sample_1_0007.png,C:\Users\subject\Desktop\SVRT Experiments\SVRT Experiment 3\svrt_images\generated_images\results_problem_17\sample_1_0010.png,C:\Users\subject\Desktop\SVRT Experiments\SVRT Experiment 3\svrt_images\generated_images\results_problem_23\sample_1_0003.png,,,,,,,,,,,,,,,0,8,8,8,0,2,2,2,,,,,,,,,,,,,,f,23,A,A,23,1,Correct!,0.819691700162366,1253.884996500099,None,1253.884996500099,None,1254.734964299947,None,,,,,89,001,2023-05-30_12h54.48.874,colored_shuffled,2021.2.3,60.00636066677871,
C:\Users\subject\Desktop\SVRT Experiments\SVRT Experiment 3\svrt_images\generated_images\results_problem_23,,,C:\Users\subject\Desktop\SVRT Experiments\SVRT Experiment 3\svrt_images\generated_images\results_problem_11\sample_0_0012.png,C:\Users\subject\Desktop\SVRT Experiments\SVRT Experiment 3\svrt_images\generated_images\results_problem_8\sample_1_0001.png,C:\Users\subject\Desktop\SVRT Experiments\SVRT Experiment 3\svrt_images\generated_images\results_problem_21\sample_1_0004.png,C:\Users\subject\Desktop\SVRT Experiments\SVRT Experiment 3\svrt_images\generated_images\results_problem_19\sample_0_0005.png,C:\Users\subject\Desktop\SVRT Experiments\SVRT Experiment 3\svrt_images\generated_images\results_problem_3\sample_1_0007.png,C:\Users\subject\Desktop\SVRT Experiments\SVRT Experiment 3\svrt_images\generated_images\results_problem_17\sample_1_0010.png,C:\Users\subject\Desktop\SVRT Experiments\SVRT Experiment 3\svrt_images\generated_images\results_problem_23\sample_1_0004.png,,,,,,,,,,,,,,,0,8,8,8,0,3,3,3,,,,,,,,,,,,,,f,23,A,A,23,1,Correct!,1.2083585001528263,1255.768304800149,None,1255.768304800149,None,1257.0016087000258,None,,,,,89,001,2023-05-30_12h54.48.874,colored_shuffled,2021.2.3,60.00636066677871,
C:\Users\subject\Desktop\SVRT Experiments\SVRT Experiment 3\svrt_images\generated_images\results_problem_23,,,C:\Users\subject\Desktop\SVRT Experiments\SVRT Experiment 3\svrt_images\generated_images\results_problem_11\sample_0_0012.png,C:\Users\subject\Desktop\SVRT Experiments\SVRT Experiment 3\svrt_images\generated_images\results_problem_8\sample_1_0001.png,C:\Users\subject\Desktop\SVRT Experiments\SVRT Experiment 3\svrt_images\generated_images\results_problem_21\sample_1_0004.png,C:\Users\subject\Desktop\SVRT Experiments\SVRT Experiment 3\svrt_images\generated_images\results_problem_19\sample_0_0005.png,C:\Users\subject\Desktop\SVRT Experiments\SVRT Experiment 3\svrt_images\generated_images\results_problem_3\sample_1_0007.png,C:\Users\subject\Desktop\SVRT Experiments\SVRT Experiment 3\svrt_images\generated_images\results_problem_17\sample_1_0010.png,C:\Users\subject\Desktop\SVRT Experiments\SVRT Experiment 3\svrt_images\generated_images\results_problem_23\sample_0_0011.png,,,,,,,,,,,,,,,0,8,8,8,0,4,4,4,,,,,,,,,,,,,,j,23,B,B,23,1,Correct!,0.8530482999049127,1258.0515777999535,None,1258.0515777999535,None,1258.9349175000098,None,,,,,89,001,2023-05-30_12h54.48.874,colored_shuffled,2021.2.3,60.00636066677871,
C:\Users\subject\Desktop\SVRT Experiments\SVRT Experiment 3\svrt_images\generated_images\results_problem_23,,,C:\Users\subject\Desktop\SVRT Experiments\SVRT Experiment 3\svrt_images\generated_images\results_problem_11\sample_0_0012.png,C:\Users\subject\Desktop\SVRT Experiments\SVRT Experiment 3\svrt_images\generated_images\results_problem_8\sample_1_0001.png,C:\Users\subject\Desktop\SVRT Experiments\SVRT Experiment 3\svrt_images\generated_images\results_problem_21\sample_1_0004.png,C:\Users\subject\Desktop\SVRT Experiments\SVRT Experiment 3\svrt_images\generated_images\results_problem_19\sample_0_0005.png,C:\Users\subject\Desktop\SVRT Experiments\SVRT Experiment 3\svrt_images\generated_images\results_problem_3\sample_1_0007.png,C:\Users\subject\Desktop\SVRT Experiments\SVRT Experiment 3\svrt_images\generated_images\results_problem_17\sample_1_0010.png,C:\Users\subject\Desktop\SVRT Experiments\SVRT Experiment 3\svrt_images\generated_images\results_problem_23\sample_1_0016.png,,,,,,,,,,,,,,,0,8,8,8,0,5,5,5,,,,,,,,,,,,,,f,23,A,A,23,1,Correct!,0.5757615999318659,1259.9848744000774,None,1259.9848744000774,None,1260.584843999939,None,,,,,89,001,2023-05-30_12h54.48.874,colored_shuffled,2021.2.3,60.00636066677871,
C:\Users\subject\Desktop\SVRT Experiments\SVRT Experiment 3\svrt_images\generated_images\results_problem_23,,,C:\Users\subject\Desktop\SVRT Experiments\SVRT Experiment 3\svrt_images\generated_images\results_problem_11\sample_0_0012.png,C:\Users\subject\Desktop\SVRT Experiments\SVRT Experiment 3\svrt_images\generated_images\results_problem_8\sample_1_0001.png,C:\Users\subject\Desktop\SVRT Experiments\SVRT Experiment 3\svrt_images\generated_images\results_problem_21\sample_1_0004.png,C:\Users\subject\Desktop\SVRT Experiments\SVRT Experiment 3\svrt_images\generated_images\results_problem_19\sample_0_0005.png,C:\Users\subject\Desktop\SVRT Experiments\SVRT Experiment 3\svrt_images\generated_images\results_problem_3\sample_1_0007.png,C:\Users\subject\Desktop\SVRT Experiments\SVRT Experiment 3\svrt_images\generated_images\results_problem_17\sample_1_0010.png,C:\Users\subject\Desktop\SVRT Experiments\SVRT Experiment 3\svrt_images\generated_images\results_problem_23\sample_0_0001.png,,,,,,,,,,,,,,,0,8,8,8,0,6,6,6,,,,,,,,,,,,,,j,23,B,B,23,1,Correct!,0.605206900043413,1261.6514685000293,None,1261.6514685000293,None,1262.2848449000157,None,,,,,89,001,2023-05-30_12h54.48.874,colored_shuffled,2021.2.3,60.00636066677871,
C:\Users\subject\Desktop\SVRT Experiments\SVRT Experiment 3\svrt_images\generated_images\results_problem_23,,,C:\Users\subject\Desktop\SVRT Experiments\SVRT Experiment 3\svrt_images\generated_images\results_problem_11\sample_0_0012.png,C:\Users\subject\Desktop\SVRT Experiments\SVRT Experiment 3\svrt_images\generated_images\results_problem_8\sample_1_0001.png,C:\Users\subject\Desktop\SVRT Experiments\SVRT Experiment 3\svrt_images\generated_images\results_problem_21\sample_1_0004.png,C:\Users\subject\Desktop\SVRT Experiments\SVRT Experiment 3\svrt_images\generated_images\results_problem_19\sample_0_0005.png,C:\Users\subject\Desktop\SVRT Experiments\SVRT Experiment 3\svrt_images\generated_images\results_problem_3\sample_1_0007.png,C:\Users\subject\Desktop\SVRT Experiments\SVRT Experiment 3\svrt_images\generated_images\results_problem_17\sample_1_0010.png,C:\Users\subject\Desktop\SVRT Experiments\SVRT Experiment 3\svrt_images\generated_images\results_problem_23\sample_1_0002.png,,,,,,,,,,,,,,,0,8,8,8,0,7,7,7,,,,,,,,,,,,,,f,23,A,A,23,1,Correct!,0.5685616999398917,1263.3681755000725,None,1263.3681755000725,None,1263.9681363999844,None,,,,,89,001,2023-05-30_12h54.48.874,colored_shuffled,2021.2.3,60.00636066677871,
