folder,results_problem_3,results_problem_15,results_problem_1,results_problem_19,results_problem_22,results_problem_18,results_problem_7,results_problem_11,results_problem_12,results_problem_10,results_problem_16,results_problem_23,results_problem_9,results_problem_8,results_problem_6,results_problem_14,results_problem_4,results_problem_5,results_problem_13,results_problem_17,results_problem_2,results_problem_20,results_problem_21,categories.thisRepN,categories.thisTrialN,categories.thisN,categories.thisIndex,trials.thisRepN,trials.thisTrialN,trials.thisN,trials.thisIndex,consent_text.started,consent_kb.started,consent_kb.keys,consent_kb.rt,Gender.keys,Gender.rt,Age,instructions_text.started,instructions_text.stopped,instructions_kb.keys,instructions_kb.rt,instructions_kb.started,instructions_kb.stopped,trial_kb.keys,current_problem_num,category_resp,answer,seed,accuracy,feedback,trial_kb.rt,trial_kb.started,trial_kb.stopped,trial_image.started,trial_image.stopped,feedback_text.started,feedback_text.stopped,new_problem_kb.started,new_problem_text.started,new_problem_kb.keys,new_problem_kb.rt,Participant #,session,date,expName,psychopyVersion,frameRate,
,,,,,,,,,,,,,,,,,,,,,,,,,,,,,,,,7.195535100006964,7.195535100006964,y,11.753904499986675,,,,,,,,,,,,,,,,,,,,,,,,,,,,8,001,2023-04-27_13h00.20.660,uncolored_sorted,2021.2.3,59.95293692814266,
,,,,,,,,,,,,,,,,,,,,,,,,,,,,,,,,,,,,w,5.27753429999575,,,,,,,,,,,,,,,,,,,,,,,,,,8,001,2023-04-27_13h00.20.660,uncolored_sorted,2021.2.3,59.95293692814266,
,,,,,,,,,,,,,,,,,,,,,,,,,,,,,,,,,,,,,,20,27.774417000007816,None,space,19.44674019998638,27.774417000007816,None,,,,,,,,,,,,,,,,,,,8,001,2023-04-27_13h00.20.660,uncolored_sorted,2021.2.3,59.95293692814266,
C:\Users\subject\Desktop\SVRT Experiments\SVRT Experiment 3\svrt_images\generated_images\results_problem_3,C:\Users\subject\Desktop\SVRT Experiments\SVRT Experiment 3\svrt_images\generated_images\results_problem_3\sample_1_0002.png,,,,,,,,,,,,,,,,,,,,,,,0,0,0,0,0,0,0,0,,,,,,,,,,,,,,f,3,A,A,2,1,Correct!,13.110168999992311,47.239092500007246,None,47.239092500007246,None,60.382413499988616,None,,,,,8,001,2023-04-27_13h00.20.660,uncolored_sorted,2021.2.3,59.95293692814266,
C:\Users\subject\Desktop\SVRT Experiments\SVRT Experiment 3\svrt_images\generated_images\results_problem_3,C:\Users\subject\Desktop\SVRT Experiments\SVRT Experiment 3\svrt_images\generated_images\results_problem_3\sample_1_0008.png,,,,,,,,,,,,,,,,,,,,,,,0,0,0,0,0,1,1,1,,,,,,,,,,,,,,f,3,A,A,2,1,Correct!,6.853218799980823,61.399845300009474,None,61.399845300009474,None,68.27170149999438,None,,,,,8,001,2023-04-27_13h00.20.660,uncolored_sorted,2021.2.3,59.95293692814266,
C:\Users\subject\Desktop\SVRT Experiments\SVRT Experiment 3\svrt_images\generated_images\results_problem_3,C:\Users\subject\Desktop\SVRT Experiments\SVRT Experiment 3\svrt_images\generated_images\results_problem_3\sample_0_0010.png,,,,,,,,,,,,,,,,,,,,,,,0,0,0,0,0,2,2,2,,,,,,,,,,,,,,j,3,B,B,2,1,Correct!,2.4358785999938846,69.28913639998063,None,69.28913639998063,None,71.75764349999372,None,,,,,8,001,2023-04-27_13h00.20.660,uncolored_sorted,2021.2.3,59.95293692814266,
C:\Users\subject\Desktop\SVRT Experiments\SVRT Experiment 3\svrt_images\generated_images\results_problem_3,C:\Users\subject\Desktop\SVRT Experiments\SVRT Experiment 3\svrt_images\generated_images\results_problem_3\sample_0_0005.png,,,,,,,,,,,,,,,,,,,,,,,0,0,0,0,0,3,3,3,,,,,,,,,,,,,,j,3,B,B,2,1,Correct!,1.6372401000116952,72.79179829999339,None,72.79179829999339,None,74.45971169997938,None,,,,,8,001,2023-04-27_13h00.20.660,uncolored_sorted,2021.2.3,59.95293692814266,
C:\Users\subject\Desktop\SVRT Experiments\SVRT Experiment 3\svrt_images\generated_images\results_problem_3,C:\Users\subject\Desktop\SVRT Experiments\SVRT Experiment 3\svrt_images\generated_images\results_problem_3\sample_0_0007.png,,,,,,,,,,,,,,,,,,,,,,,0,0,0,0,0,4,4,4,,,,,,,,,,,,,,f,3,A,B,2,0,Incorrect!,6.487107500026468,75.49383639998268,None,75.49383639998268,None,81.99874409998301,None,,,,,8,001,2023-04-27_13h00.20.660,uncolored_sorted,2021.2.3,59.95293692814266,
C:\Users\subject\Desktop\SVRT Experiments\SVRT Experiment 3\svrt_images\generated_images\results_problem_3,C:\Users\subject\Desktop\SVRT Experiments\SVRT Experiment 3\svrt_images\generated_images\results_problem_3\sample_1_0010.png,,,,,,,,,,,,,,,,,,,,,,,0,0,0,0,0,5,5,5,,,,,,,,,,,,,,j,3,B,A,2,0,Incorrect!,4.091384099971037,83.04956439998932,None,83.04956439998932,None,87.16929190000519,None,,,,,8,001,2023-04-27_13h00.20.660,uncolored_sorted,2021.2.3,59.95293692814266,
C:\Users\subject\Desktop\SVRT Experiments\SVRT Experiment 3\svrt_images\generated_images\results_problem_3,C:\Users\subject\Desktop\SVRT Experiments\SVRT Experiment 3\svrt_images\generated_images\results_problem_3\sample_0_0014.png,,,,,,,,,,,,,,,,,,,,,,,0,0,0,0,0,6,6,6,,,,,,,,,,,,,,j,3,B,B,2,1,Correct!,5.064908000000287,88.22011459997157,None,88.22011459997157,None,93.30730440001935,None,,,,,8,001,2023-04-27_13h00.20.660,uncolored_sorted,2021.2.3,59.95293692814266,
C:\Users\subject\Desktop\SVRT Experiments\SVRT Experiment 3\svrt_images\generated_images\results_problem_3,C:\Users\subject\Desktop\SVRT Experiments\SVRT Experiment 3\svrt_images\generated_images\results_problem_3\sample_1_0001.png,,,,,,,,,,,,,,,,,,,,,,,0,0,0,0,0,7,7,7,,,,,,,,,,,,,,j,3,B,A,2,0,Incorrect!,2.7587774000130594,94.35809390002396,None,94.35809390002396,None,97.14351249998435,None,,,,,8,001,2023-04-27_13h00.20.660,uncolored_sorted,2021.2.3,59.95293692814266,
C:\Users\subject\Desktop\SVRT Experiments\SVRT Experiment 3\svrt_images\generated_images\results_problem_3,C:\Users\subject\Desktop\SVRT Experiments\SVRT Experiment 3\svrt_images\generated_images\results_problem_3\sample_0_0012.png,,,,,,,,,,,,,,,,,,,,,,,0,0,0,0,0,8,8,8,,,,,,,,,,,,,,f,3,A,B,2,0,Incorrect!,2.057904299988877,98.21099849999882,None,98.21099849999882,None,100.2959150999668,None,,,,,8,001,2023-04-27_13h00.20.660,uncolored_sorted,2021.2.3,59.95293692814266,
C:\Users\subject\Desktop\SVRT Experiments\SVRT Experiment 3\svrt_images\generated_images\results_problem_3,C:\Users\subject\Desktop\SVRT Experiments\SVRT Experiment 3\svrt_images\generated_images\results_problem_3\sample_0_0015.png,,,,,,,,,,,,,,,,,,,,,,,0,0,0,0,0,9,9,9,,,,,,,,,,,,,,f,3,A,B,2,0,Incorrect!,4.680734800000209,101.38007640000433,None,101.38007640000433,None,106.08362260001013,None,,,,,8,001,2023-04-27_13h00.20.660,uncolored_sorted,2021.2.3,59.95293692814266,
C:\Users\subject\Desktop\SVRT Experiments\SVRT Experiment 3\svrt_images\generated_images\results_problem_3,C:\Users\subject\Desktop\SVRT Experiments\SVRT Experiment 3\svrt_images\generated_images\results_problem_3\sample_0_0000.png,,,,,,,,,,,,,,,,,,,,,,,0,0,0,0,0,10,10,10,,,,,,,,,,,,,,j,3,B,B,2,1,Correct!,2.005014599999413,107.16778429999249,None,107.16778429999249,None,109.20264679996762,None,,,,,8,001,2023-04-27_13h00.20.660,uncolored_sorted,2021.2.3,59.95293692814266,
C:\Users\subject\Desktop\SVRT Experiments\SVRT Experiment 3\svrt_images\generated_images\results_problem_3,C:\Users\subject\Desktop\SVRT Experiments\SVRT Experiment 3\svrt_images\generated_images\results_problem_3\sample_1_0013.png,,,,,,,,,,,,,,,,,,,,,,,0,0,0,0,0,11,11,11,,,,,,,,,,,,,,f,3,A,A,2,1,Correct!,2.078091699979268,110.28680679999525,None,110.28680679999525,None,112.38836649997393,None,,,,,8,001,2023-04-27_13h00.20.660,uncolored_sorted,2021.2.3,59.95293692814266,
C:\Users\subject\Desktop\SVRT Experiments\SVRT Experiment 3\svrt_images\generated_images\results_problem_3,C:\Users\subject\Desktop\SVRT Experiments\SVRT Experiment 3\svrt_images\generated_images\results_problem_3\sample_0_0003.png,,,,,,,,,,,,,,,,,,,,,,,0,0,0,0,0,12,12,12,,,,,,,,,,,,,,j,3,B,B,2,1,Correct!,2.251589299994521,113.48920969996834,None,113.48920969996834,None,115.75760269997409,None,,,,,8,001,2023-04-27_13h00.20.660,uncolored_sorted,2021.2.3,59.95293692814266,
C:\Users\subject\Desktop\SVRT Experiments\SVRT Experiment 3\svrt_images\generated_images\results_problem_3,C:\Users\subject\Desktop\SVRT Experiments\SVRT Experiment 3\svrt_images\generated_images\results_problem_3\sample_0_0002.png,,,,,,,,,,,,,,,,,,,,,,,0,0,0,0,0,13,13,13,,,,,,,,,,,,,,j,3,B,B,2,1,Correct!,0.8338526000152342,116.87512149999384,None,116.87512149999384,None,117.72575979999965,None,,,,,8,001,2023-04-27_13h00.20.660,uncolored_sorted,2021.2.3,59.95293692814266,
C:\Users\subject\Desktop\SVRT Experiments\SVRT Experiment 3\svrt_images\generated_images\results_problem_3,C:\Users\subject\Desktop\SVRT Experiments\SVRT Experiment 3\svrt_images\generated_images\results_problem_3\sample_0_0004.png,,,,,,,,,,,,,,,,,,,,,,,0,0,0,0,0,14,14,14,,,,,,,,,,,,,,f,3,A,B,2,0,Incorrect!,0.6815040999790654,118.84327559999656,None,118.84327559999656,None,119.54379969998263,None,,,,,8,001,2023-04-27_13h00.20.660,uncolored_sorted,2021.2.3,59.95293692814266,
C:\Users\subject\Desktop\SVRT Experiments\SVRT Experiment 3\svrt_images\generated_images\results_problem_3,C:\Users\subject\Desktop\SVRT Experiments\SVRT Experiment 3\svrt_images\generated_images\results_problem_3\sample_1_0005.png,,,,,,,,,,,,,,,,,,,,,,,0,0,0,0,0,15,15,15,,,,,,,,,,,,,,j,3,B,A,2,0,Incorrect!,1.654785799968522,120.67799629998626,None,120.67799629998626,None,122.36259879998397,None,,,,,8,001,2023-04-27_13h00.20.660,uncolored_sorted,2021.2.3,59.95293692814266,
C:\Users\subject\Desktop\SVRT Experiments\SVRT Experiment 3\svrt_images\generated_images\results_problem_3,C:\Users\subject\Desktop\SVRT Experiments\SVRT Experiment 3\svrt_images\generated_images\results_problem_3\sample_1_0015.png,,,,,,,,,,,,,,,,,,,,,,,0,0,0,0,0,16,16,16,,,,,,,,,,,,,,f,3,A,A,2,1,Correct!,1.0199809999903664,123.49677710002288,None,123.49677710002288,None,124.54758730001049,None,,,,,8,001,2023-04-27_13h00.20.660,uncolored_sorted,2021.2.3,59.95293692814266,
C:\Users\subject\Desktop\SVRT Experiments\SVRT Experiment 3\svrt_images\generated_images\results_problem_3,C:\Users\subject\Desktop\SVRT Experiments\SVRT Experiment 3\svrt_images\generated_images\results_problem_3\sample_0_0008.png,,,,,,,,,,,,,,,,,,,,,,,0,0,0,0,0,17,17,17,,,,,,,,,,,,,,f,3,A,B,2,0,Incorrect!,0.7382632999797352,125.69845510000596,None,125.69845510000596,None,126.48233420000179,None,,,,,8,001,2023-04-27_13h00.20.660,uncolored_sorted,2021.2.3,59.95293692814266,
C:\Users\subject\Desktop\SVRT Experiments\SVRT Experiment 3\svrt_images\generated_images\results_problem_3,C:\Users\subject\Desktop\SVRT Experiments\SVRT Experiment 3\svrt_images\generated_images\results_problem_3\sample_0_0011.png,,,,,,,,,,,,,,,,,,,,,,,0,0,0,0,0,18,18,18,,,,,,,,,,,,,,j,3,B,B,2,1,Correct!,2.146795300010126,127.6499464000226,None,127.6499464000226,None,129.8349100999767,None,,,,,8,001,2023-04-27_13h00.20.660,uncolored_sorted,2021.2.3,59.95293692814266,
C:\Users\subject\Desktop\SVRT Experiments\SVRT Experiment 3\svrt_images\generated_images\results_problem_3,C:\Users\subject\Desktop\SVRT Experiments\SVRT Experiment 3\svrt_images\generated_images\results_problem_3\sample_1_0006.png,,,,,,,,,,,,,,,,,,,,,,,0,0,0,0,0,19,19,19,,,,,,,,,,,,,,j,3,B,A,2,0,Incorrect!,1.066266199981328,131.00246950000292,None,131.00246950000292,None,132.0866158999852,None,,,,,8,001,2023-04-27_13h00.20.660,uncolored_sorted,2021.2.3,59.95293692814266,
C:\Users\subject\Desktop\SVRT Experiments\SVRT Experiment 3\svrt_images\generated_images\results_problem_3,C:\Users\subject\Desktop\SVRT Experiments\SVRT Experiment 3\svrt_images\generated_images\results_problem_3\sample_0_0001.png,,,,,,,,,,,,,,,,,,,,,,,0,0,0,0,0,20,20,20,,,,,,,,,,,,,,f,3,A,B,2,0,Incorrect!,1.0058252000017092,133.27084870002,None,133.27084870002,None,134.32161510002334,None,,,,,8,001,2023-04-27_13h00.20.660,uncolored_sorted,2021.2.3,59.95293692814266,
C:\Users\subject\Desktop\SVRT Experiments\SVRT Experiment 3\svrt_images\generated_images\results_problem_3,C:\Users\subject\Desktop\SVRT Experiments\SVRT Experiment 3\svrt_images\generated_images\results_problem_3\sample_0_0009.png,,,,,,,,,,,,,,,,,,,,,,,0,0,0,0,0,21,21,21,,,,,,,,,,,,,,f,3,A,B,2,0,Incorrect!,2.5869235999998637,135.50583310000366,None,135.50583310000366,None,138.1244716999936,None,,,,,8,001,2023-04-27_13h00.20.660,uncolored_sorted,2021.2.3,59.95293692814266,
C:\Users\subject\Desktop\SVRT Experiments\SVRT Experiment 3\svrt_images\generated_images\results_problem_3,C:\Users\subject\Desktop\SVRT Experiments\SVRT Experiment 3\svrt_images\generated_images\results_problem_3\sample_1_0012.png,,,,,,,,,,,,,,,,,,,,,,,0,0,0,0,0,22,22,22,,,,,,,,,,,,,,j,3,B,A,2,0,Incorrect!,0.647226499975659,139.32542999996804,None,139.32542999996804,None,140.00926560000516,None,,,,,8,001,2023-04-27_13h00.20.660,uncolored_sorted,2021.2.3,59.95293692814266,
C:\Users\subject\Desktop\SVRT Experiments\SVRT Experiment 3\svrt_images\generated_images\results_problem_3,C:\Users\subject\Desktop\SVRT Experiments\SVRT Experiment 3\svrt_images\generated_images\results_problem_3\sample_1_0016.png,,,,,,,,,,,,,,,,,,,,,,,0,0,0,0,0,23,23,23,,,,,,,,,,,,,,j,3,B,A,2,0,Incorrect!,0.8657613000250421,141.22686529997736,None,141.22686529997736,None,142.11085599998478,None,,,,,8,001,2023-04-27_13h00.20.660,uncolored_sorted,2021.2.3,59.95293692814266,
C:\Users\subject\Desktop\SVRT Experiments\SVRT Experiment 3\svrt_images\generated_images\results_problem_3,C:\Users\subject\Desktop\SVRT Experiments\SVRT Experiment 3\svrt_images\generated_images\results_problem_3\sample_1_0014.png,,,,,,,,,,,,,,,,,,,,,,,0,0,0,0,0,24,24,24,,,,,,,,,,,,,,j,3,B,A,2,0,Incorrect!,1.19555089995265,143.3451085999841,None,143.3451085999841,None,144.57939029997215,None,,,,,8,001,2023-04-27_13h00.20.660,uncolored_sorted,2021.2.3,59.95293692814266,
C:\Users\subject\Desktop\SVRT Experiments\SVRT Experiment 3\svrt_images\generated_images\results_problem_3,C:\Users\subject\Desktop\SVRT Experiments\SVRT Experiment 3\svrt_images\generated_images\results_problem_3\sample_1_0004.png,,,,,,,,,,,,,,,,,,,,,,,0,0,0,0,0,25,25,25,,,,,,,,,,,,,,j,3,B,A,2,0,Incorrect!,3.3509383000200614,145.8136590999784,None,145.8136590999784,None,149.182865699986,None,,,,,8,001,2023-04-27_13h00.20.660,uncolored_sorted,2021.2.3,59.95293692814266,
C:\Users\subject\Desktop\SVRT Experiments\SVRT Experiment 3\svrt_images\generated_images\results_problem_3,C:\Users\subject\Desktop\SVRT Experiments\SVRT Experiment 3\svrt_images\generated_images\results_problem_3\sample_0_0006.png,,,,,,,,,,,,,,,,,,,,,,,0,0,0,0,0,26,26,26,,,,,,,,,,,,,,f,3,A,B,2,0,Incorrect!,0.41079570003785193,150.4338243000093,None,150.4338243000093,None,150.86747659998946,None,,,,,8,001,2023-04-27_13h00.20.660,uncolored_sorted,2021.2.3,59.95293692814266,
C:\Users\subject\Desktop\SVRT Experiments\SVRT Experiment 3\svrt_images\generated_images\results_problem_3,C:\Users\subject\Desktop\SVRT Experiments\SVRT Experiment 3\svrt_images\generated_images\results_problem_3\sample_1_0000.png,,,,,,,,,,,,,,,,,,,,,,,0,0,0,0,0,27,27,27,,,,,,,,,,,,,,j,3,B,A,2,0,Incorrect!,0.2454890999943018,152.13508290000027,None,152.13508290000027,None,152.40196839999408,None,,,,,8,001,2023-04-27_13h00.20.660,uncolored_sorted,2021.2.3,59.95293692814266,
C:\Users\subject\Desktop\SVRT Experiments\SVRT Experiment 3\svrt_images\generated_images\results_problem_3,C:\Users\subject\Desktop\SVRT Experiments\SVRT Experiment 3\svrt_images\generated_images\results_problem_3\sample_0_0016.png,,,,,,,,,,,,,,,,,,,,,,,0,0,0,0,0,28,28,28,,,,,,,,,,,,,,f,3,A,B,2,0,Incorrect!,0.3589905999833718,153.66960610001115,None,153.66960610001115,None,154.0865740000154,None,,,,,8,001,2023-04-27_13h00.20.660,uncolored_sorted,2021.2.3,59.95293692814266,
C:\Users\subject\Desktop\SVRT Experiments\SVRT Experiment 3\svrt_images\generated_images\results_problem_3,C:\Users\subject\Desktop\SVRT Experiments\SVRT Experiment 3\svrt_images\generated_images\results_problem_3\sample_1_0003.png,,,,,,,,,,,,,,,,,,,,,,,0,0,0,0,0,29,29,29,,,,,,,,,,,,,,f,3,A,A,2,1,Correct!,0.11371050000889227,155.37088770000264,None,155.37088770000264,None,155.53768259997014,None,,,,,8,001,2023-04-27_13h00.20.660,uncolored_sorted,2021.2.3,59.95293692814266,
C:\Users\subject\Desktop\SVRT Experiments\SVRT Experiment 3\svrt_images\generated_images\results_problem_3,C:\Users\subject\Desktop\SVRT Experiments\SVRT Experiment 3\svrt_images\generated_images\results_problem_3\sample_0_0013.png,,,,,,,,,,,,,,,,,,,,,,,0,0,0,0,0,30,30,30,,,,,,,,,,,,,,j,3,B,B,2,1,Correct!,0.7979008000111207,156.83864670002367,None,156.83864670002367,None,157.6726191000198,None,,,,,8,001,2023-04-27_13h00.20.660,uncolored_sorted,2021.2.3,59.95293692814266,
C:\Users\subject\Desktop\SVRT Experiments\SVRT Experiment 3\svrt_images\generated_images\results_problem_3,C:\Users\subject\Desktop\SVRT Experiments\SVRT Experiment 3\svrt_images\generated_images\results_problem_3\sample_1_0007.png,,,,,,,,,,,,,,,,,,,,,,,0,0,0,0,0,31,31,31,,,,,,,,,,,,,,f,3,A,A,2,1,Correct!,1.0949259000481106,158.9736125000054,None,158.9736125000054,None,160.09108470001956,None,,,,,8,001,2023-04-27_13h00.20.660,uncolored_sorted,2021.2.3,59.95293692814266,
C:\Users\subject\Desktop\SVRT Experiments\SVRT Experiment 3\svrt_images\generated_images\results_problem_3,C:\Users\subject\Desktop\SVRT Experiments\SVRT Experiment 3\svrt_images\generated_images\results_problem_3\sample_1_0011.png,,,,,,,,,,,,,,,,,,,,,,,0,0,0,0,0,32,32,32,,,,,,,,,,,,,,f,3,A,A,2,1,Correct!,4.971026299986988,161.42546529998071,None,161.42546529998071,None,166.4459169000038,None,,,,,8,001,2023-04-27_13h00.20.660,uncolored_sorted,2021.2.3,59.95293692814266,
C:\Users\subject\Desktop\SVRT Experiments\SVRT Experiment 3\svrt_images\generated_images\results_problem_3,C:\Users\subject\Desktop\SVRT Experiments\SVRT Experiment 3\svrt_images\generated_images\results_problem_3\sample_1_0009.png,,,,,,,,,,,,,,,,,,,,,,,0,0,0,0,0,33,33,33,,,,,,,,,,,,,,f,3,A,A,2,1,Correct!,0.6322247000061907,167.78026670002146,None,167.78026670002146,None,168.4641105000046,None,,,,,8,001,2023-04-27_13h00.20.660,uncolored_sorted,2021.2.3,59.95293692814266,
C:\Users\subject\Desktop\SVRT Experiments\SVRT Experiment 3\svrt_images\generated_images\results_problem_3,,,,,,,,,,,,,,,,,,,,,,,,0,0,0,0,,,,,,,,,,,,,,,,,,,,,,,,,,,,,,,,169.46482970000943,169.46482970000943,space,1.635644800029695,8,001,2023-04-27_13h00.20.660,uncolored_sorted,2021.2.3,59.95293692814266,
C:\Users\subject\Desktop\SVRT Experiments\SVRT Experiment 3\svrt_images\generated_images\results_problem_15,,C:\Users\subject\Desktop\SVRT Experiments\SVRT Experiment 3\svrt_images\generated_images\results_problem_15\sample_0_0005.png,,,,,,,,,,,,,,,,,,,,,,0,1,1,1,0,0,0,0,,,,,,,,,,,,,,f,15,A,B,2,0,Incorrect!,5.93571069999598,171.13275619997876,None,171.13275619997876,None,177.08729409996886,None,,,,,8,001,2023-04-27_13h00.20.660,uncolored_sorted,2021.2.3,59.95293692814266,
C:\Users\subject\Desktop\SVRT Experiments\SVRT Experiment 3\svrt_images\generated_images\results_problem_15,,C:\Users\subject\Desktop\SVRT Experiments\SVRT Experiment 3\svrt_images\generated_images\results_problem_15\sample_1_0006.png,,,,,,,,,,,,,,,,,,,,,,0,1,1,1,0,1,1,1,,,,,,,,,,,,,,f,15,A,A,2,1,Correct!,1.2037830000044778,178.10468829999445,None,178.10468829999445,None,179.33899519999977,None,,,,,8,001,2023-04-27_13h00.20.660,uncolored_sorted,2021.2.3,59.95293692814266,
C:\Users\subject\Desktop\SVRT Experiments\SVRT Experiment 3\svrt_images\generated_images\results_problem_15,,C:\Users\subject\Desktop\SVRT Experiments\SVRT Experiment 3\svrt_images\generated_images\results_problem_15\sample_0_0002.png,,,,,,,,,,,,,,,,,,,,,,0,1,1,1,0,2,2,2,,,,,,,,,,,,,,f,15,A,B,2,0,Incorrect!,0.9121014999691397,180.3564378999872,None,180.3564378999872,None,181.29047030000947,None,,,,,8,001,2023-04-27_13h00.20.660,uncolored_sorted,2021.2.3,59.95293692814266,
C:\Users\subject\Desktop\SVRT Experiments\SVRT Experiment 3\svrt_images\generated_images\results_problem_15,,C:\Users\subject\Desktop\SVRT Experiments\SVRT Experiment 3\svrt_images\generated_images\results_problem_15\sample_0_0001.png,,,,,,,,,,,,,,,,,,,,,,0,1,1,1,0,3,3,3,,,,,,,,,,,,,,f,15,A,B,2,0,Incorrect!,1.431911299994681,182.3245499000186,None,182.3245499000186,None,183.77568680001423,None,,,,,8,001,2023-04-27_13h00.20.660,uncolored_sorted,2021.2.3,59.95293692814266,
C:\Users\subject\Desktop\SVRT Experiments\SVRT Experiment 3\svrt_images\generated_images\results_problem_15,,C:\Users\subject\Desktop\SVRT Experiments\SVRT Experiment 3\svrt_images\generated_images\results_problem_15\sample_0_0012.png,,,,,,,,,,,,,,,,,,,,,,0,1,1,1,0,4,4,4,,,,,,,,,,,,,,j,15,B,B,2,1,Correct!,0.7066125000128523,184.80980039999122,None,184.80980039999122,None,185.54368689999683,None,,,,,8,001,2023-04-27_13h00.20.660,uncolored_sorted,2021.2.3,59.95293692814266,
C:\Users\subject\Desktop\SVRT Experiments\SVRT Experiment 3\svrt_images\generated_images\results_problem_15,,C:\Users\subject\Desktop\SVRT Experiments\SVRT Experiment 3\svrt_images\generated_images\results_problem_15\sample_1_0004.png,,,,,,,,,,,,,,,,,,,,,,0,1,1,1,0,5,5,5,,,,,,,,,,,,,,j,15,B,A,2,0,Incorrect!,0.6665778000024147,186.57780630001798,None,186.57780630001798,None,187.26162449998083,None,,,,,8,001,2023-04-27_13h00.20.660,uncolored_sorted,2021.2.3,59.95293692814266,
C:\Users\subject\Desktop\SVRT Experiments\SVRT Experiment 3\svrt_images\generated_images\results_problem_15,,C:\Users\subject\Desktop\SVRT Experiments\SVRT Experiment 3\svrt_images\generated_images\results_problem_15\sample_1_0014.png,,,,,,,,,,,,,,,,,,,,,,0,1,1,1,0,6,6,6,,,,,,,,,,,,,,j,15,B,A,2,0,Incorrect!,0.2440807999810204,188.31240729999263,None,188.31240729999263,None,188.57929059996968,None,,,,,8,001,2023-04-27_13h00.20.660,uncolored_sorted,2021.2.3,59.95293692814266,
C:\Users\subject\Desktop\SVRT Experiments\SVRT Experiment 3\svrt_images\generated_images\results_problem_15,,C:\Users\subject\Desktop\SVRT Experiments\SVRT Experiment 3\svrt_images\generated_images\results_problem_15\sample_0_0010.png,,,,,,,,,,,,,,,,,,,,,,0,1,1,1,0,7,7,7,,,,,,,,,,,,,,f,15,A,B,2,0,Incorrect!,0.1896173999994062,189.64679269999033,None,189.64679269999033,None,189.86365090002073,None,,,,,8,001,2023-04-27_13h00.20.660,uncolored_sorted,2021.2.3,59.95293692814266,
C:\Users\subject\Desktop\SVRT Experiments\SVRT Experiment 3\svrt_images\generated_images\results_problem_15,,C:\Users\subject\Desktop\SVRT Experiments\SVRT Experiment 3\svrt_images\generated_images\results_problem_15\sample_0_0016.png,,,,,,,,,,,,,,,,,,,,,,0,1,1,1,0,8,8,8,,,,,,,,,,,,,,j,15,B,B,2,1,Correct!,0.24929669999983162,190.93109560001176,None,190.93109560001176,None,191.19793819996994,None,,,,,8,001,2023-04-27_13h00.20.660,uncolored_sorted,2021.2.3,59.95293692814266,
C:\Users\subject\Desktop\SVRT Experiments\SVRT Experiment 3\svrt_images\generated_images\results_problem_15,,C:\Users\subject\Desktop\SVRT Experiments\SVRT Experiment 3\svrt_images\generated_images\results_problem_15\sample_1_0009.png,,,,,,,,,,,,,,,,,,,,,,0,1,1,1,0,9,9,9,,,,,,,,,,,,,,f,15,A,A,2,1,Correct!,5.282230099954177,192.28212250000797,None,192.28212250000797,None,197.58611919998657,None,,,,,8,001,2023-04-27_13h00.20.660,uncolored_sorted,2021.2.3,59.95293692814266,
C:\Users\subject\Desktop\SVRT Experiments\SVRT Experiment 3\svrt_images\generated_images\results_problem_15,,C:\Users\subject\Desktop\SVRT Experiments\SVRT Experiment 3\svrt_images\generated_images\results_problem_15\sample_0_0009.png,,,,,,,,,,,,,,,,,,,,,,0,1,1,1,0,10,10,10,,,,,,,,,,,,,,f,15,A,B,2,0,Incorrect!,0.6940300000132993,198.6702792000142,None,198.6702792000142,None,199.3874576999806,None,,,,,8,001,2023-04-27_13h00.20.660,uncolored_sorted,2021.2.3,59.95293692814266,
C:\Users\subject\Desktop\SVRT Experiments\SVRT Experiment 3\svrt_images\generated_images\results_problem_15,,C:\Users\subject\Desktop\SVRT Experiments\SVRT Experiment 3\svrt_images\generated_images\results_problem_15\sample_1_0001.png,,,,,,,,,,,,,,,,,,,,,,0,1,1,1,0,11,11,11,,,,,,,,,,,,,,j,15,B,A,2,0,Incorrect!,0.3639941999572329,200.48832020000555,None,200.48832020000555,None,200.87192990002222,None,,,,,8,001,2023-04-27_13h00.20.660,uncolored_sorted,2021.2.3,59.95293692814266,
C:\Users\subject\Desktop\SVRT Experiments\SVRT Experiment 3\svrt_images\generated_images\results_problem_15,,C:\Users\subject\Desktop\SVRT Experiments\SVRT Experiment 3\svrt_images\generated_images\results_problem_15\sample_0_0013.png,,,,,,,,,,,,,,,,,,,,,,0,1,1,1,0,12,12,12,,,,,,,,,,,,,,j,15,B,B,2,1,Correct!,0.27954740001587197,201.9727620999911,None,201.9727620999911,None,202.27299779996974,None,,,,,8,001,2023-04-27_13h00.20.660,uncolored_sorted,2021.2.3,59.95293692814266,
C:\Users\subject\Desktop\SVRT Experiments\SVRT Experiment 3\svrt_images\generated_images\results_problem_15,,C:\Users\subject\Desktop\SVRT Experiments\SVRT Experiment 3\svrt_images\generated_images\results_problem_15\sample_0_0015.png,,,,,,,,,,,,,,,,,,,,,,0,1,1,1,0,13,13,13,,,,,,,,,,,,,,f,15,A,B,2,0,Incorrect!,0.09382720000576228,203.39051950001158,None,203.39051950001158,None,203.50726230000146,None,,,,,8,001,2023-04-27_13h00.20.660,uncolored_sorted,2021.2.3,59.95293692814266,
C:\Users\subject\Desktop\SVRT Experiments\SVRT Experiment 3\svrt_images\generated_images\results_problem_15,,C:\Users\subject\Desktop\SVRT Experiments\SVRT Experiment 3\svrt_images\generated_images\results_problem_15\sample_0_0000.png,,,,,,,,,,,,,,,,,,,,,,0,1,1,1,0,14,14,14,,,,,,,,,,,,,,j,15,B,B,2,1,Correct!,0.05957959999796003,204.62478050001664,None,204.62478050001664,None,204.70816819998436,None,,,,,8,001,2023-04-27_13h00.20.660,uncolored_sorted,2021.2.3,59.95293692814266,
C:\Users\subject\Desktop\SVRT Experiments\SVRT Experiment 3\svrt_images\generated_images\results_problem_15,,C:\Users\subject\Desktop\SVRT Experiments\SVRT Experiment 3\svrt_images\generated_images\results_problem_15\sample_0_0014.png,,,,,,,,,,,,,,,,,,,,,,0,1,1,1,0,15,15,15,,,,,,,,,,,,,,j,15,B,B,2,1,Correct!,0.00996830000076443,205.84236389998114,None,205.84236389998114,None,205.87571829999797,None,,,,,8,001,2023-04-27_13h00.20.660,uncolored_sorted,2021.2.3,59.95293692814266,
C:\Users\subject\Desktop\SVRT Experiments\SVRT Experiment 3\svrt_images\generated_images\results_problem_15,,C:\Users\subject\Desktop\SVRT Experiments\SVRT Experiment 3\svrt_images\generated_images\results_problem_15\sample_1_0015.png,,,,,,,,,,,,,,,,,,,,,,0,1,1,1,0,16,16,16,,,,,,,,,,,,,,f,15,A,A,2,1,Correct!,1.4816940000164323,207.02659299998777,None,207.02659299998777,None,208.5277165999869,None,,,,,8,001,2023-04-27_13h00.20.660,uncolored_sorted,2021.2.3,59.95293692814266,
C:\Users\subject\Desktop\SVRT Experiments\SVRT Experiment 3\svrt_images\generated_images\results_problem_15,,C:\Users\subject\Desktop\SVRT Experiments\SVRT Experiment 3\svrt_images\generated_images\results_problem_15\sample_1_0011.png,,,,,,,,,,,,,,,,,,,,,,0,1,1,1,0,17,17,17,,,,,,,,,,,,,,f,15,A,A,2,1,Correct!,4.9177238999982364,209.67854390002321,None,209.67854390002321,None,214.63233649998438,None,,,,,8,001,2023-04-27_13h00.20.660,uncolored_sorted,2021.2.3,59.95293692814266,
C:\Users\subject\Desktop\SVRT Experiments\SVRT Experiment 3\svrt_images\generated_images\results_problem_15,,C:\Users\subject\Desktop\SVRT Experiments\SVRT Experiment 3\svrt_images\generated_images\results_problem_15\sample_1_0000.png,,,,,,,,,,,,,,,,,,,,,,0,1,1,1,0,18,18,18,,,,,,,,,,,,,,j,15,B,A,2,0,Incorrect!,1.2683438999811187,215.79989229998318,None,215.79989229998318,None,217.11754229996586,None,,,,,8,001,2023-04-27_13h00.20.660,uncolored_sorted,2021.2.3,59.95293692814266,
C:\Users\subject\Desktop\SVRT Experiments\SVRT Experiment 3\svrt_images\generated_images\results_problem_15,,C:\Users\subject\Desktop\SVRT Experiments\SVRT Experiment 3\svrt_images\generated_images\results_problem_15\sample_1_0007.png,,,,,,,,,,,,,,,,,,,,,,0,1,1,1,0,19,19,19,,,,,,,,,,,,,,j,15,B,A,2,0,Incorrect!,2.28715300001204,218.28510390000883,None,218.28510390000883,None,220.60351549996994,None,,,,,8,001,2023-04-27_13h00.20.660,uncolored_sorted,2021.2.3,59.95293692814266,
C:\Users\subject\Desktop\SVRT Experiments\SVRT Experiment 3\svrt_images\generated_images\results_problem_15,,C:\Users\subject\Desktop\SVRT Experiments\SVRT Experiment 3\svrt_images\generated_images\results_problem_15\sample_1_0012.png,,,,,,,,,,,,,,,,,,,,,,0,1,1,1,0,20,20,20,,,,,,,,,,,,,,f,15,A,A,2,1,Correct!,0.44847260002279654,221.7877509999671,None,221.7877509999671,None,222.27144410001347,None,,,,,8,001,2023-04-27_13h00.20.660,uncolored_sorted,2021.2.3,59.95293692814266,
C:\Users\subject\Desktop\SVRT Experiments\SVRT Experiment 3\svrt_images\generated_images\results_problem_15,,C:\Users\subject\Desktop\SVRT Experiments\SVRT Experiment 3\svrt_images\generated_images\results_problem_15\sample_1_0010.png,,,,,,,,,,,,,,,,,,,,,,0,1,1,1,0,21,21,21,,,,,,,,,,,,,,f,15,A,A,2,1,Correct!,0.39663620002102107,223.4556816999684,None,223.4556816999684,None,223.87264850002248,None,,,,,8,001,2023-04-27_13h00.20.660,uncolored_sorted,2021.2.3,59.95293692814266,
C:\Users\subject\Desktop\SVRT Experiments\SVRT Experiment 3\svrt_images\generated_images\results_problem_15,,C:\Users\subject\Desktop\SVRT Experiments\SVRT Experiment 3\svrt_images\generated_images\results_problem_15\sample_0_0007.png,,,,,,,,,,,,,,,,,,,,,,0,1,1,1,0,22,22,22,,,,,,,,,,,,,,f,15,A,B,2,0,Incorrect!,0.5386574000003748,225.0735621000058,None,225.0735621000058,None,225.6573316999711,None,,,,,8,001,2023-04-27_13h00.20.660,uncolored_sorted,2021.2.3,59.95293692814266,
C:\Users\subject\Desktop\SVRT Experiments\SVRT Experiment 3\svrt_images\generated_images\results_problem_15,,C:\Users\subject\Desktop\SVRT Experiments\SVRT Experiment 3\svrt_images\generated_images\results_problem_15\sample_0_0006.png,,,,,,,,,,,,,,,,,,,,,,0,1,1,1,0,23,23,23,,,,,,,,,,,,,,j,15,B,B,2,1,Correct!,0.38527199998497963,226.87492849997943,None,226.87492849997943,None,227.2919182999758,None,,,,,8,001,2023-04-27_13h00.20.660,uncolored_sorted,2021.2.3,59.95293692814266,
C:\Users\subject\Desktop\SVRT Experiments\SVRT Experiment 3\svrt_images\generated_images\results_problem_15,,C:\Users\subject\Desktop\SVRT Experiments\SVRT Experiment 3\svrt_images\generated_images\results_problem_15\sample_1_0003.png,,,,,,,,,,,,,,,,,,,,,,0,1,1,1,0,24,24,24,,,,,,,,,,,,,,f,15,A,A,2,1,Correct!,0.9426938000251539,228.50949430000037,None,228.50949430000037,None,229.4768841000041,None,,,,,8,001,2023-04-27_13h00.20.660,uncolored_sorted,2021.2.3,59.95293692814266,
C:\Users\subject\Desktop\SVRT Experiments\SVRT Experiment 3\svrt_images\generated_images\results_problem_15,,C:\Users\subject\Desktop\SVRT Experiments\SVRT Experiment 3\svrt_images\generated_images\results_problem_15\sample_0_0008.png,,,,,,,,,,,,,,,,,,,,,,0,1,1,1,0,25,25,25,,,,,,,,,,,,,,j,15,B,B,2,1,Correct!,0.7009864000137895,230.71116050001,None,230.71116050001,None,231.47836499998812,None,,,,,8,001,2023-04-27_13h00.20.660,uncolored_sorted,2021.2.3,59.95293692814266,
C:\Users\subject\Desktop\SVRT Experiments\SVRT Experiment 3\svrt_images\generated_images\results_problem_15,,C:\Users\subject\Desktop\SVRT Experiments\SVRT Experiment 3\svrt_images\generated_images\results_problem_15\sample_1_0008.png,,,,,,,,,,,,,,,,,,,,,,0,1,1,1,0,26,26,26,,,,,,,,,,,,,,j,15,B,A,2,0,Incorrect!,0.9547908999957144,232.7293515999918,None,232.7293515999918,None,233.74674789997516,None,,,,,8,001,2023-04-27_13h00.20.660,uncolored_sorted,2021.2.3,59.95293692814266,
C:\Users\subject\Desktop\SVRT Experiments\SVRT Experiment 3\svrt_images\generated_images\results_problem_15,,C:\Users\subject\Desktop\SVRT Experiments\SVRT Experiment 3\svrt_images\generated_images\results_problem_15\sample_1_0016.png,,,,,,,,,,,,,,,,,,,,,,0,1,1,1,0,27,27,27,,,,,,,,,,,,,,j,15,B,A,2,0,Incorrect!,3.5976843999815173,235.01441110001178,None,235.01441110001178,None,238.63377429998945,None,,,,,8,001,2023-04-27_13h00.20.660,uncolored_sorted,2021.2.3,59.95293692814266,
C:\Users\subject\Desktop\SVRT Experiments\SVRT Experiment 3\svrt_images\generated_images\results_problem_15,,C:\Users\subject\Desktop\SVRT Experiments\SVRT Experiment 3\svrt_images\generated_images\results_problem_15\sample_0_0004.png,,,,,,,,,,,,,,,,,,,,,,0,1,1,1,0,28,28,28,,,,,,,,,,,,,,f,15,A,B,2,0,Incorrect!,0.5426902999752201,239.9014381999732,None,239.9014381999732,None,240.46853880002163,None,,,,,8,001,2023-04-27_13h00.20.660,uncolored_sorted,2021.2.3,59.95293692814266,
C:\Users\subject\Desktop\SVRT Experiments\SVRT Experiment 3\svrt_images\generated_images\results_problem_15,,C:\Users\subject\Desktop\SVRT Experiments\SVRT Experiment 3\svrt_images\generated_images\results_problem_15\sample_0_0003.png,,,,,,,,,,,,,,,,,,,,,,0,1,1,1,0,29,29,29,,,,,,,,,,,,,,f,15,A,B,2,0,Incorrect!,0.5319120999774896,241.73616390000097,None,241.73616390000097,None,242.30324179999297,None,,,,,8,001,2023-04-27_13h00.20.660,uncolored_sorted,2021.2.3,59.95293692814266,
C:\Users\subject\Desktop\SVRT Experiments\SVRT Experiment 3\svrt_images\generated_images\results_problem_15,,C:\Users\subject\Desktop\SVRT Experiments\SVRT Experiment 3\svrt_images\generated_images\results_problem_15\sample_1_0013.png,,,,,,,,,,,,,,,,,,,,,,0,1,1,1,0,30,30,30,,,,,,,,,,,,,,j,15,B,A,2,0,Incorrect!,0.5598834999836981,243.60423669999,None,243.60423669999,None,244.22135989996605,None,,,,,8,001,2023-04-27_13h00.20.660,uncolored_sorted,2021.2.3,59.95293692814266,
C:\Users\subject\Desktop\SVRT Experiments\SVRT Experiment 3\svrt_images\generated_images\results_problem_15,,C:\Users\subject\Desktop\SVRT Experiments\SVRT Experiment 3\svrt_images\generated_images\results_problem_15\sample_1_0005.png,,,,,,,,,,,,,,,,,,,,,,0,1,1,1,0,31,31,31,,,,,,,,,,,,,,f,15,A,A,2,1,Correct!,0.5530675000045449,245.53903729998274,None,245.53903729998274,None,246.15615900000557,None,,,,,8,001,2023-04-27_13h00.20.660,uncolored_sorted,2021.2.3,59.95293692814266,
C:\Users\subject\Desktop\SVRT Experiments\SVRT Experiment 3\svrt_images\generated_images\results_problem_15,,C:\Users\subject\Desktop\SVRT Experiments\SVRT Experiment 3\svrt_images\generated_images\results_problem_15\sample_0_0011.png,,,,,,,,,,,,,,,,,,,,,,0,1,1,1,0,32,32,32,,,,,,,,,,,,,,j,15,B,B,2,1,Correct!,1.0342522999853827,247.4738283000188,None,247.4738283000188,None,248.55793979996815,None,,,,,8,001,2023-04-27_13h00.20.660,uncolored_sorted,2021.2.3,59.95293692814266,
C:\Users\subject\Desktop\SVRT Experiments\SVRT Experiment 3\svrt_images\generated_images\results_problem_15,,C:\Users\subject\Desktop\SVRT Experiments\SVRT Experiment 3\svrt_images\generated_images\results_problem_15\sample_1_0002.png,,,,,,,,,,,,,,,,,,,,,,0,1,1,1,0,33,33,33,,,,,,,,,,,,,,f,15,A,A,2,1,Correct!,0.9917583999922499,249.89232839999022,None,249.89232839999022,None,250.90975150000304,None,,,,,8,001,2023-04-27_13h00.20.660,uncolored_sorted,2021.2.3,59.95293692814266,
C:\Users\subject\Desktop\SVRT Experiments\SVRT Experiment 3\svrt_images\generated_images\results_problem_15,,,,,,,,,,,,,,,,,,,,,,,,0,1,1,1,,,,,,,,,,,,,,,,,,,,,,,,,,,,,,,,251.91050509997876,251.91050509997876,space,0.901637600036338,8,001,2023-04-27_13h00.20.660,uncolored_sorted,2021.2.3,59.95293692814266,
C:\Users\subject\Desktop\SVRT Experiments\SVRT Experiment 3\svrt_images\generated_images\results_problem_1,,,C:\Users\subject\Desktop\SVRT Experiments\SVRT Experiment 3\svrt_images\generated_images\results_problem_1\sample_1_0013.png,,,,,,,,,,,,,,,,,,,,,0,2,2,2,0,0,0,0,,,,,,,,,,,,,,f,1,A,A,2,1,Correct!,1.1195657999487594,252.84450980002293,None,252.84450980002293,None,253.9953788999701,None,,,,,8,001,2023-04-27_13h00.20.660,uncolored_sorted,2021.2.3,59.95293692814266,
C:\Users\subject\Desktop\SVRT Experiments\SVRT Experiment 3\svrt_images\generated_images\results_problem_1,,,C:\Users\subject\Desktop\SVRT Experiments\SVRT Experiment 3\svrt_images\generated_images\results_problem_1\sample_0_0002.png,,,,,,,,,,,,,,,,,,,,,0,2,2,2,0,1,1,1,,,,,,,,,,,,,,j,1,B,B,2,1,Correct!,1.039193999953568,255.0128512000083,None,255.0128512000083,None,256.08032120001735,None,,,,,8,001,2023-04-27_13h00.20.660,uncolored_sorted,2021.2.3,59.95293692814266,
C:\Users\subject\Desktop\SVRT Experiments\SVRT Experiment 3\svrt_images\generated_images\results_problem_1,,,C:\Users\subject\Desktop\SVRT Experiments\SVRT Experiment 3\svrt_images\generated_images\results_problem_1\sample_0_0008.png,,,,,,,,,,,,,,,,,,,,,0,2,2,2,0,2,2,2,,,,,,,,,,,,,,f,1,A,B,2,0,Incorrect!,0.5862422999925911,257.0977892000228,None,257.0977892000228,None,257.7154837999842,None,,,,,8,001,2023-04-27_13h00.20.660,uncolored_sorted,2021.2.3,59.95293692814266,
C:\Users\subject\Desktop\SVRT Experiments\SVRT Experiment 3\svrt_images\generated_images\results_problem_1,,,C:\Users\subject\Desktop\SVRT Experiments\SVRT Experiment 3\svrt_images\generated_images\results_problem_1\sample_0_0014.png,,,,,,,,,,,,,,,,,,,,,0,2,2,2,0,3,3,3,,,,,,,,,,,,,,j,1,B,B,2,1,Correct!,1.6148992999806069,258.74907339998754,None,258.74907339998754,None,260.38354170002276,None,,,,,8,001,2023-04-27_13h00.20.660,uncolored_sorted,2021.2.3,59.95293692814266,
C:\Users\subject\Desktop\SVRT Experiments\SVRT Experiment 3\svrt_images\generated_images\results_problem_1,,,C:\Users\subject\Desktop\SVRT Experiments\SVRT Experiment 3\svrt_images\generated_images\results_problem_1\sample_0_0004.png,,,,,,,,,,,,,,,,,,,,,0,2,2,2,0,4,4,4,,,,,,,,,,,,,,f,1,A,B,2,0,Incorrect!,0.5623185000149533,261.4176958000171,None,261.4176958000171,None,262.00146549998317,None,,,,,8,001,2023-04-27_13h00.20.660,uncolored_sorted,2021.2.3,59.95293692814266,
C:\Users\subject\Desktop\SVRT Experiments\SVRT Experiment 3\svrt_images\generated_images\results_problem_1,,,C:\Users\subject\Desktop\SVRT Experiments\SVRT Experiment 3\svrt_images\generated_images\results_problem_1\sample_0_0010.png,,,,,,,,,,,,,,,,,,,,,0,2,2,2,0,5,5,5,,,,,,,,,,,,,,f,1,A,B,2,0,Incorrect!,0.6557257000240497,263.05225920001976,None,263.05225920001976,None,263.7361044000136,None,,,,,8,001,2023-04-27_13h00.20.660,uncolored_sorted,2021.2.3,59.95293692814266,
C:\Users\subject\Desktop\SVRT Experiments\SVRT Experiment 3\svrt_images\generated_images\results_problem_1,,,C:\Users\subject\Desktop\SVRT Experiments\SVRT Experiment 3\svrt_images\generated_images\results_problem_1\sample_1_0009.png,,,,,,,,,,,,,,,,,,,,,0,2,2,2,0,6,6,6,,,,,,,,,,,,,,f,1,A,A,2,1,Correct!,0.521226899989415,264.7869062999962,None,264.7869062999962,None,265.3372802999802,None,,,,,8,001,2023-04-27_13h00.20.660,uncolored_sorted,2021.2.3,59.95293692814266,
C:\Users\subject\Desktop\SVRT Experiments\SVRT Experiment 3\svrt_images\generated_images\results_problem_1,,,C:\Users\subject\Desktop\SVRT Experiments\SVRT Experiment 3\svrt_images\generated_images\results_problem_1\sample_1_0012.png,,,,,,,,,,,,,,,,,,,,,0,2,2,2,0,7,7,7,,,,,,,,,,,,,,f,1,A,A,2,1,Correct!,0.6152359000407159,266.4047935999697,None,266.4047935999697,None,267.0385855999775,None,,,,,8,001,2023-04-27_13h00.20.660,uncolored_sorted,2021.2.3,59.95293692814266,
C:\Users\subject\Desktop\SVRT Experiments\SVRT Experiment 3\svrt_images\generated_images\results_problem_1,,,C:\Users\subject\Desktop\SVRT Experiments\SVRT Experiment 3\svrt_images\generated_images\results_problem_1\sample_1_0002.png,,,,,,,,,,,,,,,,,,,,,0,2,2,2,0,8,8,8,,,,,,,,,,,,,,f,1,A,A,2,1,Correct!,0.5452179999556392,268.1227149000042,None,268.1227149000042,None,268.6898319000029,None,,,,,8,001,2023-04-27_13h00.20.660,uncolored_sorted,2021.2.3,59.95293692814266,
C:\Users\subject\Desktop\SVRT Experiments\SVRT Experiment 3\svrt_images\generated_images\results_problem_1,,,C:\Users\subject\Desktop\SVRT Experiments\SVRT Experiment 3\svrt_images\generated_images\results_problem_1\sample_1_0005.png,,,,,,,,,,,,,,,,,,,,,0,2,2,2,0,9,9,9,,,,,,,,,,,,,,f,1,A,A,2,1,Correct!,0.4859693999751471,269.77400139998645,None,269.77400139998645,None,270.2910610999679,None,,,,,8,001,2023-04-27_13h00.20.660,uncolored_sorted,2021.2.3,59.95293692814266,
C:\Users\subject\Desktop\SVRT Experiments\SVRT Experiment 3\svrt_images\generated_images\results_problem_1,,,C:\Users\subject\Desktop\SVRT Experiments\SVRT Experiment 3\svrt_images\generated_images\results_problem_1\sample_1_0007.png,,,,,,,,,,,,,,,,,,,,,0,2,2,2,0,10,10,10,,,,,,,,,,,,,,j,1,B,A,2,0,Incorrect!,0.4927047000383027,271.3752178999712,None,271.3752178999712,None,271.89224189997185,None,,,,,8,001,2023-04-27_13h00.20.660,uncolored_sorted,2021.2.3,59.95293692814266,
C:\Users\subject\Desktop\SVRT Experiments\SVRT Experiment 3\svrt_images\generated_images\results_problem_1,,,C:\Users\subject\Desktop\SVRT Experiments\SVRT Experiment 3\svrt_images\generated_images\results_problem_1\sample_1_0011.png,,,,,,,,,,,,,,,,,,,,,0,2,2,2,0,11,11,11,,,,,,,,,,,,,,j,1,B,A,2,0,Incorrect!,0.4588514000060968,272.9931110999896,None,272.9931110999896,None,273.4767868000199,None,,,,,8,001,2023-04-27_13h00.20.660,uncolored_sorted,2021.2.3,59.95293692814266,
C:\Users\subject\Desktop\SVRT Experiments\SVRT Experiment 3\svrt_images\generated_images\results_problem_1,,,C:\Users\subject\Desktop\SVRT Experiments\SVRT Experiment 3\svrt_images\generated_images\results_problem_1\sample_1_0000.png,,,,,,,,,,,,,,,,,,,,,0,2,2,2,0,12,12,12,,,,,,,,,,,,,,f,1,A,A,2,1,Correct!,0.34634289995301515,274.57763640000485,None,274.57763640000485,None,274.9445745999692,None,,,,,8,001,2023-04-27_13h00.20.660,uncolored_sorted,2021.2.3,59.95293692814266,
C:\Users\subject\Desktop\SVRT Experiments\SVRT Experiment 3\svrt_images\generated_images\results_problem_1,,,C:\Users\subject\Desktop\SVRT Experiments\SVRT Experiment 3\svrt_images\generated_images\results_problem_1\sample_0_0003.png,,,,,,,,,,,,,,,,,,,,,0,2,2,2,0,13,13,13,,,,,,,,,,,,,,j,1,B,B,2,1,Correct!,1.5178596999612637,276.06209439999657,None,276.06209439999657,None,277.61325029999716,None,,,,,8,001,2023-04-27_13h00.20.660,uncolored_sorted,2021.2.3,59.95293692814266,
C:\Users\subject\Desktop\SVRT Experiments\SVRT Experiment 3\svrt_images\generated_images\results_problem_1,,,C:\Users\subject\Desktop\SVRT Experiments\SVRT Experiment 3\svrt_images\generated_images\results_problem_1\sample_1_0015.png,,,,,,,,,,,,,,,,,,,,,0,2,2,2,0,14,14,14,,,,,,,,,,,,,,f,1,A,A,2,1,Correct!,0.6071502999984659,278.8287332999753,None,278.8287332999753,None,279.46465839998564,None,,,,,8,001,2023-04-27_13h00.20.660,uncolored_sorted,2021.2.3,59.95293692814266,
C:\Users\subject\Desktop\SVRT Experiments\SVRT Experiment 3\svrt_images\generated_images\results_problem_1,,,C:\Users\subject\Desktop\SVRT Experiments\SVRT Experiment 3\svrt_images\generated_images\results_problem_1\sample_1_0014.png,,,,,,,,,,,,,,,,,,,,,0,2,2,2,0,15,15,15,,,,,,,,,,,,,,f,1,A,A,2,1,Correct!,0.5172778000123799,280.59885140002007,None,280.59885140002007,None,281.14926299999934,None,,,,,8,001,2023-04-27_13h00.20.660,uncolored_sorted,2021.2.3,59.95293692814266,
C:\Users\subject\Desktop\SVRT Experiments\SVRT Experiment 3\svrt_images\generated_images\results_problem_1,,,C:\Users\subject\Desktop\SVRT Experiments\SVRT Experiment 3\svrt_images\generated_images\results_problem_1\sample_0_0011.png,,,,,,,,,,,,,,,,,,,,,0,2,2,2,0,16,16,16,,,,,,,,,,,,,,f,1,A,B,2,0,Incorrect!,0.44778869999572635,282.3001353999716,None,282.3001353999716,None,282.7671562000178,None,,,,,8,001,2023-04-27_13h00.20.660,uncolored_sorted,2021.2.3,59.95293692814266,
C:\Users\subject\Desktop\SVRT Experiments\SVRT Experiment 3\svrt_images\generated_images\results_problem_1,,,C:\Users\subject\Desktop\SVRT Experiments\SVRT Experiment 3\svrt_images\generated_images\results_problem_1\sample_0_0012.png,,,,,,,,,,,,,,,,,,,,,0,2,2,2,0,17,17,17,,,,,,,,,,,,,,j,1,B,B,2,1,Correct!,0.5018539000302553,283.9180327000213,None,283.9180327000213,None,284.4684167000232,None,,,,,8,001,2023-04-27_13h00.20.660,uncolored_sorted,2021.2.3,59.95293692814266,
C:\Users\subject\Desktop\SVRT Experiments\SVRT Experiment 3\svrt_images\generated_images\results_problem_1,,,C:\Users\subject\Desktop\SVRT Experiments\SVRT Experiment 3\svrt_images\generated_images\results_problem_1\sample_1_0003.png,,,,,,,,,,,,,,,,,,,,,0,2,2,2,0,18,18,18,,,,,,,,,,,,,,f,1,A,A,2,1,Correct!,1.695845099980943,285.6359999999986,None,285.6359999999986,None,287.35392939997837,None,,,,,8,001,2023-04-27_13h00.20.660,uncolored_sorted,2021.2.3,59.95293692814266,
C:\Users\subject\Desktop\SVRT Experiments\SVRT Experiment 3\svrt_images\generated_images\results_problem_1,,,C:\Users\subject\Desktop\SVRT Experiments\SVRT Experiment 3\svrt_images\generated_images\results_problem_1\sample_0_0001.png,,,,,,,,,,,,,,,,,,,,,0,2,2,2,0,19,19,19,,,,,,,,,,,,,,f,1,A,B,2,0,Incorrect!,0.42632480000611395,288.5215102999937,None,288.5215102999937,None,288.97183860000223,None,,,,,8,001,2023-04-27_13h00.20.660,uncolored_sorted,2021.2.3,59.95293692814266,
C:\Users\subject\Desktop\SVRT Experiments\SVRT Experiment 3\svrt_images\generated_images\results_problem_1,,,C:\Users\subject\Desktop\SVRT Experiments\SVRT Experiment 3\svrt_images\generated_images\results_problem_1\sample_0_0005.png,,,,,,,,,,,,,,,,,,,,,0,2,2,2,0,20,20,20,,,,,,,,,,,,,,j,1,B,B,2,1,Correct!,0.3838145000045188,290.15604470000835,None,290.15604470000835,None,290.57305200002156,None,,,,,8,001,2023-04-27_13h00.20.660,uncolored_sorted,2021.2.3,59.95293692814266,
C:\Users\subject\Desktop\SVRT Experiments\SVRT Experiment 3\svrt_images\generated_images\results_problem_1,,,C:\Users\subject\Desktop\SVRT Experiments\SVRT Experiment 3\svrt_images\generated_images\results_problem_1\sample_1_0008.png,,,,,,,,,,,,,,,,,,,,,0,2,2,2,0,21,21,21,,,,,,,,,,,,,,f,1,A,A,2,1,Correct!,0.7586011999519542,291.75730040000053,None,291.75730040000053,None,292.5412099999958,None,,,,,8,001,2023-04-27_13h00.20.660,uncolored_sorted,2021.2.3,59.95293692814266,
C:\Users\subject\Desktop\SVRT Experiments\SVRT Experiment 3\svrt_images\generated_images\results_problem_1,,,C:\Users\subject\Desktop\SVRT Experiments\SVRT Experiment 3\svrt_images\generated_images\results_problem_1\sample_0_0015.png,,,,,,,,,,,,,,,,,,,,,0,2,2,2,0,22,22,22,,,,,,,,,,,,,,j,1,B,B,2,1,Correct!,0.6696924000279978,293.7421425000066,None,293.7421425000066,None,294.45932259998517,None,,,,,8,001,2023-04-27_13h00.20.660,uncolored_sorted,2021.2.3,59.95293692814266,
C:\Users\subject\Desktop\SVRT Experiments\SVRT Experiment 3\svrt_images\generated_images\results_problem_1,,,C:\Users\subject\Desktop\SVRT Experiments\SVRT Experiment 3\svrt_images\generated_images\results_problem_1\sample_0_0016.png,,,,,,,,,,,,,,,,,,,,,0,2,2,2,0,23,23,23,,,,,,,,,,,,,,f,1,A,B,2,0,Incorrect!,0.6229519000044093,295.67688789998647,None,295.67688789998647,None,296.32741099997656,None,,,,,8,001,2023-04-27_13h00.20.660,uncolored_sorted,2021.2.3,59.95293692814266,
C:\Users\subject\Desktop\SVRT Experiments\SVRT Experiment 3\svrt_images\generated_images\results_problem_1,,,C:\Users\subject\Desktop\SVRT Experiments\SVRT Experiment 3\svrt_images\generated_images\results_problem_1\sample_0_0006.png,,,,,,,,,,,,,,,,,,,,,0,2,2,2,0,24,24,24,,,,,,,,,,,,,,f,1,A,B,2,0,Incorrect!,0.59410809999099,297.56167249998543,None,297.56167249998543,None,298.19547590002185,None,,,,,8,001,2023-04-27_13h00.20.660,uncolored_sorted,2021.2.3,59.95293692814266,
C:\Users\subject\Desktop\SVRT Experiments\SVRT Experiment 3\svrt_images\generated_images\results_problem_1,,,C:\Users\subject\Desktop\SVRT Experiments\SVRT Experiment 3\svrt_images\generated_images\results_problem_1\sample_1_0016.png,,,,,,,,,,,,,,,,,,,,,0,2,2,2,0,25,25,25,,,,,,,,,,,,,,j,1,B,A,2,0,Incorrect!,0.638003200001549,299.4297657000134,None,299.4297657000134,None,300.0969134999905,None,,,,,8,001,2023-04-27_13h00.20.660,uncolored_sorted,2021.2.3,59.95293692814266,
C:\Users\subject\Desktop\SVRT Experiments\SVRT Experiment 3\svrt_images\generated_images\results_problem_1,,,C:\Users\subject\Desktop\SVRT Experiments\SVRT Experiment 3\svrt_images\generated_images\results_problem_1\sample_0_0007.png,,,,,,,,,,,,,,,,,,,,,0,2,2,2,0,26,26,26,,,,,,,,,,,,,,j,1,B,B,2,1,Correct!,0.5838927999720909,301.3478688999894,None,301.3478688999894,None,301.964988599997,None,,,,,8,001,2023-04-27_13h00.20.660,uncolored_sorted,2021.2.3,59.95293692814266,
C:\Users\subject\Desktop\SVRT Experiments\SVRT Experiment 3\svrt_images\generated_images\results_problem_1,,,C:\Users\subject\Desktop\SVRT Experiments\SVRT Experiment 3\svrt_images\generated_images\results_problem_1\sample_0_0000.png,,,,,,,,,,,,,,,,,,,,,0,2,2,2,0,27,27,27,,,,,,,,,,,,,,f,1,A,B,2,0,Incorrect!,0.6271543999901041,303.23260079999454,None,303.23260079999454,None,303.89979719999246,None,,,,,8,001,2023-04-27_13h00.20.660,uncolored_sorted,2021.2.3,59.95293692814266,
C:\Users\subject\Desktop\SVRT Experiments\SVRT Experiment 3\svrt_images\generated_images\results_problem_1,,,C:\Users\subject\Desktop\SVRT Experiments\SVRT Experiment 3\svrt_images\generated_images\results_problem_1\sample_0_0013.png,,,,,,,,,,,,,,,,,,,,,0,2,2,2,0,28,28,28,,,,,,,,,,,,,,f,1,A,B,2,0,Incorrect!,1.0603133999975398,305.1674184000003,None,305.1674184000003,None,306.28490460000467,None,,,,,8,001,2023-04-27_13h00.20.660,uncolored_sorted,2021.2.3,59.95293692814266,
C:\Users\subject\Desktop\SVRT Experiments\SVRT Experiment 3\svrt_images\generated_images\results_problem_1,,,C:\Users\subject\Desktop\SVRT Experiments\SVRT Experiment 3\svrt_images\generated_images\results_problem_1\sample_0_0009.png,,,,,,,,,,,,,,,,,,,,,0,2,2,2,0,29,29,29,,,,,,,,,,,,,,f,1,A,B,2,0,Incorrect!,0.7065051000099629,307.5692352000042,None,307.5692352000042,None,308.3364719999954,None,,,,,8,001,2023-04-27_13h00.20.660,uncolored_sorted,2021.2.3,59.95293692814266,
C:\Users\subject\Desktop\SVRT Experiments\SVRT Experiment 3\svrt_images\generated_images\results_problem_1,,,C:\Users\subject\Desktop\SVRT Experiments\SVRT Experiment 3\svrt_images\generated_images\results_problem_1\sample_1_0010.png,,,,,,,,,,,,,,,,,,,,,0,2,2,2,0,30,30,30,,,,,,,,,,,,,,f,1,A,A,2,1,Correct!,0.5582792999921367,309.6374638999696,None,309.6374638999696,None,310.25458579999395,None,,,,,8,001,2023-04-27_13h00.20.660,uncolored_sorted,2021.2.3,59.95293692814266,
C:\Users\subject\Desktop\SVRT Experiments\SVRT Experiment 3\svrt_images\generated_images\results_problem_1,,,C:\Users\subject\Desktop\SVRT Experiments\SVRT Experiment 3\svrt_images\generated_images\results_problem_1\sample_1_0001.png,,,,,,,,,,,,,,,,,,,,,0,2,2,2,0,31,31,31,,,,,,,,,,,,,,j,1,B,A,2,0,Incorrect!,0.5434369000140578,311.5722630000091,None,311.5722630000091,None,312.18936319998465,None,,,,,8,001,2023-04-27_13h00.20.660,uncolored_sorted,2021.2.3,59.95293692814266,
C:\Users\subject\Desktop\SVRT Experiments\SVRT Experiment 3\svrt_images\generated_images\results_problem_1,,,C:\Users\subject\Desktop\SVRT Experiments\SVRT Experiment 3\svrt_images\generated_images\results_problem_1\sample_1_0004.png,,,,,,,,,,,,,,,,,,,,,0,2,2,2,0,32,32,32,,,,,,,,,,,,,,f,1,A,A,2,1,Correct!,0.5686430999776348,313.5070828999742,None,313.5070828999742,None,314.1241790999775,None,,,,,8,001,2023-04-27_13h00.20.660,uncolored_sorted,2021.2.3,59.95293692814266,
C:\Users\subject\Desktop\SVRT Experiments\SVRT Experiment 3\svrt_images\generated_images\results_problem_1,,,C:\Users\subject\Desktop\SVRT Experiments\SVRT Experiment 3\svrt_images\generated_images\results_problem_1\sample_1_0006.png,,,,,,,,,,,,,,,,,,,,,0,2,2,2,0,33,33,33,,,,,,,,,,,,,,j,1,B,A,2,0,Incorrect!,0.5371926000225358,315.4585286999936,None,315.4585286999936,None,316.0756583000184,None,,,,,8,001,2023-04-27_13h00.20.660,uncolored_sorted,2021.2.3,59.95293692814266,
C:\Users\subject\Desktop\SVRT Experiments\SVRT Experiment 3\svrt_images\generated_images\results_problem_1,,,,,,,,,,,,,,,,,,,,,,,,0,2,2,2,,,,,,,,,,,,,,,,,,,,,,,,,,,,,,,,317.07641049998347,317.07641049998347,space,0.8553875000216067,8,001,2023-04-27_13h00.20.660,uncolored_sorted,2021.2.3,59.95293692814266,
C:\Users\subject\Desktop\SVRT Experiments\SVRT Experiment 3\svrt_images\generated_images\results_problem_19,,,,C:\Users\subject\Desktop\SVRT Experiments\SVRT Experiment 3\svrt_images\generated_images\results_problem_19\sample_1_0005.png,,,,,,,,,,,,,,,,,,,,0,3,3,3,0,0,0,0,,,,,,,,,,,,,,j,19,B,A,2,0,Incorrect!,1.3232595000299625,317.96041449997574,None,317.96041449997574,None,319.31142980000004,None,,,,,8,001,2023-04-27_13h00.20.660,uncolored_sorted,2021.2.3,59.95293692814266,
C:\Users\subject\Desktop\SVRT Experiments\SVRT Experiment 3\svrt_images\generated_images\results_problem_19,,,,C:\Users\subject\Desktop\SVRT Experiments\SVRT Experiment 3\svrt_images\generated_images\results_problem_19\sample_0_0005.png,,,,,,,,,,,,,,,,,,,,0,3,3,3,0,1,1,1,,,,,,,,,,,,,,j,19,B,B,2,1,Correct!,1.0988176999962889,320.3288807999925,None,320.3288807999925,None,321.4463828000007,None,,,,,8,001,2023-04-27_13h00.20.660,uncolored_sorted,2021.2.3,59.95293692814266,
C:\Users\subject\Desktop\SVRT Experiments\SVRT Experiment 3\svrt_images\generated_images\results_problem_19,,,,C:\Users\subject\Desktop\SVRT Experiments\SVRT Experiment 3\svrt_images\generated_images\results_problem_19\sample_0_0004.png,,,,,,,,,,,,,,,,,,,,0,3,3,3,0,2,2,2,,,,,,,,,,,,,,j,19,B,B,2,1,Correct!,0.6118742999969982,322.4638162999763,None,322.4638162999763,None,323.0976267000078,None,,,,,8,001,2023-04-27_13h00.20.660,uncolored_sorted,2021.2.3,59.95293692814266,
C:\Users\subject\Desktop\SVRT Experiments\SVRT Experiment 3\svrt_images\generated_images\results_problem_19,,,,C:\Users\subject\Desktop\SVRT Experiments\SVRT Experiment 3\svrt_images\generated_images\results_problem_19\sample_1_0016.png,,,,,,,,,,,,,,,,,,,,0,3,3,3,0,3,3,3,,,,,,,,,,,,,,f,19,A,A,2,1,Correct!,0.6639213000307791,324.1317475999822,None,324.1317475999822,None,324.815603199997,None,,,,,8,001,2023-04-27_13h00.20.660,uncolored_sorted,2021.2.3,59.95293692814266,
C:\Users\subject\Desktop\SVRT Experiments\SVRT Experiment 3\svrt_images\generated_images\results_problem_19,,,,C:\Users\subject\Desktop\SVRT Experiments\SVRT Experiment 3\svrt_images\generated_images\results_problem_19\sample_1_0012.png,,,,,,,,,,,,,,,,,,,,0,3,3,3,0,4,4,4,,,,,,,,,,,,,,f,19,A,A,2,1,Correct!,0.7539410999743268,325.84971819998464,None,325.84971819998464,None,326.633631100005,None,,,,,8,001,2023-04-27_13h00.20.660,uncolored_sorted,2021.2.3,59.95293692814266,
C:\Users\subject\Desktop\SVRT Experiments\SVRT Experiment 3\svrt_images\generated_images\results_problem_19,,,,C:\Users\subject\Desktop\SVRT Experiments\SVRT Experiment 3\svrt_images\generated_images\results_problem_19\sample_1_0007.png,,,,,,,,,,,,,,,,,,,,0,3,3,3,0,5,5,5,,,,,,,,,,,,,,f,19,A,A,2,1,Correct!,0.5840684000286274,327.6677494000178,None,327.6677494000178,None,328.2848801999935,None,,,,,8,001,2023-04-27_13h00.20.660,uncolored_sorted,2021.2.3,59.95293692814266,
C:\Users\subject\Desktop\SVRT Experiments\SVRT Experiment 3\svrt_images\generated_images\results_problem_19,,,,C:\Users\subject\Desktop\SVRT Experiments\SVRT Experiment 3\svrt_images\generated_images\results_problem_19\sample_1_0009.png,,,,,,,,,,,,,,,,,,,,0,3,3,3,0,6,6,6,,,,,,,,,,,,,,f,19,A,A,2,1,Correct!,0.4679587999708019,329.3356796000153,None,329.3356796000153,None,329.83604959998047,None,,,,,8,001,2023-04-27_13h00.20.660,uncolored_sorted,2021.2.3,59.95293692814266,
C:\Users\subject\Desktop\SVRT Experiments\SVRT Experiment 3\svrt_images\generated_images\results_problem_19,,,,C:\Users\subject\Desktop\SVRT Experiments\SVRT Experiment 3\svrt_images\generated_images\results_problem_19\sample_0_0014.png,,,,,,,,,,,,,,,,,,,,0,3,3,3,0,7,7,7,,,,,,,,,,,,,,j,19,B,B,2,1,Correct!,0.6120984999579377,330.903529800009,None,330.903529800009,None,331.5373406999861,None,,,,,8,001,2023-04-27_13h00.20.660,uncolored_sorted,2021.2.3,59.95293692814266,
C:\Users\subject\Desktop\SVRT Experiments\SVRT Experiment 3\svrt_images\generated_images\results_problem_19,,,,C:\Users\subject\Desktop\SVRT Experiments\SVRT Experiment 3\svrt_images\generated_images\results_problem_19\sample_1_0015.png,,,,,,,,,,,,,,,,,,,,0,3,3,3,0,8,8,8,,,,,,,,,,,,,,,,,,,,,,,,,,,,332.5380765000009,332.5380765000009,space,0.9694999000057578,8,001,2023-04-27_13h00.20.660,uncolored_sorted,2021.2.3,59.95293692814266,
C:\Users\subject\Desktop\SVRT Experiments\SVRT Experiment 3\svrt_images\generated_images\results_problem_22,,,,C:\Users\subject\Desktop\SVRT Experiments\SVRT Experiment 3\svrt_images\generated_images\results_problem_19\sample_1_0015.png,C:\Users\subject\Desktop\SVRT Experiments\SVRT Experiment 3\svrt_images\generated_images\results_problem_22\sample_0_0010.png,,,,,,,,,,,,,,,,,,,0,4,4,4,0,0,0,0,,,,,,,,,,,,,,j,22,B,B,2,1,Correct!,1.5448113000020385,333.53882000001613,None,333.53882000001613,None,335.1066796000232,None,,,,,8,001,2023-04-27_13h00.20.660,uncolored_sorted,2021.2.3,59.95293692814266,
C:\Users\subject\Desktop\SVRT Experiments\SVRT Experiment 3\svrt_images\generated_images\results_problem_22,,,,C:\Users\subject\Desktop\SVRT Experiments\SVRT Experiment 3\svrt_images\generated_images\results_problem_19\sample_1_0015.png,C:\Users\subject\Desktop\SVRT Experiments\SVRT Experiment 3\svrt_images\generated_images\results_problem_22\sample_1_0011.png,,,,,,,,,,,,,,,,,,,0,4,4,4,0,1,1,1,,,,,,,,,,,,,,f,22,A,A,2,1,Correct!,0.8794394999858923,336.124137900013,None,336.124137900013,None,337.0247900999966,None,,,,,8,001,2023-04-27_13h00.20.660,uncolored_sorted,2021.2.3,59.95293692814266,
C:\Users\subject\Desktop\SVRT Experiments\SVRT Experiment 3\svrt_images\generated_images\results_problem_22,,,,C:\Users\subject\Desktop\SVRT Experiments\SVRT Experiment 3\svrt_images\generated_images\results_problem_19\sample_1_0015.png,C:\Users\subject\Desktop\SVRT Experiments\SVRT Experiment 3\svrt_images\generated_images\results_problem_22\sample_0_0002.png,,,,,,,,,,,,,,,,,,,0,4,4,4,0,2,2,2,,,,,,,,,,,,,,j,22,B,B,2,1,Correct!,1.4333314999821596,338.04225609998684,None,338.04225609998684,None,339.49334280000767,None,,,,,8,001,2023-04-27_13h00.20.660,uncolored_sorted,2021.2.3,59.95293692814266,
C:\Users\subject\Desktop\SVRT Experiments\SVRT Experiment 3\svrt_images\generated_images\results_problem_22,,,,C:\Users\subject\Desktop\SVRT Experiments\SVRT Experiment 3\svrt_images\generated_images\results_problem_19\sample_1_0015.png,C:\Users\subject\Desktop\SVRT Experiments\SVRT Experiment 3\svrt_images\generated_images\results_problem_22\sample_0_0006.png,,,,,,,,,,,,,,,,,,,0,4,4,4,0,3,3,3,,,,,,,,,,,,,,f,22,A,B,2,0,Incorrect!,0.7161074999603443,340.5274667000049,None,340.5274667000049,None,341.26133229996776,None,,,,,8,001,2023-04-27_13h00.20.660,uncolored_sorted,2021.2.3,59.95293692814266,
C:\Users\subject\Desktop\SVRT Experiments\SVRT Experiment 3\svrt_images\generated_images\results_problem_22,,,,C:\Users\subject\Desktop\SVRT Experiments\SVRT Experiment 3\svrt_images\generated_images\results_problem_19\sample_1_0015.png,C:\Users\subject\Desktop\SVRT Experiments\SVRT Experiment 3\svrt_images\generated_images\results_problem_22\sample_1_0009.png,,,,,,,,,,,,,,,,,,,0,4,4,4,0,4,4,4,,,,,,,,,,,,,,f,22,A,A,2,1,Correct!,0.692113499972038,342.2954696000088,None,342.2954696000088,None,343.01268500002334,None,,,,,8,001,2023-04-27_13h00.20.660,uncolored_sorted,2021.2.3,59.95293692814266,
C:\Users\subject\Desktop\SVRT Experiments\SVRT Experiment 3\svrt_images\generated_images\results_problem_22,,,,C:\Users\subject\Desktop\SVRT Experiments\SVRT Experiment 3\svrt_images\generated_images\results_problem_19\sample_1_0015.png,C:\Users\subject\Desktop\SVRT Experiments\SVRT Experiment 3\svrt_images\generated_images\results_problem_22\sample_0_0000.png,,,,,,,,,,,,,,,,,,,0,4,4,4,0,5,5,5,,,,,,,,,,,,,,f,22,A,B,2,0,Incorrect!,0.7721048999810591,344.06345379998675,None,344.06345379998675,None,344.86407409998355,None,,,,,8,001,2023-04-27_13h00.20.660,uncolored_sorted,2021.2.3,59.95293692814266,
C:\Users\subject\Desktop\SVRT Experiments\SVRT Experiment 3\svrt_images\generated_images\results_problem_22,,,,C:\Users\subject\Desktop\SVRT Experiments\SVRT Experiment 3\svrt_images\generated_images\results_problem_19\sample_1_0015.png,C:\Users\subject\Desktop\SVRT Experiments\SVRT Experiment 3\svrt_images\generated_images\results_problem_22\sample_0_0013.png,,,,,,,,,,,,,,,,,,,0,4,4,4,0,6,6,6,,,,,,,,,,,,,,j,22,B,B,2,1,Correct!,0.8645909000188112,345.9148838999681,None,345.9148838999681,None,346.7991996000055,None,,,,,8,001,2023-04-27_13h00.20.660,uncolored_sorted,2021.2.3,59.95293692814266,
C:\Users\subject\Desktop\SVRT Experiments\SVRT Experiment 3\svrt_images\generated_images\results_problem_22,,,,C:\Users\subject\Desktop\SVRT Experiments\SVRT Experiment 3\svrt_images\generated_images\results_problem_19\sample_1_0015.png,C:\Users\subject\Desktop\SVRT Experiments\SVRT Experiment 3\svrt_images\generated_images\results_problem_22\sample_0_0012.png,,,,,,,,,,,,,,,,,,,0,4,4,4,0,7,7,7,,,,,,,,,,,,,,j,22,B,B,2,1,Correct!,0.6818364000064321,347.849664999987,None,347.849664999987,None,348.5501869000145,None,,,,,8,001,2023-04-27_13h00.20.660,uncolored_sorted,2021.2.3,59.95293692814266,
C:\Users\subject\Desktop\SVRT Experiments\SVRT Experiment 3\svrt_images\generated_images\results_problem_22,,,,C:\Users\subject\Desktop\SVRT Experiments\SVRT Experiment 3\svrt_images\generated_images\results_problem_19\sample_1_0015.png,C:\Users\subject\Desktop\SVRT Experiments\SVRT Experiment 3\svrt_images\generated_images\results_problem_22\sample_1_0015.png,,,,,,,,,,,,,,,,,,,0,4,4,4,0,8,8,8,,,,,,,,,,,,,,f,22,A,A,2,1,Correct!,0.7698542999569327,349.61766859999625,None,349.61766859999625,None,350.41827259998536,None,,,,,8,001,2023-04-27_13h00.20.660,uncolored_sorted,2021.2.3,59.95293692814266,
C:\Users\subject\Desktop\SVRT Experiments\SVRT Experiment 3\svrt_images\generated_images\results_problem_22,,,,C:\Users\subject\Desktop\SVRT Experiments\SVRT Experiment 3\svrt_images\generated_images\results_problem_19\sample_1_0015.png,C:\Users\subject\Desktop\SVRT Experiments\SVRT Experiment 3\svrt_images\generated_images\results_problem_22\sample_1_0000.png,,,,,,,,,,,,,,,,,,,0,4,4,4,0,9,9,9,,,,,,,,,,,,,,f,22,A,A,2,1,Correct!,0.7257816000492312,351.48574560001725,None,351.48574560001725,None,352.23630619997857,None,,,,,8,001,2023-04-27_13h00.20.660,uncolored_sorted,2021.2.3,59.95293692814266,
C:\Users\subject\Desktop\SVRT Experiments\SVRT Experiment 3\svrt_images\generated_images\results_problem_22,,,,C:\Users\subject\Desktop\SVRT Experiments\SVRT Experiment 3\svrt_images\generated_images\results_problem_19\sample_1_0015.png,C:\Users\subject\Desktop\SVRT Experiments\SVRT Experiment 3\svrt_images\generated_images\results_problem_22\sample_1_0013.png,,,,,,,,,,,,,,,,,,,0,4,4,4,0,10,10,10,,,,,,,,,,,,,,f,22,A,A,2,1,Correct!,0.554394599981606,353.3371455000015,None,353.3371455000015,None,353.92091400001664,None,,,,,8,001,2023-04-27_13h00.20.660,uncolored_sorted,2021.2.3,59.95293692814266,
C:\Users\subject\Desktop\SVRT Experiments\SVRT Experiment 3\svrt_images\generated_images\results_problem_22,,,,C:\Users\subject\Desktop\SVRT Experiments\SVRT Experiment 3\svrt_images\generated_images\results_problem_19\sample_1_0015.png,C:\Users\subject\Desktop\SVRT Experiments\SVRT Experiment 3\svrt_images\generated_images\results_problem_22\sample_1_0010.png,,,,,,,,,,,,,,,,,,,0,4,4,4,0,11,11,11,,,,,,,,,,,,,,f,22,A,A,2,1,Correct!,0.46176450001075864,355.02175359998364,None,355.02175359998364,None,355.5054449000163,None,,,,,8,001,2023-04-27_13h00.20.660,uncolored_sorted,2021.2.3,59.95293692814266,
C:\Users\subject\Desktop\SVRT Experiments\SVRT Experiment 3\svrt_images\generated_images\results_problem_22,,,,C:\Users\subject\Desktop\SVRT Experiments\SVRT Experiment 3\svrt_images\generated_images\results_problem_19\sample_1_0015.png,C:\Users\subject\Desktop\SVRT Experiments\SVRT Experiment 3\svrt_images\generated_images\results_problem_22\sample_1_0014.png,,,,,,,,,,,,,,,,,,,0,4,4,4,0,12,12,12,,,,,,,,,,,,,,f,22,A,A,2,1,Correct!,0.42924050003057346,356.60628389997873,None,356.60628389997873,None,357.05661869997857,None,,,,,8,001,2023-04-27_13h00.20.660,uncolored_sorted,2021.2.3,59.95293692814266,
C:\Users\subject\Desktop\SVRT Experiments\SVRT Experiment 3\svrt_images\generated_images\results_problem_22,,,,C:\Users\subject\Desktop\SVRT Experiments\SVRT Experiment 3\svrt_images\generated_images\results_problem_19\sample_1_0015.png,C:\Users\subject\Desktop\SVRT Experiments\SVRT Experiment 3\svrt_images\generated_images\results_problem_22\sample_0_0008.png,,,,,,,,,,,,,,,,,,,0,4,4,4,0,13,13,13,,,,,,,,,,,,,,,,,,,,,,,,,,,,358.05737419996876,358.05737419996876,space,0.6901228000060655,8,001,2023-04-27_13h00.20.660,uncolored_sorted,2021.2.3,59.95293692814266,
C:\Users\subject\Desktop\SVRT Experiments\SVRT Experiment 3\svrt_images\generated_images\results_problem_18,,,,C:\Users\subject\Desktop\SVRT Experiments\SVRT Experiment 3\svrt_images\generated_images\results_problem_19\sample_1_0015.png,C:\Users\subject\Desktop\SVRT Experiments\SVRT Experiment 3\svrt_images\generated_images\results_problem_22\sample_0_0008.png,C:\Users\subject\Desktop\SVRT Experiments\SVRT Experiment 3\svrt_images\generated_images\results_problem_18\sample_1_0011.png,,,,,,,,,,,,,,,,,,0,5,5,5,0,0,0,0,,,,,,,,,,,,,,f,18,A,A,2,1,Correct!,0.836942900030408,358.7745895999833,None,358.7745895999833,None,359.64190679998137,None,,,,,8,001,2023-04-27_13h00.20.660,uncolored_sorted,2021.2.3,59.95293692814266,
C:\Users\subject\Desktop\SVRT Experiments\SVRT Experiment 3\svrt_images\generated_images\results_problem_18,,,,C:\Users\subject\Desktop\SVRT Experiments\SVRT Experiment 3\svrt_images\generated_images\results_problem_19\sample_1_0015.png,C:\Users\subject\Desktop\SVRT Experiments\SVRT Experiment 3\svrt_images\generated_images\results_problem_22\sample_0_0008.png,C:\Users\subject\Desktop\SVRT Experiments\SVRT Experiment 3\svrt_images\generated_images\results_problem_18\sample_1_0002.png,,,,,,,,,,,,,,,,,,0,5,5,5,0,1,1,1,,,,,,,,,,,,,,f,18,A,A,2,1,Correct!,0.8001068999874406,360.6593467000057,None,360.6593467000057,None,361.47662259999197,None,,,,,8,001,2023-04-27_13h00.20.660,uncolored_sorted,2021.2.3,59.95293692814266,
C:\Users\subject\Desktop\SVRT Experiments\SVRT Experiment 3\svrt_images\generated_images\results_problem_18,,,,C:\Users\subject\Desktop\SVRT Experiments\SVRT Experiment 3\svrt_images\generated_images\results_problem_19\sample_1_0015.png,C:\Users\subject\Desktop\SVRT Experiments\SVRT Experiment 3\svrt_images\generated_images\results_problem_22\sample_0_0008.png,C:\Users\subject\Desktop\SVRT Experiments\SVRT Experiment 3\svrt_images\generated_images\results_problem_18\sample_1_0007.png,,,,,,,,,,,,,,,,,,0,5,5,5,0,2,2,2,,,,,,,,,,,,,,f,18,A,A,2,1,Correct!,0.5973934999783523,362.494065899984,None,362.494065899984,None,363.1111877000076,None,,,,,8,001,2023-04-27_13h00.20.660,uncolored_sorted,2021.2.3,59.95293692814266,
C:\Users\subject\Desktop\SVRT Experiments\SVRT Experiment 3\svrt_images\generated_images\results_problem_18,,,,C:\Users\subject\Desktop\SVRT Experiments\SVRT Experiment 3\svrt_images\generated_images\results_problem_19\sample_1_0015.png,C:\Users\subject\Desktop\SVRT Experiments\SVRT Experiment 3\svrt_images\generated_images\results_problem_22\sample_0_0008.png,C:\Users\subject\Desktop\SVRT Experiments\SVRT Experiment 3\svrt_images\generated_images\results_problem_18\sample_0_0016.png,,,,,,,,,,,,,,,,,,0,5,5,5,0,3,3,3,,,,,,,,,,,,,,f,18,A,B,2,0,Incorrect!,0.8021874999976717,364.14531839999836,None,364.14531839999836,None,364.9792541000061,None,,,,,8,001,2023-04-27_13h00.20.660,uncolored_sorted,2021.2.3,59.95293692814266,
C:\Users\subject\Desktop\SVRT Experiments\SVRT Experiment 3\svrt_images\generated_images\results_problem_18,,,,C:\Users\subject\Desktop\SVRT Experiments\SVRT Experiment 3\svrt_images\generated_images\results_problem_19\sample_1_0015.png,C:\Users\subject\Desktop\SVRT Experiments\SVRT Experiment 3\svrt_images\generated_images\results_problem_22\sample_0_0008.png,C:\Users\subject\Desktop\SVRT Experiments\SVRT Experiment 3\svrt_images\generated_images\results_problem_18\sample_1_0003.png,,,,,,,,,,,,,,,,,,0,5,5,5,0,4,4,4,,,,,,,,,,,,,,f,18,A,A,2,1,Correct!,0.9260746000218205,366.0133880000212,None,366.0133880000212,None,366.9640966000152,None,,,,,8,001,2023-04-27_13h00.20.660,uncolored_sorted,2021.2.3,59.95293692814266,
C:\Users\subject\Desktop\SVRT Experiments\SVRT Experiment 3\svrt_images\generated_images\results_problem_18,,,,C:\Users\subject\Desktop\SVRT Experiments\SVRT Experiment 3\svrt_images\generated_images\results_problem_19\sample_1_0015.png,C:\Users\subject\Desktop\SVRT Experiments\SVRT Experiment 3\svrt_images\generated_images\results_problem_22\sample_0_0008.png,C:\Users\subject\Desktop\SVRT Experiments\SVRT Experiment 3\svrt_images\generated_images\results_problem_18\sample_0_0006.png,,,,,,,,,,,,,,,,,,0,5,5,5,0,5,5,5,,,,,,,,,,,,,,f,18,A,B,2,0,Incorrect!,1.1805208000005223,368.01490459998604,None,368.01490459998604,None,369.2158045999822,None,,,,,8,001,2023-04-27_13h00.20.660,uncolored_sorted,2021.2.3,59.95293692814266,
C:\Users\subject\Desktop\SVRT Experiments\SVRT Experiment 3\svrt_images\generated_images\results_problem_18,,,,C:\Users\subject\Desktop\SVRT Experiments\SVRT Experiment 3\svrt_images\generated_images\results_problem_19\sample_1_0015.png,C:\Users\subject\Desktop\SVRT Experiments\SVRT Experiment 3\svrt_images\generated_images\results_problem_22\sample_0_0008.png,C:\Users\subject\Desktop\SVRT Experiments\SVRT Experiment 3\svrt_images\generated_images\results_problem_18\sample_0_0001.png,,,,,,,,,,,,,,,,,,0,5,5,5,0,6,6,6,,,,,,,,,,,,,,f,18,A,B,2,0,Incorrect!,4.040882599947508,370.2666048000101,None,370.2666048000101,None,374.3363382999669,None,,,,,8,001,2023-04-27_13h00.20.660,uncolored_sorted,2021.2.3,59.95293692814266,
C:\Users\subject\Desktop\SVRT Experiments\SVRT Experiment 3\svrt_images\generated_images\results_problem_18,,,,C:\Users\subject\Desktop\SVRT Experiments\SVRT Experiment 3\svrt_images\generated_images\results_problem_19\sample_1_0015.png,C:\Users\subject\Desktop\SVRT Experiments\SVRT Experiment 3\svrt_images\generated_images\results_problem_22\sample_0_0008.png,C:\Users\subject\Desktop\SVRT Experiments\SVRT Experiment 3\svrt_images\generated_images\results_problem_18\sample_1_0008.png,,,,,,,,,,,,,,,,,,0,5,5,5,0,7,7,7,,,,,,,,,,,,,,f,18,A,A,2,1,Correct!,6.982707399991341,375.404618999979,None,375.404618999979,None,382.409101199999,None,,,,,8,001,2023-04-27_13h00.20.660,uncolored_sorted,2021.2.3,59.95293692814266,
C:\Users\subject\Desktop\SVRT Experiments\SVRT Experiment 3\svrt_images\generated_images\results_problem_18,,,,C:\Users\subject\Desktop\SVRT Experiments\SVRT Experiment 3\svrt_images\generated_images\results_problem_19\sample_1_0015.png,C:\Users\subject\Desktop\SVRT Experiments\SVRT Experiment 3\svrt_images\generated_images\results_problem_22\sample_0_0008.png,C:\Users\subject\Desktop\SVRT Experiments\SVRT Experiment 3\svrt_images\generated_images\results_problem_18\sample_0_0007.png,,,,,,,,,,,,,,,,,,0,5,5,5,0,8,8,8,,,,,,,,,,,,,,f,18,A,B,2,0,Incorrect!,1.2227430999628268,383.47656939999433,None,383.47656939999433,None,384.727503800008,None,,,,,8,001,2023-04-27_13h00.20.660,uncolored_sorted,2021.2.3,59.95293692814266,
C:\Users\subject\Desktop\SVRT Experiments\SVRT Experiment 3\svrt_images\generated_images\results_problem_18,,,,C:\Users\subject\Desktop\SVRT Experiments\SVRT Experiment 3\svrt_images\generated_images\results_problem_19\sample_1_0015.png,C:\Users\subject\Desktop\SVRT Experiments\SVRT Experiment 3\svrt_images\generated_images\results_problem_22\sample_0_0008.png,C:\Users\subject\Desktop\SVRT Experiments\SVRT Experiment 3\svrt_images\generated_images\results_problem_18\sample_1_0001.png,,,,,,,,,,,,,,,,,,0,5,5,5,0,9,9,9,,,,,,,,,,,,,,f,18,A,A,2,1,Correct!,5.256320099986624,385.79499520000536,None,385.79499520000536,None,391.08232480002334,None,,,,,8,001,2023-04-27_13h00.20.660,uncolored_sorted,2021.2.3,59.95293692814266,
C:\Users\subject\Desktop\SVRT Experiments\SVRT Experiment 3\svrt_images\generated_images\results_problem_18,,,,C:\Users\subject\Desktop\SVRT Experiments\SVRT Experiment 3\svrt_images\generated_images\results_problem_19\sample_1_0015.png,C:\Users\subject\Desktop\SVRT Experiments\SVRT Experiment 3\svrt_images\generated_images\results_problem_22\sample_0_0008.png,C:\Users\subject\Desktop\SVRT Experiments\SVRT Experiment 3\svrt_images\generated_images\results_problem_18\sample_1_0009.png,,,,,,,,,,,,,,,,,,0,5,5,5,0,10,10,10,,,,,,,,,,,,,,f,18,A,A,2,1,Correct!,2.692812099994626,392.16646649996983,None,392.16646649996983,None,394.88519499998074,None,,,,,8,001,2023-04-27_13h00.20.660,uncolored_sorted,2021.2.3,59.95293692814266,
C:\Users\subject\Desktop\SVRT Experiments\SVRT Experiment 3\svrt_images\generated_images\results_problem_18,,,,C:\Users\subject\Desktop\SVRT Experiments\SVRT Experiment 3\svrt_images\generated_images\results_problem_19\sample_1_0015.png,C:\Users\subject\Desktop\SVRT Experiments\SVRT Experiment 3\svrt_images\generated_images\results_problem_22\sample_0_0008.png,C:\Users\subject\Desktop\SVRT Experiments\SVRT Experiment 3\svrt_images\generated_images\results_problem_18\sample_1_0000.png,,,,,,,,,,,,,,,,,,0,5,5,5,0,11,11,11,,,,,,,,,,,,,,f,18,A,A,2,1,Correct!,1.561244299984537,395.98603279999224,None,395.98603279999224,None,397.57056199997896,None,,,,,8,001,2023-04-27_13h00.20.660,uncolored_sorted,2021.2.3,59.95293692814266,
C:\Users\subject\Desktop\SVRT Experiments\SVRT Experiment 3\svrt_images\generated_images\results_problem_18,,,,C:\Users\subject\Desktop\SVRT Experiments\SVRT Experiment 3\svrt_images\generated_images\results_problem_19\sample_1_0015.png,C:\Users\subject\Desktop\SVRT Experiments\SVRT Experiment 3\svrt_images\generated_images\results_problem_22\sample_0_0008.png,C:\Users\subject\Desktop\SVRT Experiments\SVRT Experiment 3\svrt_images\generated_images\results_problem_18\sample_0_0011.png,,,,,,,,,,,,,,,,,,0,5,5,5,0,12,12,12,,,,,,,,,,,,,,j,18,B,B,2,1,Correct!,1.715876300004311,398.6713968999684,None,398.6713968999684,None,400.40603800001554,None,,,,,8,001,2023-04-27_13h00.20.660,uncolored_sorted,2021.2.3,59.95293692814266,
C:\Users\subject\Desktop\SVRT Experiments\SVRT Experiment 3\svrt_images\generated_images\results_problem_18,,,,C:\Users\subject\Desktop\SVRT Experiments\SVRT Experiment 3\svrt_images\generated_images\results_problem_19\sample_1_0015.png,C:\Users\subject\Desktop\SVRT Experiments\SVRT Experiment 3\svrt_images\generated_images\results_problem_22\sample_0_0008.png,C:\Users\subject\Desktop\SVRT Experiments\SVRT Experiment 3\svrt_images\generated_images\results_problem_18\sample_0_0005.png,,,,,,,,,,,,,,,,,,0,5,5,5,0,13,13,13,,,,,,,,,,,,,,j,18,B,B,2,1,Correct!,3.423658699961379,401.5235529000056,None,401.5235529000056,None,404.9761278000078,None,,,,,8,001,2023-04-27_13h00.20.660,uncolored_sorted,2021.2.3,59.95293692814266,
C:\Users\subject\Desktop\SVRT Experiments\SVRT Experiment 3\svrt_images\generated_images\results_problem_18,,,,C:\Users\subject\Desktop\SVRT Experiments\SVRT Experiment 3\svrt_images\generated_images\results_problem_19\sample_1_0015.png,C:\Users\subject\Desktop\SVRT Experiments\SVRT Experiment 3\svrt_images\generated_images\results_problem_22\sample_0_0008.png,C:\Users\subject\Desktop\SVRT Experiments\SVRT Experiment 3\svrt_images\generated_images\results_problem_18\sample_0_0008.png,,,,,,,,,,,,,,,,,,0,5,5,5,0,14,14,14,,,,,,,,,,,,,,j,18,B,B,2,1,Correct!,2.7576529999496415,406.0936284000054,None,406.0936284000054,None,408.8790985000087,None,,,,,8,001,2023-04-27_13h00.20.660,uncolored_sorted,2021.2.3,59.95293692814266,
C:\Users\subject\Desktop\SVRT Experiments\SVRT Experiment 3\svrt_images\generated_images\results_problem_18,,,,C:\Users\subject\Desktop\SVRT Experiments\SVRT Experiment 3\svrt_images\generated_images\results_problem_19\sample_1_0015.png,C:\Users\subject\Desktop\SVRT Experiments\SVRT Experiment 3\svrt_images\generated_images\results_problem_22\sample_0_0008.png,C:\Users\subject\Desktop\SVRT Experiments\SVRT Experiment 3\svrt_images\generated_images\results_problem_18\sample_0_0002.png,,,,,,,,,,,,,,,,,,0,5,5,5,0,15,15,15,,,,,,,,,,,,,,f,18,A,B,2,0,Incorrect!,1.5818957000155933,410.0132982999785,None,410.0132982999785,None,411.61450590001186,None,,,,,8,001,2023-04-27_13h00.20.660,uncolored_sorted,2021.2.3,59.95293692814266,
C:\Users\subject\Desktop\SVRT Experiments\SVRT Experiment 3\svrt_images\generated_images\results_problem_18,,,,C:\Users\subject\Desktop\SVRT Experiments\SVRT Experiment 3\svrt_images\generated_images\results_problem_19\sample_1_0015.png,C:\Users\subject\Desktop\SVRT Experiments\SVRT Experiment 3\svrt_images\generated_images\results_problem_22\sample_0_0008.png,C:\Users\subject\Desktop\SVRT Experiments\SVRT Experiment 3\svrt_images\generated_images\results_problem_18\sample_0_0015.png,,,,,,,,,,,,,,,,,,0,5,5,5,0,16,16,16,,,,,,,,,,,,,,f,18,A,B,2,0,Incorrect!,1.5584662000183016,412.7486720000161,None,412.7486720000161,None,414.33319879998453,None,,,,,8,001,2023-04-27_13h00.20.660,uncolored_sorted,2021.2.3,59.95293692814266,
C:\Users\subject\Desktop\SVRT Experiments\SVRT Experiment 3\svrt_images\generated_images\results_problem_18,,,,C:\Users\subject\Desktop\SVRT Experiments\SVRT Experiment 3\svrt_images\generated_images\results_problem_19\sample_1_0015.png,C:\Users\subject\Desktop\SVRT Experiments\SVRT Experiment 3\svrt_images\generated_images\results_problem_22\sample_0_0008.png,C:\Users\subject\Desktop\SVRT Experiments\SVRT Experiment 3\svrt_images\generated_images\results_problem_18\sample_1_0012.png,,,,,,,,,,,,,,,,,,0,5,5,5,0,17,17,17,,,,,,,,,,,,,,j,18,B,A,2,0,Incorrect!,2.0150145000079647,415.4841143999947,None,415.4841143999947,None,417.5356478000176,None,,,,,8,001,2023-04-27_13h00.20.660,uncolored_sorted,2021.2.3,59.95293692814266,
C:\Users\subject\Desktop\SVRT Experiments\SVRT Experiment 3\svrt_images\generated_images\results_problem_18,,,,C:\Users\subject\Desktop\SVRT Experiments\SVRT Experiment 3\svrt_images\generated_images\results_problem_19\sample_1_0015.png,C:\Users\subject\Desktop\SVRT Experiments\SVRT Experiment 3\svrt_images\generated_images\results_problem_22\sample_0_0008.png,C:\Users\subject\Desktop\SVRT Experiments\SVRT Experiment 3\svrt_images\generated_images\results_problem_18\sample_0_0000.png,,,,,,,,,,,,,,,,,,0,5,5,5,0,18,18,18,,,,,,,,,,,,,,f,18,A,B,2,0,Incorrect!,1.051956599985715,418.7031992999837,None,418.7031992999837,None,419.78734420001274,None,,,,,8,001,2023-04-27_13h00.20.660,uncolored_sorted,2021.2.3,59.95293692814266,
C:\Users\subject\Desktop\SVRT Experiments\SVRT Experiment 3\svrt_images\generated_images\results_problem_18,,,,C:\Users\subject\Desktop\SVRT Experiments\SVRT Experiment 3\svrt_images\generated_images\results_problem_19\sample_1_0015.png,C:\Users\subject\Desktop\SVRT Experiments\SVRT Experiment 3\svrt_images\generated_images\results_problem_22\sample_0_0008.png,C:\Users\subject\Desktop\SVRT Experiments\SVRT Experiment 3\svrt_images\generated_images\results_problem_18\sample_1_0010.png,,,,,,,,,,,,,,,,,,0,5,5,5,0,19,19,19,,,,,,,,,,,,,,f,18,A,A,2,1,Correct!,0.8482198999845423,420.95489579997957,None,420.95489579997957,None,421.8389021999901,None,,,,,8,001,2023-04-27_13h00.20.660,uncolored_sorted,2021.2.3,59.95293692814266,
C:\Users\subject\Desktop\SVRT Experiments\SVRT Experiment 3\svrt_images\generated_images\results_problem_18,,,,C:\Users\subject\Desktop\SVRT Experiments\SVRT Experiment 3\svrt_images\generated_images\results_problem_19\sample_1_0015.png,C:\Users\subject\Desktop\SVRT Experiments\SVRT Experiment 3\svrt_images\generated_images\results_problem_22\sample_0_0008.png,C:\Users\subject\Desktop\SVRT Experiments\SVRT Experiment 3\svrt_images\generated_images\results_problem_18\sample_0_0012.png,,,,,,,,,,,,,,,,,,0,5,5,5,0,20,20,20,,,,,,,,,,,,,,f,18,A,B,2,0,Incorrect!,0.8039943999610841,423.0231386999949,None,423.0231386999949,None,423.873762800009,None,,,,,8,001,2023-04-27_13h00.20.660,uncolored_sorted,2021.2.3,59.95293692814266,
C:\Users\subject\Desktop\SVRT Experiments\SVRT Experiment 3\svrt_images\generated_images\results_problem_18,,,,C:\Users\subject\Desktop\SVRT Experiments\SVRT Experiment 3\svrt_images\generated_images\results_problem_19\sample_1_0015.png,C:\Users\subject\Desktop\SVRT Experiments\SVRT Experiment 3\svrt_images\generated_images\results_problem_22\sample_0_0008.png,C:\Users\subject\Desktop\SVRT Experiments\SVRT Experiment 3\svrt_images\generated_images\results_problem_18\sample_0_0003.png,,,,,,,,,,,,,,,,,,0,5,5,5,0,21,21,21,,,,,,,,,,,,,,j,18,B,B,2,1,Correct!,0.993123900028877,425.05800139997154,None,425.05800139997154,None,426.0754414999974,None,,,,,8,001,2023-04-27_13h00.20.660,uncolored_sorted,2021.2.3,59.95293692814266,
C:\Users\subject\Desktop\SVRT Experiments\SVRT Experiment 3\svrt_images\generated_images\results_problem_18,,,,C:\Users\subject\Desktop\SVRT Experiments\SVRT Experiment 3\svrt_images\generated_images\results_problem_19\sample_1_0015.png,C:\Users\subject\Desktop\SVRT Experiments\SVRT Experiment 3\svrt_images\generated_images\results_problem_22\sample_0_0008.png,C:\Users\subject\Desktop\SVRT Experiments\SVRT Experiment 3\svrt_images\generated_images\results_problem_18\sample_1_0013.png,,,,,,,,,,,,,,,,,,0,5,5,5,0,22,22,22,,,,,,,,,,,,,,f,18,A,A,2,1,Correct!,0.8707794999936596,427.27634490001947,None,427.27634490001947,None,428.19369579997147,None,,,,,8,001,2023-04-27_13h00.20.660,uncolored_sorted,2021.2.3,59.95293692814266,
C:\Users\subject\Desktop\SVRT Experiments\SVRT Experiment 3\svrt_images\generated_images\results_problem_18,,,,C:\Users\subject\Desktop\SVRT Experiments\SVRT Experiment 3\svrt_images\generated_images\results_problem_19\sample_1_0015.png,C:\Users\subject\Desktop\SVRT Experiments\SVRT Experiment 3\svrt_images\generated_images\results_problem_22\sample_0_0008.png,C:\Users\subject\Desktop\SVRT Experiments\SVRT Experiment 3\svrt_images\generated_images\results_problem_18\sample_0_0014.png,,,,,,,,,,,,,,,,,,0,5,5,5,0,23,23,23,,,,,,,,,,,,,,j,18,B,B,2,1,Correct!,0.7044978000340052,429.39461139997,None,429.39461139997,None,430.14516760001425,None,,,,,8,001,2023-04-27_13h00.20.660,uncolored_sorted,2021.2.3,59.95293692814266,
C:\Users\subject\Desktop\SVRT Experiments\SVRT Experiment 3\svrt_images\generated_images\results_problem_18,,,,C:\Users\subject\Desktop\SVRT Experiments\SVRT Experiment 3\svrt_images\generated_images\results_problem_19\sample_1_0015.png,C:\Users\subject\Desktop\SVRT Experiments\SVRT Experiment 3\svrt_images\generated_images\results_problem_22\sample_0_0008.png,C:\Users\subject\Desktop\SVRT Experiments\SVRT Experiment 3\svrt_images\generated_images\results_problem_18\sample_1_0014.png,,,,,,,,,,,,,,,,,,0,5,5,5,0,24,24,24,,,,,,,,,,,,,,f,18,A,A,2,1,Correct!,1.2556194000062533,431.3794474999886,None,431.3794474999886,None,432.68041929998435,None,,,,,8,001,2023-04-27_13h00.20.660,uncolored_sorted,2021.2.3,59.95293692814266,
C:\Users\subject\Desktop\SVRT Experiments\SVRT Experiment 3\svrt_images\generated_images\results_problem_18,,,,C:\Users\subject\Desktop\SVRT Experiments\SVRT Experiment 3\svrt_images\generated_images\results_problem_19\sample_1_0015.png,C:\Users\subject\Desktop\SVRT Experiments\SVRT Experiment 3\svrt_images\generated_images\results_problem_22\sample_0_0008.png,C:\Users\subject\Desktop\SVRT Experiments\SVRT Experiment 3\svrt_images\generated_images\results_problem_18\sample_0_0009.png,,,,,,,,,,,,,,,,,,0,5,5,5,0,25,25,25,,,,,,,,,,,,,,f,18,A,B,2,0,Incorrect!,0.6563908999669366,433.9146937999758,None,433.9146937999758,None,434.63189800002147,None,,,,,8,001,2023-04-27_13h00.20.660,uncolored_sorted,2021.2.3,59.95293692814266,
C:\Users\subject\Desktop\SVRT Experiments\SVRT Experiment 3\svrt_images\generated_images\results_problem_18,,,,C:\Users\subject\Desktop\SVRT Experiments\SVRT Experiment 3\svrt_images\generated_images\results_problem_19\sample_1_0015.png,C:\Users\subject\Desktop\SVRT Experiments\SVRT Experiment 3\svrt_images\generated_images\results_problem_22\sample_0_0008.png,C:\Users\subject\Desktop\SVRT Experiments\SVRT Experiment 3\svrt_images\generated_images\results_problem_18\sample_0_0004.png,,,,,,,,,,,,,,,,,,0,5,5,5,0,26,26,26,,,,,,,,,,,,,,f,18,A,B,2,0,Incorrect!,1.6888621000107378,435.8661565000075,None,435.8661565000075,None,437.5841221999726,None,,,,,8,001,2023-04-27_13h00.20.660,uncolored_sorted,2021.2.3,59.95293692814266,
C:\Users\subject\Desktop\SVRT Experiments\SVRT Experiment 3\svrt_images\generated_images\results_problem_18,,,,C:\Users\subject\Desktop\SVRT Experiments\SVRT Experiment 3\svrt_images\generated_images\results_problem_19\sample_1_0015.png,C:\Users\subject\Desktop\SVRT Experiments\SVRT Experiment 3\svrt_images\generated_images\results_problem_22\sample_0_0008.png,C:\Users\subject\Desktop\SVRT Experiments\SVRT Experiment 3\svrt_images\generated_images\results_problem_18\sample_1_0006.png,,,,,,,,,,,,,,,,,,0,5,5,5,0,27,27,27,,,,,,,,,,,,,,f,18,A,A,2,1,Correct!,0.5912837000214495,438.8517555000144,None,438.8517555000144,None,439.4688827000209,None,,,,,8,001,2023-04-27_13h00.20.660,uncolored_sorted,2021.2.3,59.95293692814266,
C:\Users\subject\Desktop\SVRT Experiments\SVRT Experiment 3\svrt_images\generated_images\results_problem_18,,,,C:\Users\subject\Desktop\SVRT Experiments\SVRT Experiment 3\svrt_images\generated_images\results_problem_19\sample_1_0015.png,C:\Users\subject\Desktop\SVRT Experiments\SVRT Experiment 3\svrt_images\generated_images\results_problem_22\sample_0_0008.png,C:\Users\subject\Desktop\SVRT Experiments\SVRT Experiment 3\svrt_images\generated_images\results_problem_18\sample_1_0016.png,,,,,,,,,,,,,,,,,,0,5,5,5,0,28,28,28,,,,,,,,,,,,,,f,18,A,A,2,1,Correct!,0.6824779000016861,440.73651269997936,None,440.73651269997936,None,441.45368919998873,None,,,,,8,001,2023-04-27_13h00.20.660,uncolored_sorted,2021.2.3,59.95293692814266,
C:\Users\subject\Desktop\SVRT Experiments\SVRT Experiment 3\svrt_images\generated_images\results_problem_18,,,,C:\Users\subject\Desktop\SVRT Experiments\SVRT Experiment 3\svrt_images\generated_images\results_problem_19\sample_1_0015.png,C:\Users\subject\Desktop\SVRT Experiments\SVRT Experiment 3\svrt_images\generated_images\results_problem_22\sample_0_0008.png,C:\Users\subject\Desktop\SVRT Experiments\SVRT Experiment 3\svrt_images\generated_images\results_problem_18\sample_1_0005.png,,,,,,,,,,,,,,,,,,0,5,5,5,0,29,29,29,,,,,,,,,,,,,,j,18,B,A,2,0,Incorrect!,3.105669400014449,442.7213504000101,None,442.7213504000101,None,445.8904136000201,None,,,,,8,001,2023-04-27_13h00.20.660,uncolored_sorted,2021.2.3,59.95293692814266,
C:\Users\subject\Desktop\SVRT Experiments\SVRT Experiment 3\svrt_images\generated_images\results_problem_18,,,,C:\Users\subject\Desktop\SVRT Experiments\SVRT Experiment 3\svrt_images\generated_images\results_problem_19\sample_1_0015.png,C:\Users\subject\Desktop\SVRT Experiments\SVRT Experiment 3\svrt_images\generated_images\results_problem_22\sample_0_0008.png,C:\Users\subject\Desktop\SVRT Experiments\SVRT Experiment 3\svrt_images\generated_images\results_problem_18\sample_0_0013.png,,,,,,,,,,,,,,,,,,0,5,5,5,0,30,30,30,,,,,,,,,,,,,,f,18,A,B,2,0,Incorrect!,1.188286299991887,447.17471410002327,None,447.17471410002327,None,448.39225610002177,None,,,,,8,001,2023-04-27_13h00.20.660,uncolored_sorted,2021.2.3,59.95293692814266,
C:\Users\subject\Desktop\SVRT Experiments\SVRT Experiment 3\svrt_images\generated_images\results_problem_18,,,,C:\Users\subject\Desktop\SVRT Experiments\SVRT Experiment 3\svrt_images\generated_images\results_problem_19\sample_1_0015.png,C:\Users\subject\Desktop\SVRT Experiments\SVRT Experiment 3\svrt_images\generated_images\results_problem_22\sample_0_0008.png,C:\Users\subject\Desktop\SVRT Experiments\SVRT Experiment 3\svrt_images\generated_images\results_problem_18\sample_1_0015.png,,,,,,,,,,,,,,,,,,0,5,5,5,0,31,31,31,,,,,,,,,,,,,,f,18,A,A,2,1,Correct!,0.7256685000029393,449.69328369997675,None,449.69328369997675,None,450.44382159999805,None,,,,,8,001,2023-04-27_13h00.20.660,uncolored_sorted,2021.2.3,59.95293692814266,
C:\Users\subject\Desktop\SVRT Experiments\SVRT Experiment 3\svrt_images\generated_images\results_problem_18,,,,C:\Users\subject\Desktop\SVRT Experiments\SVRT Experiment 3\svrt_images\generated_images\results_problem_19\sample_1_0015.png,C:\Users\subject\Desktop\SVRT Experiments\SVRT Experiment 3\svrt_images\generated_images\results_problem_22\sample_0_0008.png,C:\Users\subject\Desktop\SVRT Experiments\SVRT Experiment 3\svrt_images\generated_images\results_problem_18\sample_0_0010.png,,,,,,,,,,,,,,,,,,0,5,5,5,0,32,32,32,,,,,,,,,,,,,,j,18,B,B,2,1,Correct!,0.8814672000007704,451.76151109999046,None,451.76151109999046,None,452.71222139999736,None,,,,,8,001,2023-04-27_13h00.20.660,uncolored_sorted,2021.2.3,59.95293692814266,
C:\Users\subject\Desktop\SVRT Experiments\SVRT Experiment 3\svrt_images\generated_images\results_problem_18,,,,C:\Users\subject\Desktop\SVRT Experiments\SVRT Experiment 3\svrt_images\generated_images\results_problem_19\sample_1_0015.png,C:\Users\subject\Desktop\SVRT Experiments\SVRT Experiment 3\svrt_images\generated_images\results_problem_22\sample_0_0008.png,C:\Users\subject\Desktop\SVRT Experiments\SVRT Experiment 3\svrt_images\generated_images\results_problem_18\sample_1_0004.png,,,,,,,,,,,,,,,,,,0,5,5,5,0,33,33,33,,,,,,,,,,,,,,f,18,A,A,2,1,Correct!,0.9090387999895029,454.0298929999699,None,454.0298929999699,None,454.98056609998457,None,,,,,8,001,2023-04-27_13h00.20.660,uncolored_sorted,2021.2.3,59.95293692814266,
C:\Users\subject\Desktop\SVRT Experiments\SVRT Experiment 3\svrt_images\generated_images\results_problem_18,,,,C:\Users\subject\Desktop\SVRT Experiments\SVRT Experiment 3\svrt_images\generated_images\results_problem_19\sample_1_0015.png,C:\Users\subject\Desktop\SVRT Experiments\SVRT Experiment 3\svrt_images\generated_images\results_problem_22\sample_0_0008.png,,,,,,,,,,,,,,,,,,,0,5,5,5,0,13,13,13,,,,,,,,,,,,,,,,,,,,,,,,,,,,455.9813537999871,455.9813537999871,space,0.8855779999867082,8,001,2023-04-27_13h00.20.660,uncolored_sorted,2021.2.3,59.95293692814266,
C:\Users\subject\Desktop\SVRT Experiments\SVRT Experiment 3\svrt_images\generated_images\results_problem_7,,,,C:\Users\subject\Desktop\SVRT Experiments\SVRT Experiment 3\svrt_images\generated_images\results_problem_19\sample_1_0015.png,C:\Users\subject\Desktop\SVRT Experiments\SVRT Experiment 3\svrt_images\generated_images\results_problem_22\sample_0_0008.png,,C:\Users\subject\Desktop\SVRT Experiments\SVRT Experiment 3\svrt_images\generated_images\results_problem_7\sample_0_0013.png,,,,,,,,,,,,,,,,,0,6,6,6,0,0,0,0,,,,,,,,,,,,,,j,7,B,B,2,1,Correct!,2.0402557000052184,456.8987133000046,None,456.8987133000046,None,458.9669442999875,None,,,,,8,001,2023-04-27_13h00.20.660,uncolored_sorted,2021.2.3,59.95293692814266,
C:\Users\subject\Desktop\SVRT Experiments\SVRT Experiment 3\svrt_images\generated_images\results_problem_7,,,,C:\Users\subject\Desktop\SVRT Experiments\SVRT Experiment 3\svrt_images\generated_images\results_problem_19\sample_1_0015.png,C:\Users\subject\Desktop\SVRT Experiments\SVRT Experiment 3\svrt_images\generated_images\results_problem_22\sample_0_0008.png,,C:\Users\subject\Desktop\SVRT Experiments\SVRT Experiment 3\svrt_images\generated_images\results_problem_7\sample_1_0005.png,,,,,,,,,,,,,,,,,0,6,6,6,0,1,1,1,,,,,,,,,,,,,,f,7,A,A,2,1,Correct!,0.7145482000196353,459.98434789996827,None,459.98434789996827,None,460.7182643999695,None,,,,,8,001,2023-04-27_13h00.20.660,uncolored_sorted,2021.2.3,59.95293692814266,
C:\Users\subject\Desktop\SVRT Experiments\SVRT Experiment 3\svrt_images\generated_images\results_problem_7,,,,C:\Users\subject\Desktop\SVRT Experiments\SVRT Experiment 3\svrt_images\generated_images\results_problem_19\sample_1_0015.png,C:\Users\subject\Desktop\SVRT Experiments\SVRT Experiment 3\svrt_images\generated_images\results_problem_22\sample_0_0008.png,,C:\Users\subject\Desktop\SVRT Experiments\SVRT Experiment 3\svrt_images\generated_images\results_problem_7\sample_1_0016.png,,,,,,,,,,,,,,,,,0,6,6,6,0,2,2,2,,,,,,,,,,,,,,j,7,B,A,2,0,Incorrect!,2.1872999999905005,461.73571009997977,None,461.73571009997977,None,463.95405080000637,None,,,,,8,001,2023-04-27_13h00.20.660,uncolored_sorted,2021.2.3,59.95293692814266,
C:\Users\subject\Desktop\SVRT Experiments\SVRT Experiment 3\svrt_images\generated_images\results_problem_7,,,,C:\Users\subject\Desktop\SVRT Experiments\SVRT Experiment 3\svrt_images\generated_images\results_problem_19\sample_1_0015.png,C:\Users\subject\Desktop\SVRT Experiments\SVRT Experiment 3\svrt_images\generated_images\results_problem_22\sample_0_0008.png,,C:\Users\subject\Desktop\SVRT Experiments\SVRT Experiment 3\svrt_images\generated_images\results_problem_7\sample_1_0015.png,,,,,,,,,,,,,,,,,0,6,6,6,0,3,3,3,,,,,,,,,,,,,,f,7,A,A,2,1,Correct!,0.6467505999607965,464.98816599999554,None,464.98816599999554,None,465.65534429997206,None,,,,,8,001,2023-04-27_13h00.20.660,uncolored_sorted,2021.2.3,59.95293692814266,
C:\Users\subject\Desktop\SVRT Experiments\SVRT Experiment 3\svrt_images\generated_images\results_problem_7,,,,C:\Users\subject\Desktop\SVRT Experiments\SVRT Experiment 3\svrt_images\generated_images\results_problem_19\sample_1_0015.png,C:\Users\subject\Desktop\SVRT Experiments\SVRT Experiment 3\svrt_images\generated_images\results_problem_22\sample_0_0008.png,,C:\Users\subject\Desktop\SVRT Experiments\SVRT Experiment 3\svrt_images\generated_images\results_problem_7\sample_0_0012.png,,,,,,,,,,,,,,,,,0,6,6,6,0,4,4,4,,,,,,,,,,,,,,j,7,B,B,2,1,Correct!,0.6894477999885567,466.689455499989,None,466.689455499989,None,467.40665060002357,None,,,,,8,001,2023-04-27_13h00.20.660,uncolored_sorted,2021.2.3,59.95293692814266,
C:\Users\subject\Desktop\SVRT Experiments\SVRT Experiment 3\svrt_images\generated_images\results_problem_7,,,,C:\Users\subject\Desktop\SVRT Experiments\SVRT Experiment 3\svrt_images\generated_images\results_problem_19\sample_1_0015.png,C:\Users\subject\Desktop\SVRT Experiments\SVRT Experiment 3\svrt_images\generated_images\results_problem_22\sample_0_0008.png,,C:\Users\subject\Desktop\SVRT Experiments\SVRT Experiment 3\svrt_images\generated_images\results_problem_7\sample_0_0003.png,,,,,,,,,,,,,,,,,0,6,6,6,0,5,5,5,,,,,,,,,,,,,,j,7,B,B,2,1,Correct!,1.121396700036712,468.45745420001913,None,468.45745420001913,None,469.6082925000228,None,,,,,8,001,2023-04-27_13h00.20.660,uncolored_sorted,2021.2.3,59.95293692814266,
C:\Users\subject\Desktop\SVRT Experiments\SVRT Experiment 3\svrt_images\generated_images\results_problem_7,,,,C:\Users\subject\Desktop\SVRT Experiments\SVRT Experiment 3\svrt_images\generated_images\results_problem_19\sample_1_0015.png,C:\Users\subject\Desktop\SVRT Experiments\SVRT Experiment 3\svrt_images\generated_images\results_problem_22\sample_0_0008.png,,C:\Users\subject\Desktop\SVRT Experiments\SVRT Experiment 3\svrt_images\generated_images\results_problem_7\sample_1_0013.png,,,,,,,,,,,,,,,,,0,6,6,6,0,6,6,6,,,,,,,,,,,,,,j,7,B,A,2,0,Incorrect!,1.6477489999961108,470.6591213999782,None,470.6591213999782,None,472.327039900003,None,,,,,8,001,2023-04-27_13h00.20.660,uncolored_sorted,2021.2.3,59.95293692814266,
C:\Users\subject\Desktop\SVRT Experiments\SVRT Experiment 3\svrt_images\generated_images\results_problem_7,,,,C:\Users\subject\Desktop\SVRT Experiments\SVRT Experiment 3\svrt_images\generated_images\results_problem_19\sample_1_0015.png,C:\Users\subject\Desktop\SVRT Experiments\SVRT Experiment 3\svrt_images\generated_images\results_problem_22\sample_0_0008.png,,C:\Users\subject\Desktop\SVRT Experiments\SVRT Experiment 3\svrt_images\generated_images\results_problem_7\sample_1_0006.png,,,,,,,,,,,,,,,,,0,6,6,6,0,7,7,7,,,,,,,,,,,,,,j,7,B,A,2,0,Incorrect!,0.7923451000242494,473.3945200999733,None,473.3945200999733,None,474.2117942000041,None,,,,,8,001,2023-04-27_13h00.20.660,uncolored_sorted,2021.2.3,59.95293692814266,
C:\Users\subject\Desktop\SVRT Experiments\SVRT Experiment 3\svrt_images\generated_images\results_problem_7,,,,C:\Users\subject\Desktop\SVRT Experiments\SVRT Experiment 3\svrt_images\generated_images\results_problem_19\sample_1_0015.png,C:\Users\subject\Desktop\SVRT Experiments\SVRT Experiment 3\svrt_images\generated_images\results_problem_22\sample_0_0008.png,,C:\Users\subject\Desktop\SVRT Experiments\SVRT Experiment 3\svrt_images\generated_images\results_problem_7\sample_0_0010.png,,,,,,,,,,,,,,,,,0,6,6,6,0,8,8,8,,,,,,,,,,,,,,f,7,A,B,2,0,Incorrect!,0.611679500027094,475.27927469997667,None,475.27927469997667,None,475.913083499996,None,,,,,8,001,2023-04-27_13h00.20.660,uncolored_sorted,2021.2.3,59.95293692814266,
C:\Users\subject\Desktop\SVRT Experiments\SVRT Experiment 3\svrt_images\generated_images\results_problem_7,,,,C:\Users\subject\Desktop\SVRT Experiments\SVRT Experiment 3\svrt_images\generated_images\results_problem_19\sample_1_0015.png,C:\Users\subject\Desktop\SVRT Experiments\SVRT Experiment 3\svrt_images\generated_images\results_problem_22\sample_0_0008.png,,C:\Users\subject\Desktop\SVRT Experiments\SVRT Experiment 3\svrt_images\generated_images\results_problem_7\sample_1_0012.png,,,,,,,,,,,,,,,,,0,6,6,6,0,9,9,9,,,,,,,,,,,,,,f,7,A,A,2,1,Correct!,0.7095735000330023,476.99723739997717,None,476.99723739997717,None,477.73110069998074,None,,,,,8,001,2023-04-27_13h00.20.660,uncolored_sorted,2021.2.3,59.95293692814266,
C:\Users\subject\Desktop\SVRT Experiments\SVRT Experiment 3\svrt_images\generated_images\results_problem_7,,,,C:\Users\subject\Desktop\SVRT Experiments\SVRT Experiment 3\svrt_images\generated_images\results_problem_19\sample_1_0015.png,C:\Users\subject\Desktop\SVRT Experiments\SVRT Experiment 3\svrt_images\generated_images\results_problem_22\sample_0_0008.png,,C:\Users\subject\Desktop\SVRT Experiments\SVRT Experiment 3\svrt_images\generated_images\results_problem_7\sample_0_0000.png,,,,,,,,,,,,,,,,,0,6,6,6,0,10,10,10,,,,,,,,,,,,,,j,7,B,B,2,1,Correct!,1.6675453999778256,478.81528009998146,None,478.81528009998146,None,480.49987960001454,None,,,,,8,001,2023-04-27_13h00.20.660,uncolored_sorted,2021.2.3,59.95293692814266,
C:\Users\subject\Desktop\SVRT Experiments\SVRT Experiment 3\svrt_images\generated_images\results_problem_7,,,,C:\Users\subject\Desktop\SVRT Experiments\SVRT Experiment 3\svrt_images\generated_images\results_problem_19\sample_1_0015.png,C:\Users\subject\Desktop\SVRT Experiments\SVRT Experiment 3\svrt_images\generated_images\results_problem_22\sample_0_0008.png,,C:\Users\subject\Desktop\SVRT Experiments\SVRT Experiment 3\svrt_images\generated_images\results_problem_7\sample_0_0004.png,,,,,,,,,,,,,,,,,0,6,6,6,0,11,11,11,,,,,,,,,,,,,,j,7,B,B,2,1,Correct!,1.0581323999795131,481.6007144000032,None,481.6007144000032,None,482.6848518999759,None,,,,,8,001,2023-04-27_13h00.20.660,uncolored_sorted,2021.2.3,59.95293692814266,
C:\Users\subject\Desktop\SVRT Experiments\SVRT Experiment 3\svrt_images\generated_images\results_problem_7,,,,C:\Users\subject\Desktop\SVRT Experiments\SVRT Experiment 3\svrt_images\generated_images\results_problem_19\sample_1_0015.png,C:\Users\subject\Desktop\SVRT Experiments\SVRT Experiment 3\svrt_images\generated_images\results_problem_22\sample_0_0008.png,,C:\Users\subject\Desktop\SVRT Experiments\SVRT Experiment 3\svrt_images\generated_images\results_problem_7\sample_1_0007.png,,,,,,,,,,,,,,,,,0,6,6,6,0,12,12,12,,,,,,,,,,,,,,f,7,A,A,2,1,Correct!,0.7684243000112474,483.8023815000197,None,483.8023815000197,None,484.6029785000137,None,,,,,8,001,2023-04-27_13h00.20.660,uncolored_sorted,2021.2.3,59.95293692814266,
C:\Users\subject\Desktop\SVRT Experiments\SVRT Experiment 3\svrt_images\generated_images\results_problem_7,,,,C:\Users\subject\Desktop\SVRT Experiments\SVRT Experiment 3\svrt_images\generated_images\results_problem_19\sample_1_0015.png,C:\Users\subject\Desktop\SVRT Experiments\SVRT Experiment 3\svrt_images\generated_images\results_problem_22\sample_0_0008.png,,C:\Users\subject\Desktop\SVRT Experiments\SVRT Experiment 3\svrt_images\generated_images\results_problem_7\sample_0_0009.png,,,,,,,,,,,,,,,,,0,6,6,6,0,13,13,13,,,,,,,,,,,,,,j,7,B,B,2,1,Correct!,0.9455880000023171,485.73717609996675,None,485.73717609996675,None,486.7045688999933,None,,,,,8,001,2023-04-27_13h00.20.660,uncolored_sorted,2021.2.3,59.95293692814266,
