folder,results_problem_18,results_problem_15,results_problem_11,results_problem_8,results_problem_21,results_problem_19,results_problem_3,results_problem_17,results_problem_23,results_problem_12,results_problem_13,results_problem_1,results_problem_20,results_problem_7,results_problem_9,results_problem_16,results_problem_2,results_problem_5,results_problem_22,results_problem_6,results_problem_10,results_problem_14,results_problem_4,categories.thisRepN,categories.thisTrialN,categories.thisN,categories.thisIndex,trials.thisRepN,trials.thisTrialN,trials.thisN,trials.thisIndex,consent_text.started,consent_kb.started,consent_kb.keys,consent_kb.rt,Gender.keys,Gender.rt,Age,instructions_text.started,instructions_text.stopped,instructions_kb.keys,instructions_kb.rt,instructions_kb.started,instructions_kb.stopped,trial_kb.keys,current_problem_num,category_resp,answer,seed,accuracy,feedback,trial_kb.rt,trial_kb.started,trial_kb.stopped,trial_image.started,trial_image.stopped,feedback_text.started,feedback_text.stopped,new_problem_kb.started,new_problem_text.started,new_problem_kb.keys,new_problem_kb.rt,Participant #,session,date,expName,psychopyVersion,frameRate,
,,,,,,,,,,,,,,,,,,,,,,,,,,,,,,,,14.022259700112045,14.022259700112045,y,73.74102280009538,,,,,,,,,,,,,,,,,,,,,,,,,,,,92,001,2023-05-31_15h31.26.891,uncolored_sorted,2021.2.3,60.00790900482843,
,,,,,,,,,,,,,,,,,,,,,,,,,,,,,,,,,,,,n,8.134956799913198,,,,,,,,,,,,,,,,,,,,,,,,,,92,001,2023-05-31_15h31.26.891,uncolored_sorted,2021.2.3,60.00790900482843,
,,,,,,,,,,,,,,,,,,,,,,,,,,,,,,,,,,,,,,20,101.81383050000295,None,space,51.71731019997969,101.81383050000295,None,,,,,,,,,,,,,,,,,,,92,001,2023-05-31_15h31.26.891,uncolored_sorted,2021.2.3,60.00790900482843,
C:\Users\subject\Desktop\SVRT Experiments\SVRT Experiment 3\svrt_images\generated_images\results_problem_18,C:\Users\subject\Desktop\SVRT Experiments\SVRT Experiment 3\svrt_images\generated_images\results_problem_18\sample_0_0009.png,,,,,,,,,,,,,,,,,,,,,,,0,0,0,0,0,0,0,0,,,,,,,,,,,,,,f,18,A,B,23,0,Incorrect!,7.4864548000041395,153.5807543999981,None,153.5807543999981,None,161.113961199997,None,,,,,92,001,2023-05-31_15h31.26.891,uncolored_sorted,2021.2.3,60.00790900482843,
C:\Users\subject\Desktop\SVRT Experiments\SVRT Experiment 3\svrt_images\generated_images\results_problem_18,C:\Users\subject\Desktop\SVRT Experiments\SVRT Experiment 3\svrt_images\generated_images\results_problem_18\sample_1_0000.png,,,,,,,,,,,,,,,,,,,,,,,0,0,0,0,0,1,1,1,,,,,,,,,,,,,,j,18,B,A,23,0,Incorrect!,3.048775300150737,162.13058460014872,None,162.13058460014872,None,165.19718740019016,None,,,,,92,001,2023-05-31_15h31.26.891,uncolored_sorted,2021.2.3,60.00790900482843,
C:\Users\subject\Desktop\SVRT Experiments\SVRT Experiment 3\svrt_images\generated_images\results_problem_18,C:\Users\subject\Desktop\SVRT Experiments\SVRT Experiment 3\svrt_images\generated_images\results_problem_18\sample_1_0009.png,,,,,,,,,,,,,,,,,,,,,,,0,0,0,0,0,2,2,2,,,,,,,,,,,,,,f,18,A,A,23,1,Correct!,2.7415318000130355,166.21380330016837,None,166.21380330016837,None,168.9804411001969,None,,,,,92,001,2023-05-31_15h31.26.891,uncolored_sorted,2021.2.3,60.00790900482843,
C:\Users\subject\Desktop\SVRT Experiments\SVRT Experiment 3\svrt_images\generated_images\results_problem_18,C:\Users\subject\Desktop\SVRT Experiments\SVRT Experiment 3\svrt_images\generated_images\results_problem_18\sample_0_0006.png,,,,,,,,,,,,,,,,,,,,,,,0,0,0,0,0,3,3,3,,,,,,,,,,,,,,j,18,B,B,23,1,Correct!,2.4455806999467313,170.0137555000838,None,170.0137555000838,None,172.4803340001963,None,,,,,92,001,2023-05-31_15h31.26.891,uncolored_sorted,2021.2.3,60.00790900482843,
C:\Users\subject\Desktop\SVRT Experiments\SVRT Experiment 3\svrt_images\generated_images\results_problem_18,C:\Users\subject\Desktop\SVRT Experiments\SVRT Experiment 3\svrt_images\generated_images\results_problem_18\sample_0_0013.png,,,,,,,,,,,,,,,,,,,,,,,0,0,0,0,0,4,4,4,,,,,,,,,,,,,,j,18,B,B,23,1,Correct!,1.456901399884373,173.53032750007696,None,173.53032750007696,None,175.01361869997345,None,,,,,92,001,2023-05-31_15h31.26.891,uncolored_sorted,2021.2.3,60.00790900482843,
C:\Users\subject\Desktop\SVRT Experiments\SVRT Experiment 3\svrt_images\generated_images\results_problem_18,C:\Users\subject\Desktop\SVRT Experiments\SVRT Experiment 3\svrt_images\generated_images\results_problem_18\sample_1_0012.png,,,,,,,,,,,,,,,,,,,,,,,0,0,0,0,0,5,5,5,,,,,,,,,,,,,,f,18,A,A,23,1,Correct!,0.8997763998340815,176.0636216001585,None,176.0636216001585,None,176.98024160019122,None,,,,,92,001,2023-05-31_15h31.26.891,uncolored_sorted,2021.2.3,60.00790900482843,
C:\Users\subject\Desktop\SVRT Experiments\SVRT Experiment 3\svrt_images\generated_images\results_problem_18,C:\Users\subject\Desktop\SVRT Experiments\SVRT Experiment 3\svrt_images\generated_images\results_problem_18\sample_0_0000.png,,,,,,,,,,,,,,,,,,,,,,,0,0,0,0,0,6,6,6,,,,,,,,,,,,,,j,18,B,B,23,1,Correct!,1.228382600005716,178.04687510011718,None,178.04687510011718,None,179.29690259997733,None,,,,,92,001,2023-05-31_15h31.26.891,uncolored_sorted,2021.2.3,60.00790900482843,
C:\Users\subject\Desktop\SVRT Experiments\SVRT Experiment 3\svrt_images\generated_images\results_problem_18,C:\Users\subject\Desktop\SVRT Experiments\SVRT Experiment 3\svrt_images\generated_images\results_problem_18\sample_0_0001.png,,,,,,,,,,,,,,,,,,,,,,,0,0,0,0,0,7,7,7,,,,,,,,,,,,,,f,18,A,B,23,0,Incorrect!,0.9597895999904722,180.36351270019077,None,180.36351270019077,None,181.3468628001865,None,,,,,92,001,2023-05-31_15h31.26.891,uncolored_sorted,2021.2.3,60.00790900482843,
C:\Users\subject\Desktop\SVRT Experiments\SVRT Experiment 3\svrt_images\generated_images\results_problem_18,C:\Users\subject\Desktop\SVRT Experiments\SVRT Experiment 3\svrt_images\generated_images\results_problem_18\sample_1_0014.png,,,,,,,,,,,,,,,,,,,,,,,0,0,0,0,0,8,8,8,,,,,,,,,,,,,,f,18,A,A,23,1,Correct!,0.701230000006035,182.4301167000085,None,182.4301167000085,None,183.1634649001062,None,,,,,92,001,2023-05-31_15h31.26.891,uncolored_sorted,2021.2.3,60.00790900482843,
C:\Users\subject\Desktop\SVRT Experiments\SVRT Experiment 3\svrt_images\generated_images\results_problem_18,C:\Users\subject\Desktop\SVRT Experiments\SVRT Experiment 3\svrt_images\generated_images\results_problem_18\sample_0_0002.png,,,,,,,,,,,,,,,,,,,,,,,0,0,0,0,0,9,9,9,,,,,,,,,,,,,,j,18,B,B,23,1,Correct!,0.7798756998963654,184.26341710006818,None,184.26341710006818,None,185.06340470002033,None,,,,,92,001,2023-05-31_15h31.26.891,uncolored_sorted,2021.2.3,60.00790900482843,
C:\Users\subject\Desktop\SVRT Experiments\SVRT Experiment 3\svrt_images\generated_images\results_problem_18,C:\Users\subject\Desktop\SVRT Experiments\SVRT Experiment 3\svrt_images\generated_images\results_problem_18\sample_1_0004.png,,,,,,,,,,,,,,,,,,,,,,,0,0,0,0,0,10,10,10,,,,,,,,,,,,,,j,18,B,A,23,0,Incorrect!,0.6079966998659074,186.1633350001648,None,186.1633350001648,None,186.79668210004456,None,,,,,92,001,2023-05-31_15h31.26.891,uncolored_sorted,2021.2.3,60.00790900482843,
C:\Users\subject\Desktop\SVRT Experiments\SVRT Experiment 3\svrt_images\generated_images\results_problem_18,C:\Users\subject\Desktop\SVRT Experiments\SVRT Experiment 3\svrt_images\generated_images\results_problem_18\sample_0_0016.png,,,,,,,,,,,,,,,,,,,,,,,0,0,0,0,0,11,11,11,,,,,,,,,,,,,,j,18,B,B,23,1,Correct!,1.1379889000672847,187.91334570012987,None,187.91334570012987,None,189.0966444001533,None,,,,,92,001,2023-05-31_15h31.26.891,uncolored_sorted,2021.2.3,60.00790900482843,
C:\Users\subject\Desktop\SVRT Experiments\SVRT Experiment 3\svrt_images\generated_images\results_problem_18,C:\Users\subject\Desktop\SVRT Experiments\SVRT Experiment 3\svrt_images\generated_images\results_problem_18\sample_1_0005.png,,,,,,,,,,,,,,,,,,,,,,,0,0,0,0,0,12,12,12,,,,,,,,,,,,,,f,18,A,A,23,1,Correct!,0.6620306000113487,190.21329029998742,None,190.21329029998742,None,190.8966024001129,None,,,,,92,001,2023-05-31_15h31.26.891,uncolored_sorted,2021.2.3,60.00790900482843,
C:\Users\subject\Desktop\SVRT Experiments\SVRT Experiment 3\svrt_images\generated_images\results_problem_18,C:\Users\subject\Desktop\SVRT Experiments\SVRT Experiment 3\svrt_images\generated_images\results_problem_18\sample_0_0010.png,,,,,,,,,,,,,,,,,,,,,,,0,0,0,0,0,13,13,13,,,,,,,,,,,,,,j,18,B,B,23,1,Correct!,0.6214358999859542,192.02989500015974,None,192.02989500015974,None,192.679870699998,None,,,,,92,001,2023-05-31_15h31.26.891,uncolored_sorted,2021.2.3,60.00790900482843,
C:\Users\subject\Desktop\SVRT Experiments\SVRT Experiment 3\svrt_images\generated_images\results_problem_18,C:\Users\subject\Desktop\SVRT Experiments\SVRT Experiment 3\svrt_images\generated_images\results_problem_18\sample_1_0002.png,,,,,,,,,,,,,,,,,,,,,,,0,0,0,0,0,14,14,14,,,,,,,,,,,,,,f,18,A,A,23,1,Correct!,0.6534829000011086,193.82984210015275,None,193.82984210015275,None,194.51319149998017,None,,,,,92,001,2023-05-31_15h31.26.891,uncolored_sorted,2021.2.3,60.00790900482843,
C:\Users\subject\Desktop\SVRT Experiments\SVRT Experiment 3\svrt_images\generated_images\results_problem_18,C:\Users\subject\Desktop\SVRT Experiments\SVRT Experiment 3\svrt_images\generated_images\results_problem_18\sample_0_0015.png,,,,,,,,,,,,,,,,,,,,,,,0,0,0,0,0,15,15,15,,,,,,,,,,,,,,j,18,B,B,23,1,Correct!,0.635487399995327,195.6798382999841,None,195.6798382999841,None,196.36314820009284,None,,,,,92,001,2023-05-31_15h31.26.891,uncolored_sorted,2021.2.3,60.00790900482843,
C:\Users\subject\Desktop\SVRT Experiments\SVRT Experiment 3\svrt_images\generated_images\results_problem_18,C:\Users\subject\Desktop\SVRT Experiments\SVRT Experiment 3\svrt_images\generated_images\results_problem_18\sample_0_0011.png,,,,,,,,,,,,,,,,,,,,,,,0,0,0,0,0,16,16,16,,,,,,,,,,,,,,j,18,B,B,23,1,Correct!,0.5927321999333799,197.54648400004953,None,197.54648400004953,None,198.16309160017408,None,,,,,92,001,2023-05-31_15h31.26.891,uncolored_sorted,2021.2.3,60.00790900482843,
C:\Users\subject\Desktop\SVRT Experiments\SVRT Experiment 3\svrt_images\generated_images\results_problem_18,C:\Users\subject\Desktop\SVRT Experiments\SVRT Experiment 3\svrt_images\generated_images\results_problem_18\sample_0_0005.png,,,,,,,,,,,,,,,,,,,,,,,0,0,0,0,0,17,17,17,,,,,,,,,,,,,,j,18,B,B,23,1,Correct!,0.6643564000260085,199.36309120012447,None,199.36309120012447,None,200.04640120011754,None,,,,,92,001,2023-05-31_15h31.26.891,uncolored_sorted,2021.2.3,60.00790900482843,
C:\Users\subject\Desktop\SVRT Experiments\SVRT Experiment 3\svrt_images\generated_images\results_problem_18,C:\Users\subject\Desktop\SVRT Experiments\SVRT Experiment 3\svrt_images\generated_images\results_problem_18\sample_0_0004.png,,,,,,,,,,,,,,,,,,,,,,,0,0,0,0,0,18,18,18,,,,,,,,,,,,,,,,,,,,,,,,,,,,201.04639729997143,201.04639729997143,space,1.4207421999890357,92,001,2023-05-31_15h31.26.891,uncolored_sorted,2021.2.3,60.00790900482843,
C:\Users\subject\Desktop\SVRT Experiments\SVRT Experiment 3\svrt_images\generated_images\results_problem_15,C:\Users\subject\Desktop\SVRT Experiments\SVRT Experiment 3\svrt_images\generated_images\results_problem_18\sample_0_0004.png,C:\Users\subject\Desktop\SVRT Experiments\SVRT Experiment 3\svrt_images\generated_images\results_problem_15\sample_1_0008.png,,,,,,,,,,,,,,,,,,,,,,0,1,1,1,0,0,0,0,,,,,,,,,,,,,,f,15,A,A,23,1,Correct!,2.0512393000535667,202.49636110011488,None,202.49636110011488,None,204.57965770014562,None,,,,,92,001,2023-05-31_15h31.26.891,uncolored_sorted,2021.2.3,60.00790900482843,
C:\Users\subject\Desktop\SVRT Experiments\SVRT Experiment 3\svrt_images\generated_images\results_problem_15,C:\Users\subject\Desktop\SVRT Experiments\SVRT Experiment 3\svrt_images\generated_images\results_problem_18\sample_0_0004.png,C:\Users\subject\Desktop\SVRT Experiments\SVRT Experiment 3\svrt_images\generated_images\results_problem_15\sample_0_0012.png,,,,,,,,,,,,,,,,,,,,,,0,1,1,1,0,1,1,1,,,,,,,,,,,,,,j,15,B,B,23,1,Correct!,1.5749627999030054,205.59628210007213,None,205.59628210007213,None,207.19635260012,None,,,,,92,001,2023-05-31_15h31.26.891,uncolored_sorted,2021.2.3,60.00790900482843,
C:\Users\subject\Desktop\SVRT Experiments\SVRT Experiment 3\svrt_images\generated_images\results_problem_15,C:\Users\subject\Desktop\SVRT Experiments\SVRT Experiment 3\svrt_images\generated_images\results_problem_18\sample_0_0004.png,C:\Users\subject\Desktop\SVRT Experiments\SVRT Experiment 3\svrt_images\generated_images\results_problem_15\sample_0_0010.png,,,,,,,,,,,,,,,,,,,,,,0,1,1,1,0,2,2,2,,,,,,,,,,,,,,f,15,A,B,23,0,Incorrect!,1.3424939999822527,208.21283570001833,None,208.21283570001833,None,209.57950350013562,None,,,,,92,001,2023-05-31_15h31.26.891,uncolored_sorted,2021.2.3,60.00790900482843,
C:\Users\subject\Desktop\SVRT Experiments\SVRT Experiment 3\svrt_images\generated_images\results_problem_15,C:\Users\subject\Desktop\SVRT Experiments\SVRT Experiment 3\svrt_images\generated_images\results_problem_18\sample_0_0004.png,C:\Users\subject\Desktop\SVRT Experiments\SVRT Experiment 3\svrt_images\generated_images\results_problem_15\sample_1_0009.png,,,,,,,,,,,,,,,,,,,,,,0,1,1,1,0,3,3,3,,,,,,,,,,,,,,j,15,B,A,23,0,Incorrect!,1.742557300021872,210.61285070003942,None,210.61285070003942,None,212.37946860003285,None,,,,,92,001,2023-05-31_15h31.26.891,uncolored_sorted,2021.2.3,60.00790900482843,
C:\Users\subject\Desktop\SVRT Experiments\SVRT Experiment 3\svrt_images\generated_images\results_problem_15,C:\Users\subject\Desktop\SVRT Experiments\SVRT Experiment 3\svrt_images\generated_images\results_problem_18\sample_0_0004.png,C:\Users\subject\Desktop\SVRT Experiments\SVRT Experiment 3\svrt_images\generated_images\results_problem_15\sample_0_0004.png,,,,,,,,,,,,,,,,,,,,,,0,1,1,1,0,4,4,4,,,,,,,,,,,,,,f,15,A,B,23,0,Incorrect!,2.901868599932641,213.4294479000382,None,213.4294479000382,None,216.36269860016182,None,,,,,92,001,2023-05-31_15h31.26.891,uncolored_sorted,2021.2.3,60.00790900482843,
C:\Users\subject\Desktop\SVRT Experiments\SVRT Experiment 3\svrt_images\generated_images\results_problem_15,C:\Users\subject\Desktop\SVRT Experiments\SVRT Experiment 3\svrt_images\generated_images\results_problem_18\sample_0_0004.png,C:\Users\subject\Desktop\SVRT Experiments\SVRT Experiment 3\svrt_images\generated_images\results_problem_15\sample_0_0001.png,,,,,,,,,,,,,,,,,,,,,,0,1,1,1,0,5,5,5,,,,,,,,,,,,,,j,15,B,B,23,1,Correct!,2.9266071999445558,217.41269390005618,None,217.41269390005618,None,220.36262480006553,None,,,,,92,001,2023-05-31_15h31.26.891,uncolored_sorted,2021.2.3,60.00790900482843,
C:\Users\subject\Desktop\SVRT Experiments\SVRT Experiment 3\svrt_images\generated_images\results_problem_15,C:\Users\subject\Desktop\SVRT Experiments\SVRT Experiment 3\svrt_images\generated_images\results_problem_18\sample_0_0004.png,C:\Users\subject\Desktop\SVRT Experiments\SVRT Experiment 3\svrt_images\generated_images\results_problem_15\sample_1_0015.png,,,,,,,,,,,,,,,,,,,,,,0,1,1,1,0,6,6,6,,,,,,,,,,,,,,f,15,A,A,23,1,Correct!,1.5339876001235098,221.42929310002364,None,221.42929310002364,None,222.99594409996644,None,,,,,92,001,2023-05-31_15h31.26.891,uncolored_sorted,2021.2.3,60.00790900482843,
C:\Users\subject\Desktop\SVRT Experiments\SVRT Experiment 3\svrt_images\generated_images\results_problem_15,C:\Users\subject\Desktop\SVRT Experiments\SVRT Experiment 3\svrt_images\generated_images\results_problem_18\sample_0_0004.png,C:\Users\subject\Desktop\SVRT Experiments\SVRT Experiment 3\svrt_images\generated_images\results_problem_15\sample_1_0001.png,,,,,,,,,,,,,,,,,,,,,,0,1,1,1,0,7,7,7,,,,,,,,,,,,,,j,15,B,A,23,0,Incorrect!,2.316067700041458,224.07921980018727,None,224.07921980018727,None,226.41249200003222,None,,,,,92,001,2023-05-31_15h31.26.891,uncolored_sorted,2021.2.3,60.00790900482843,
C:\Users\subject\Desktop\SVRT Experiments\SVRT Experiment 3\svrt_images\generated_images\results_problem_15,C:\Users\subject\Desktop\SVRT Experiments\SVRT Experiment 3\svrt_images\generated_images\results_problem_18\sample_0_0004.png,C:\Users\subject\Desktop\SVRT Experiments\SVRT Experiment 3\svrt_images\generated_images\results_problem_15\sample_1_0014.png,,,,,,,,,,,,,,,,,,,,,,0,1,1,1,0,8,8,8,,,,,,,,,,,,,,j,15,B,A,23,0,Incorrect!,5.739371699979529,227.49585020006634,None,227.49585020006634,None,233.26233090017922,None,,,,,92,001,2023-05-31_15h31.26.891,uncolored_sorted,2021.2.3,60.00790900482843,
C:\Users\subject\Desktop\SVRT Experiments\SVRT Experiment 3\svrt_images\generated_images\results_problem_15,C:\Users\subject\Desktop\SVRT Experiments\SVRT Experiment 3\svrt_images\generated_images\results_problem_18\sample_0_0004.png,C:\Users\subject\Desktop\SVRT Experiments\SVRT Experiment 3\svrt_images\generated_images\results_problem_15\sample_1_0016.png,,,,,,,,,,,,,,,,,,,,,,0,1,1,1,0,9,9,9,,,,,,,,,,,,,,f,15,A,A,23,1,Correct!,1.4328435000497848,234.3623299000319,None,234.3623299000319,None,235.8123331000097,None,,,,,92,001,2023-05-31_15h31.26.891,uncolored_sorted,2021.2.3,60.00790900482843,
C:\Users\subject\Desktop\SVRT Experiments\SVRT Experiment 3\svrt_images\generated_images\results_problem_15,C:\Users\subject\Desktop\SVRT Experiments\SVRT Experiment 3\svrt_images\generated_images\results_problem_18\sample_0_0004.png,C:\Users\subject\Desktop\SVRT Experiments\SVRT Experiment 3\svrt_images\generated_images\results_problem_15\sample_1_0006.png,,,,,,,,,,,,,,,,,,,,,,0,1,1,1,0,10,10,10,,,,,,,,,,,,,,j,15,B,A,23,0,Incorrect!,1.2422374999150634,236.92893399996683,None,236.92893399996683,None,238.19559160014614,None,,,,,92,001,2023-05-31_15h31.26.891,uncolored_sorted,2021.2.3,60.00790900482843,
C:\Users\subject\Desktop\SVRT Experiments\SVRT Experiment 3\svrt_images\generated_images\results_problem_15,C:\Users\subject\Desktop\SVRT Experiments\SVRT Experiment 3\svrt_images\generated_images\results_problem_18\sample_0_0004.png,C:\Users\subject\Desktop\SVRT Experiments\SVRT Experiment 3\svrt_images\generated_images\results_problem_15\sample_1_0004.png,,,,,,,,,,,,,,,,,,,,,,0,1,1,1,0,11,11,11,,,,,,,,,,,,,,f,15,A,A,23,1,Correct!,3.6909763999283314,239.31221980019473,None,239.31221980019473,None,243.02879890007898,None,,,,,92,001,2023-05-31_15h31.26.891,uncolored_sorted,2021.2.3,60.00790900482843,
C:\Users\subject\Desktop\SVRT Experiments\SVRT Experiment 3\svrt_images\generated_images\results_problem_15,C:\Users\subject\Desktop\SVRT Experiments\SVRT Experiment 3\svrt_images\generated_images\results_problem_18\sample_0_0004.png,C:\Users\subject\Desktop\SVRT Experiments\SVRT Experiment 3\svrt_images\generated_images\results_problem_15\sample_1_0013.png,,,,,,,,,,,,,,,,,,,,,,0,1,1,1,0,12,12,12,,,,,,,,,,,,,,f,15,A,A,23,1,Correct!,1.097137999953702,244.1621195001062,None,244.1621195001062,None,245.27880130009726,None,,,,,92,001,2023-05-31_15h31.26.891,uncolored_sorted,2021.2.3,60.00790900482843,
C:\Users\subject\Desktop\SVRT Experiments\SVRT Experiment 3\svrt_images\generated_images\results_problem_15,C:\Users\subject\Desktop\SVRT Experiments\SVRT Experiment 3\svrt_images\generated_images\results_problem_18\sample_0_0004.png,C:\Users\subject\Desktop\SVRT Experiments\SVRT Experiment 3\svrt_images\generated_images\results_problem_15\sample_0_0003.png,,,,,,,,,,,,,,,,,,,,,,0,1,1,1,0,13,13,13,,,,,,,,,,,,,,j,15,B,B,23,1,Correct!,2.7824731001164764,246.4287403000053,None,246.4287403000053,None,249.24533480009995,None,,,,,92,001,2023-05-31_15h31.26.891,uncolored_sorted,2021.2.3,60.00790900482843,
C:\Users\subject\Desktop\SVRT Experiments\SVRT Experiment 3\svrt_images\generated_images\results_problem_15,C:\Users\subject\Desktop\SVRT Experiments\SVRT Experiment 3\svrt_images\generated_images\results_problem_18\sample_0_0004.png,C:\Users\subject\Desktop\SVRT Experiments\SVRT Experiment 3\svrt_images\generated_images\results_problem_15\sample_0_0002.png,,,,,,,,,,,,,,,,,,,,,,0,1,1,1,0,14,14,14,,,,,,,,,,,,,,j,15,B,B,23,1,Correct!,2.5594464000314474,250.4119894001633,None,250.4119894001633,None,252.9952569999732,None,,,,,92,001,2023-05-31_15h31.26.891,uncolored_sorted,2021.2.3,60.00790900482843,
C:\Users\subject\Desktop\SVRT Experiments\SVRT Experiment 3\svrt_images\generated_images\results_problem_15,C:\Users\subject\Desktop\SVRT Experiments\SVRT Experiment 3\svrt_images\generated_images\results_problem_18\sample_0_0004.png,C:\Users\subject\Desktop\SVRT Experiments\SVRT Experiment 3\svrt_images\generated_images\results_problem_15\sample_1_0005.png,,,,,,,,,,,,,,,,,,,,,,0,1,1,1,0,15,15,15,,,,,,,,,,,,,,j,15,B,A,23,0,Incorrect!,2.2734013001900166,254.16189040010795,None,254.16189040010795,None,256.4785172000993,None,,,,,92,001,2023-05-31_15h31.26.891,uncolored_sorted,2021.2.3,60.00790900482843,
C:\Users\subject\Desktop\SVRT Experiments\SVRT Experiment 3\svrt_images\generated_images\results_problem_15,C:\Users\subject\Desktop\SVRT Experiments\SVRT Experiment 3\svrt_images\generated_images\results_problem_18\sample_0_0004.png,C:\Users\subject\Desktop\SVRT Experiments\SVRT Experiment 3\svrt_images\generated_images\results_problem_15\sample_0_0008.png,,,,,,,,,,,,,,,,,,,,,,0,1,1,1,0,16,16,16,,,,,,,,,,,,,,f,15,A,B,23,0,Incorrect!,2.8694027999881655,257.66184640000574,None,257.66184640000574,None,260.57844700012356,None,,,,,92,001,2023-05-31_15h31.26.891,uncolored_sorted,2021.2.3,60.00790900482843,
C:\Users\subject\Desktop\SVRT Experiments\SVRT Experiment 3\svrt_images\generated_images\results_problem_15,C:\Users\subject\Desktop\SVRT Experiments\SVRT Experiment 3\svrt_images\generated_images\results_problem_18\sample_0_0004.png,C:\Users\subject\Desktop\SVRT Experiments\SVRT Experiment 3\svrt_images\generated_images\results_problem_15\sample_0_0013.png,,,,,,,,,,,,,,,,,,,,,,0,1,1,1,0,17,17,17,,,,,,,,,,,,,,j,15,B,B,23,1,Correct!,1.6809892000164837,261.77841590018943,None,261.77841590018943,None,263.5117162000388,None,,,,,92,001,2023-05-31_15h31.26.891,uncolored_sorted,2021.2.3,60.00790900482843,
C:\Users\subject\Desktop\SVRT Experiments\SVRT Experiment 3\svrt_images\generated_images\results_problem_15,C:\Users\subject\Desktop\SVRT Experiments\SVRT Experiment 3\svrt_images\generated_images\results_problem_18\sample_0_0004.png,C:\Users\subject\Desktop\SVRT Experiments\SVRT Experiment 3\svrt_images\generated_images\results_problem_15\sample_1_0007.png,,,,,,,,,,,,,,,,,,,,,,0,1,1,1,0,18,18,18,,,,,,,,,,,,,,j,15,B,A,23,0,Incorrect!,1.1636183999944478,264.71167300012894,None,264.71167300012894,None,265.92831960017793,None,,,,,92,001,2023-05-31_15h31.26.891,uncolored_sorted,2021.2.3,60.00790900482843,
C:\Users\subject\Desktop\SVRT Experiments\SVRT Experiment 3\svrt_images\generated_images\results_problem_15,C:\Users\subject\Desktop\SVRT Experiments\SVRT Experiment 3\svrt_images\generated_images\results_problem_18\sample_0_0004.png,C:\Users\subject\Desktop\SVRT Experiments\SVRT Experiment 3\svrt_images\generated_images\results_problem_15\sample_0_0000.png,,,,,,,,,,,,,,,,,,,,,,0,1,1,1,0,19,19,19,,,,,,,,,,,,,,f,15,A,B,23,0,Incorrect!,8.106303199892864,267.14498049998656,None,267.14498049998656,None,275.3114571000915,None,,,,,92,001,2023-05-31_15h31.26.891,uncolored_sorted,2021.2.3,60.00790900482843,
C:\Users\subject\Desktop\SVRT Experiments\SVRT Experiment 3\svrt_images\generated_images\results_problem_15,C:\Users\subject\Desktop\SVRT Experiments\SVRT Experiment 3\svrt_images\generated_images\results_problem_18\sample_0_0004.png,C:\Users\subject\Desktop\SVRT Experiments\SVRT Experiment 3\svrt_images\generated_images\results_problem_15\sample_1_0003.png,,,,,,,,,,,,,,,,,,,,,,0,1,1,1,0,20,20,20,,,,,,,,,,,,,,f,15,A,A,23,1,Correct!,5.154666499933228,276.5447631001007,None,276.5447631001007,None,281.7613170000259,None,,,,,92,001,2023-05-31_15h31.26.891,uncolored_sorted,2021.2.3,60.00790900482843,
C:\Users\subject\Desktop\SVRT Experiments\SVRT Experiment 3\svrt_images\generated_images\results_problem_15,C:\Users\subject\Desktop\SVRT Experiments\SVRT Experiment 3\svrt_images\generated_images\results_problem_18\sample_0_0004.png,C:\Users\subject\Desktop\SVRT Experiments\SVRT Experiment 3\svrt_images\generated_images\results_problem_15\sample_0_0006.png,,,,,,,,,,,,,,,,,,,,,,0,1,1,1,0,21,21,21,,,,,,,,,,,,,,j,15,B,B,23,1,Correct!,7.407292899908498,283.02794880000874,None,283.02794880000874,None,290.4777949000709,None,,,,,92,001,2023-05-31_15h31.26.891,uncolored_sorted,2021.2.3,60.00790900482843,
C:\Users\subject\Desktop\SVRT Experiments\SVRT Experiment 3\svrt_images\generated_images\results_problem_15,C:\Users\subject\Desktop\SVRT Experiments\SVRT Experiment 3\svrt_images\generated_images\results_problem_18\sample_0_0004.png,C:\Users\subject\Desktop\SVRT Experiments\SVRT Experiment 3\svrt_images\generated_images\results_problem_15\sample_0_0016.png,,,,,,,,,,,,,,,,,,,,,,0,1,1,1,0,22,22,22,,,,,,,,,,,,,,j,15,B,B,23,1,Correct!,1.0028774999082088,291.7444647999946,None,291.7444647999946,None,292.81110529997386,None,,,,,92,001,2023-05-31_15h31.26.891,uncolored_sorted,2021.2.3,60.00790900482843,
C:\Users\subject\Desktop\SVRT Experiments\SVRT Experiment 3\svrt_images\generated_images\results_problem_15,C:\Users\subject\Desktop\SVRT Experiments\SVRT Experiment 3\svrt_images\generated_images\results_problem_18\sample_0_0004.png,C:\Users\subject\Desktop\SVRT Experiments\SVRT Experiment 3\svrt_images\generated_images\results_problem_15\sample_0_0014.png,,,,,,,,,,,,,,,,,,,,,,0,1,1,1,0,23,23,23,,,,,,,,,,,,,,j,15,B,B,23,1,Correct!,0.9167637000791728,294.0945150000043,None,294.0945150000043,None,295.04437980009243,None,,,,,92,001,2023-05-31_15h31.26.891,uncolored_sorted,2021.2.3,60.00790900482843,
C:\Users\subject\Desktop\SVRT Experiments\SVRT Experiment 3\svrt_images\generated_images\results_problem_15,C:\Users\subject\Desktop\SVRT Experiments\SVRT Experiment 3\svrt_images\generated_images\results_problem_18\sample_0_0004.png,C:\Users\subject\Desktop\SVRT Experiments\SVRT Experiment 3\svrt_images\generated_images\results_problem_15\sample_1_0002.png,,,,,,,,,,,,,,,,,,,,,,0,1,1,1,0,24,24,24,,,,,,,,,,,,,,f,15,A,A,23,1,Correct!,0.9549356999341398,296.3443571999669,None,296.3443571999669,None,297.3610314000398,None,,,,,92,001,2023-05-31_15h31.26.891,uncolored_sorted,2021.2.3,60.00790900482843,
C:\Users\subject\Desktop\SVRT Experiments\SVRT Experiment 3\svrt_images\generated_images\results_problem_15,C:\Users\subject\Desktop\SVRT Experiments\SVRT Experiment 3\svrt_images\generated_images\results_problem_18\sample_0_0004.png,C:\Users\subject\Desktop\SVRT Experiments\SVRT Experiment 3\svrt_images\generated_images\results_problem_15\sample_1_0000.png,,,,,,,,,,,,,,,,,,,,,,0,1,1,1,0,25,25,25,,,,,,,,,,,,,,f,15,A,A,23,1,Correct!,0.6063550000544637,298.6609909001272,None,298.6609909001272,None,299.3442781001795,None,,,,,92,001,2023-05-31_15h31.26.891,uncolored_sorted,2021.2.3,60.00790900482843,
C:\Users\subject\Desktop\SVRT Experiments\SVRT Experiment 3\svrt_images\generated_images\results_problem_15,C:\Users\subject\Desktop\SVRT Experiments\SVRT Experiment 3\svrt_images\generated_images\results_problem_18\sample_0_0004.png,C:\Users\subject\Desktop\SVRT Experiments\SVRT Experiment 3\svrt_images\generated_images\results_problem_15\sample_1_0012.png,,,,,,,,,,,,,,,,,,,,,,0,1,1,1,0,26,26,26,,,,,,,,,,,,,,f,15,A,A,23,1,Correct!,0.8783465998712927,300.66093570017256,None,300.66093570017256,None,301.560901200166,None,,,,,92,001,2023-05-31_15h31.26.891,uncolored_sorted,2021.2.3,60.00790900482843,
C:\Users\subject\Desktop\SVRT Experiments\SVRT Experiment 3\svrt_images\generated_images\results_problem_15,C:\Users\subject\Desktop\SVRT Experiments\SVRT Experiment 3\svrt_images\generated_images\results_problem_18\sample_0_0004.png,C:\Users\subject\Desktop\SVRT Experiments\SVRT Experiment 3\svrt_images\generated_images\results_problem_15\sample_0_0007.png,,,,,,,,,,,,,,,,,,,,,,0,1,1,1,0,27,27,27,,,,,,,,,,,,,,,,,,,,,,,,,,,,302.56082780007273,302.56082780007273,space,1.1383396000601351,92,001,2023-05-31_15h31.26.891,uncolored_sorted,2021.2.3,60.00790900482843,
C:\Users\subject\Desktop\SVRT Experiments\SVRT Experiment 3\svrt_images\generated_images\results_problem_11,C:\Users\subject\Desktop\SVRT Experiments\SVRT Experiment 3\svrt_images\generated_images\results_problem_18\sample_0_0004.png,C:\Users\subject\Desktop\SVRT Experiments\SVRT Experiment 3\svrt_images\generated_images\results_problem_15\sample_0_0007.png,C:\Users\subject\Desktop\SVRT Experiments\SVRT Experiment 3\svrt_images\generated_images\results_problem_11\sample_0_0001.png,,,,,,,,,,,,,,,,,,,,,0,2,2,2,0,0,0,0,,,,,,,,,,,,,,f,11,A,B,23,0,Incorrect!,1.5477506001479924,303.72753080003895,None,303.72753080003895,None,305.29417530004866,None,,,,,92,001,2023-05-31_15h31.26.891,uncolored_sorted,2021.2.3,60.00790900482843,
C:\Users\subject\Desktop\SVRT Experiments\SVRT Experiment 3\svrt_images\generated_images\results_problem_11,C:\Users\subject\Desktop\SVRT Experiments\SVRT Experiment 3\svrt_images\generated_images\results_problem_18\sample_0_0004.png,C:\Users\subject\Desktop\SVRT Experiments\SVRT Experiment 3\svrt_images\generated_images\results_problem_15\sample_0_0007.png,C:\Users\subject\Desktop\SVRT Experiments\SVRT Experiment 3\svrt_images\generated_images\results_problem_11\sample_1_0012.png,,,,,,,,,,,,,,,,,,,,,0,2,2,2,0,1,1,1,,,,,,,,,,,,,,f,11,A,A,23,1,Correct!,2.10034570004791,306.310831699986,None,306.310831699986,None,308.4441283000633,None,,,,,92,001,2023-05-31_15h31.26.891,uncolored_sorted,2021.2.3,60.00790900482843,
C:\Users\subject\Desktop\SVRT Experiments\SVRT Experiment 3\svrt_images\generated_images\results_problem_11,C:\Users\subject\Desktop\SVRT Experiments\SVRT Experiment 3\svrt_images\generated_images\results_problem_18\sample_0_0004.png,C:\Users\subject\Desktop\SVRT Experiments\SVRT Experiment 3\svrt_images\generated_images\results_problem_15\sample_0_0007.png,C:\Users\subject\Desktop\SVRT Experiments\SVRT Experiment 3\svrt_images\generated_images\results_problem_11\sample_0_0005.png,,,,,,,,,,,,,,,,,,,,,0,2,2,2,0,2,2,2,,,,,,,,,,,,,,f,11,A,B,23,0,Incorrect!,1.598429200006649,309.4607810000889,None,309.4607810000889,None,311.07741719996557,None,,,,,92,001,2023-05-31_15h31.26.891,uncolored_sorted,2021.2.3,60.00790900482843,
C:\Users\subject\Desktop\SVRT Experiments\SVRT Experiment 3\svrt_images\generated_images\results_problem_11,C:\Users\subject\Desktop\SVRT Experiments\SVRT Experiment 3\svrt_images\generated_images\results_problem_18\sample_0_0004.png,C:\Users\subject\Desktop\SVRT Experiments\SVRT Experiment 3\svrt_images\generated_images\results_problem_15\sample_0_0007.png,C:\Users\subject\Desktop\SVRT Experiments\SVRT Experiment 3\svrt_images\generated_images\results_problem_11\sample_0_0013.png,,,,,,,,,,,,,,,,,,,,,0,2,2,2,0,3,3,3,,,,,,,,,,,,,,j,11,B,B,23,1,Correct!,1.820611499948427,312.1106997001916,None,312.1106997001916,None,313.96065280004404,None,,,,,92,001,2023-05-31_15h31.26.891,uncolored_sorted,2021.2.3,60.00790900482843,
C:\Users\subject\Desktop\SVRT Experiments\SVRT Experiment 3\svrt_images\generated_images\results_problem_11,C:\Users\subject\Desktop\SVRT Experiments\SVRT Experiment 3\svrt_images\generated_images\results_problem_18\sample_0_0004.png,C:\Users\subject\Desktop\SVRT Experiments\SVRT Experiment 3\svrt_images\generated_images\results_problem_15\sample_0_0007.png,C:\Users\subject\Desktop\SVRT Experiments\SVRT Experiment 3\svrt_images\generated_images\results_problem_11\sample_1_0000.png,,,,,,,,,,,,,,,,,,,,,0,2,2,2,0,4,4,4,,,,,,,,,,,,,,f,11,A,A,23,1,Correct!,1.3846088000573218,315.01064110011794,None,315.01064110011794,None,316.4272559999954,None,,,,,92,001,2023-05-31_15h31.26.891,uncolored_sorted,2021.2.3,60.00790900482843,
C:\Users\subject\Desktop\SVRT Experiments\SVRT Experiment 3\svrt_images\generated_images\results_problem_11,C:\Users\subject\Desktop\SVRT Experiments\SVRT Experiment 3\svrt_images\generated_images\results_problem_18\sample_0_0004.png,C:\Users\subject\Desktop\SVRT Experiments\SVRT Experiment 3\svrt_images\generated_images\results_problem_15\sample_0_0007.png,C:\Users\subject\Desktop\SVRT Experiments\SVRT Experiment 3\svrt_images\generated_images\results_problem_11\sample_1_0007.png,,,,,,,,,,,,,,,,,,,,,0,2,2,2,0,5,5,5,,,,,,,,,,,,,,f,11,A,A,23,1,Correct!,0.5259787000250071,317.4772668001242,None,317.4772668001242,None,318.02721530012786,None,,,,,92,001,2023-05-31_15h31.26.891,uncolored_sorted,2021.2.3,60.00790900482843,
C:\Users\subject\Desktop\SVRT Experiments\SVRT Experiment 3\svrt_images\generated_images\results_problem_11,C:\Users\subject\Desktop\SVRT Experiments\SVRT Experiment 3\svrt_images\generated_images\results_problem_18\sample_0_0004.png,C:\Users\subject\Desktop\SVRT Experiments\SVRT Experiment 3\svrt_images\generated_images\results_problem_15\sample_0_0007.png,C:\Users\subject\Desktop\SVRT Experiments\SVRT Experiment 3\svrt_images\generated_images\results_problem_11\sample_1_0009.png,,,,,,,,,,,,,,,,,,,,,0,2,2,2,0,6,6,6,,,,,,,,,,,,,,f,11,A,A,23,1,Correct!,0.39740639994852245,319.09383350005373,None,319.09383350005373,None,319.51054100017063,None,,,,,92,001,2023-05-31_15h31.26.891,uncolored_sorted,2021.2.3,60.00790900482843,
C:\Users\subject\Desktop\SVRT Experiments\SVRT Experiment 3\svrt_images\generated_images\results_problem_11,C:\Users\subject\Desktop\SVRT Experiments\SVRT Experiment 3\svrt_images\generated_images\results_problem_18\sample_0_0004.png,C:\Users\subject\Desktop\SVRT Experiments\SVRT Experiment 3\svrt_images\generated_images\results_problem_15\sample_0_0007.png,C:\Users\subject\Desktop\SVRT Experiments\SVRT Experiment 3\svrt_images\generated_images\results_problem_11\sample_0_0007.png,,,,,,,,,,,,,,,,,,,,,0,2,2,2,0,7,7,7,,,,,,,,,,,,,,j,11,B,B,23,1,Correct!,0.4815845999401063,320.59381690016016,None,320.59381690016016,None,321.09382100007497,None,,,,,92,001,2023-05-31_15h31.26.891,uncolored_sorted,2021.2.3,60.00790900482843,
C:\Users\subject\Desktop\SVRT Experiments\SVRT Experiment 3\svrt_images\generated_images\results_problem_11,C:\Users\subject\Desktop\SVRT Experiments\SVRT Experiment 3\svrt_images\generated_images\results_problem_18\sample_0_0004.png,C:\Users\subject\Desktop\SVRT Experiments\SVRT Experiment 3\svrt_images\generated_images\results_problem_15\sample_0_0007.png,C:\Users\subject\Desktop\SVRT Experiments\SVRT Experiment 3\svrt_images\generated_images\results_problem_11\sample_0_0011.png,,,,,,,,,,,,,,,,,,,,,0,2,2,2,0,8,8,8,,,,,,,,,,,,,,j,11,B,B,23,1,Correct!,0.7700574998743832,322.17715160013177,None,322.17715160013177,None,322.9771288000047,None,,,,,92,001,2023-05-31_15h31.26.891,uncolored_sorted,2021.2.3,60.00790900482843,
C:\Users\subject\Desktop\SVRT Experiments\SVRT Experiment 3\svrt_images\generated_images\results_problem_11,C:\Users\subject\Desktop\SVRT Experiments\SVRT Experiment 3\svrt_images\generated_images\results_problem_18\sample_0_0004.png,C:\Users\subject\Desktop\SVRT Experiments\SVRT Experiment 3\svrt_images\generated_images\results_problem_15\sample_0_0007.png,C:\Users\subject\Desktop\SVRT Experiments\SVRT Experiment 3\svrt_images\generated_images\results_problem_11\sample_1_0004.png,,,,,,,,,,,,,,,,,,,,,0,2,2,2,0,9,9,9,,,,,,,,,,,,,,f,11,A,A,23,1,Correct!,0.6539738001301885,324.0773069001734,None,324.0773069001734,None,324.7604200001806,None,,,,,92,001,2023-05-31_15h31.26.891,uncolored_sorted,2021.2.3,60.00790900482843,
C:\Users\subject\Desktop\SVRT Experiments\SVRT Experiment 3\svrt_images\generated_images\results_problem_11,C:\Users\subject\Desktop\SVRT Experiments\SVRT Experiment 3\svrt_images\generated_images\results_problem_18\sample_0_0004.png,C:\Users\subject\Desktop\SVRT Experiments\SVRT Experiment 3\svrt_images\generated_images\results_problem_15\sample_0_0007.png,C:\Users\subject\Desktop\SVRT Experiments\SVRT Experiment 3\svrt_images\generated_images\results_problem_11\sample_1_0008.png,,,,,,,,,,,,,,,,,,,,,0,2,2,2,0,10,10,10,,,,,,,,,,,,,,,,,,,,,,,,,,,,325.7604032000527,325.7604032000527,space,1.0748395000118762,92,001,2023-05-31_15h31.26.891,uncolored_sorted,2021.2.3,60.00790900482843,
C:\Users\subject\Desktop\SVRT Experiments\SVRT Experiment 3\svrt_images\generated_images\results_problem_8,C:\Users\subject\Desktop\SVRT Experiments\SVRT Experiment 3\svrt_images\generated_images\results_problem_18\sample_0_0004.png,C:\Users\subject\Desktop\SVRT Experiments\SVRT Experiment 3\svrt_images\generated_images\results_problem_15\sample_0_0007.png,C:\Users\subject\Desktop\SVRT Experiments\SVRT Experiment 3\svrt_images\generated_images\results_problem_11\sample_1_0008.png,C:\Users\subject\Desktop\SVRT Experiments\SVRT Experiment 3\svrt_images\generated_images\results_problem_8\sample_0_0013.png,,,,,,,,,,,,,,,,,,,,0,3,3,3,0,0,0,0,,,,,,,,,,,,,,f,8,A,B,23,0,Incorrect!,1.4789356000255793,326.86037200014107,None,326.86037200014107,None,328.3603548000101,None,,,,,92,001,2023-05-31_15h31.26.891,uncolored_sorted,2021.2.3,60.00790900482843,
C:\Users\subject\Desktop\SVRT Experiments\SVRT Experiment 3\svrt_images\generated_images\results_problem_8,C:\Users\subject\Desktop\SVRT Experiments\SVRT Experiment 3\svrt_images\generated_images\results_problem_18\sample_0_0004.png,C:\Users\subject\Desktop\SVRT Experiments\SVRT Experiment 3\svrt_images\generated_images\results_problem_15\sample_0_0007.png,C:\Users\subject\Desktop\SVRT Experiments\SVRT Experiment 3\svrt_images\generated_images\results_problem_11\sample_1_0008.png,C:\Users\subject\Desktop\SVRT Experiments\SVRT Experiment 3\svrt_images\generated_images\results_problem_8\sample_1_0010.png,,,,,,,,,,,,,,,,,,,,0,3,3,3,0,1,1,1,,,,,,,,,,,,,,j,8,B,A,23,0,Incorrect!,2.3461573999375105,329.3769822001923,None,329.3769822001923,None,331.7436253000051,None,,,,,92,001,2023-05-31_15h31.26.891,uncolored_sorted,2021.2.3,60.00790900482843,
C:\Users\subject\Desktop\SVRT Experiments\SVRT Experiment 3\svrt_images\generated_images\results_problem_8,C:\Users\subject\Desktop\SVRT Experiments\SVRT Experiment 3\svrt_images\generated_images\results_problem_18\sample_0_0004.png,C:\Users\subject\Desktop\SVRT Experiments\SVRT Experiment 3\svrt_images\generated_images\results_problem_15\sample_0_0007.png,C:\Users\subject\Desktop\SVRT Experiments\SVRT Experiment 3\svrt_images\generated_images\results_problem_11\sample_1_0008.png,C:\Users\subject\Desktop\SVRT Experiments\SVRT Experiment 3\svrt_images\generated_images\results_problem_8\sample_1_0007.png,,,,,,,,,,,,,,,,,,,,0,3,3,3,0,2,2,2,,,,,,,,,,,,,,j,8,B,A,23,0,Incorrect!,4.619030699832365,332.76024800003506,None,332.76024800003506,None,337.41017010016367,None,,,,,92,001,2023-05-31_15h31.26.891,uncolored_sorted,2021.2.3,60.00790900482843,
C:\Users\subject\Desktop\SVRT Experiments\SVRT Experiment 3\svrt_images\generated_images\results_problem_8,C:\Users\subject\Desktop\SVRT Experiments\SVRT Experiment 3\svrt_images\generated_images\results_problem_18\sample_0_0004.png,C:\Users\subject\Desktop\SVRT Experiments\SVRT Experiment 3\svrt_images\generated_images\results_problem_15\sample_0_0007.png,C:\Users\subject\Desktop\SVRT Experiments\SVRT Experiment 3\svrt_images\generated_images\results_problem_11\sample_1_0008.png,C:\Users\subject\Desktop\SVRT Experiments\SVRT Experiment 3\svrt_images\generated_images\results_problem_8\sample_1_0011.png,,,,,,,,,,,,,,,,,,,,0,3,3,3,0,3,3,3,,,,,,,,,,,,,,f,8,A,A,23,1,Correct!,2.727744200034067,338.4434875000734,None,338.4434875000734,None,341.1934251000639,None,,,,,92,001,2023-05-31_15h31.26.891,uncolored_sorted,2021.2.3,60.00790900482843,
C:\Users\subject\Desktop\SVRT Experiments\SVRT Experiment 3\svrt_images\generated_images\results_problem_8,C:\Users\subject\Desktop\SVRT Experiments\SVRT Experiment 3\svrt_images\generated_images\results_problem_18\sample_0_0004.png,C:\Users\subject\Desktop\SVRT Experiments\SVRT Experiment 3\svrt_images\generated_images\results_problem_15\sample_0_0007.png,C:\Users\subject\Desktop\SVRT Experiments\SVRT Experiment 3\svrt_images\generated_images\results_problem_11\sample_1_0008.png,C:\Users\subject\Desktop\SVRT Experiments\SVRT Experiment 3\svrt_images\generated_images\results_problem_8\sample_0_0012.png,,,,,,,,,,,,,,,,,,,,0,3,3,3,0,4,4,4,,,,,,,,,,,,,,j,8,B,B,23,1,Correct!,1.2238014000467956,342.24342539999634,None,342.24342539999634,None,343.4933907999657,None,,,,,92,001,2023-05-31_15h31.26.891,uncolored_sorted,2021.2.3,60.00790900482843,
C:\Users\subject\Desktop\SVRT Experiments\SVRT Experiment 3\svrt_images\generated_images\results_problem_8,C:\Users\subject\Desktop\SVRT Experiments\SVRT Experiment 3\svrt_images\generated_images\results_problem_18\sample_0_0004.png,C:\Users\subject\Desktop\SVRT Experiments\SVRT Experiment 3\svrt_images\generated_images\results_problem_15\sample_0_0007.png,C:\Users\subject\Desktop\SVRT Experiments\SVRT Experiment 3\svrt_images\generated_images\results_problem_11\sample_1_0008.png,C:\Users\subject\Desktop\SVRT Experiments\SVRT Experiment 3\svrt_images\generated_images\results_problem_8\sample_1_0009.png,,,,,,,,,,,,,,,,,,,,0,3,3,3,0,5,5,5,,,,,,,,,,,,,,f,8,A,A,23,1,Correct!,1.8438033000566065,344.5433726001065,None,344.5433726001065,None,346.4100463001523,None,,,,,92,001,2023-05-31_15h31.26.891,uncolored_sorted,2021.2.3,60.00790900482843,
C:\Users\subject\Desktop\SVRT Experiments\SVRT Experiment 3\svrt_images\generated_images\results_problem_8,C:\Users\subject\Desktop\SVRT Experiments\SVRT Experiment 3\svrt_images\generated_images\results_problem_18\sample_0_0004.png,C:\Users\subject\Desktop\SVRT Experiments\SVRT Experiment 3\svrt_images\generated_images\results_problem_15\sample_0_0007.png,C:\Users\subject\Desktop\SVRT Experiments\SVRT Experiment 3\svrt_images\generated_images\results_problem_11\sample_1_0008.png,C:\Users\subject\Desktop\SVRT Experiments\SVRT Experiment 3\svrt_images\generated_images\results_problem_8\sample_1_0000.png,,,,,,,,,,,,,,,,,,,,0,3,3,3,0,6,6,6,,,,,,,,,,,,,,f,8,A,A,23,1,Correct!,1.086883399868384,347.47706170007586,None,347.47706170007586,None,348.5932789000217,None,,,,,92,001,2023-05-31_15h31.26.891,uncolored_sorted,2021.2.3,60.00790900482843,
C:\Users\subject\Desktop\SVRT Experiments\SVRT Experiment 3\svrt_images\generated_images\results_problem_8,C:\Users\subject\Desktop\SVRT Experiments\SVRT Experiment 3\svrt_images\generated_images\results_problem_18\sample_0_0004.png,C:\Users\subject\Desktop\SVRT Experiments\SVRT Experiment 3\svrt_images\generated_images\results_problem_15\sample_0_0007.png,C:\Users\subject\Desktop\SVRT Experiments\SVRT Experiment 3\svrt_images\generated_images\results_problem_11\sample_1_0008.png,C:\Users\subject\Desktop\SVRT Experiments\SVRT Experiment 3\svrt_images\generated_images\results_problem_8\sample_0_0005.png,,,,,,,,,,,,,,,,,,,,0,3,3,3,0,7,7,7,,,,,,,,,,,,,,j,8,B,B,23,1,Correct!,0.7745964000932872,349.6765730001498,None,349.6765730001498,None,350.47650570003316,None,,,,,92,001,2023-05-31_15h31.26.891,uncolored_sorted,2021.2.3,60.00790900482843,
C:\Users\subject\Desktop\SVRT Experiments\SVRT Experiment 3\svrt_images\generated_images\results_problem_8,C:\Users\subject\Desktop\SVRT Experiments\SVRT Experiment 3\svrt_images\generated_images\results_problem_18\sample_0_0004.png,C:\Users\subject\Desktop\SVRT Experiments\SVRT Experiment 3\svrt_images\generated_images\results_problem_15\sample_0_0007.png,C:\Users\subject\Desktop\SVRT Experiments\SVRT Experiment 3\svrt_images\generated_images\results_problem_11\sample_1_0008.png,C:\Users\subject\Desktop\SVRT Experiments\SVRT Experiment 3\svrt_images\generated_images\results_problem_8\sample_0_0015.png,,,,,,,,,,,,,,,,,,,,0,3,3,3,0,8,8,8,,,,,,,,,,,,,,f,8,A,B,23,0,Incorrect!,0.4753664000891149,351.559870300116,None,351.559870300116,None,352.0598395001143,None,,,,,92,001,2023-05-31_15h31.26.891,uncolored_sorted,2021.2.3,60.00790900482843,
C:\Users\subject\Desktop\SVRT Experiments\SVRT Experiment 3\svrt_images\generated_images\results_problem_8,C:\Users\subject\Desktop\SVRT Experiments\SVRT Experiment 3\svrt_images\generated_images\results_problem_18\sample_0_0004.png,C:\Users\subject\Desktop\SVRT Experiments\SVRT Experiment 3\svrt_images\generated_images\results_problem_15\sample_0_0007.png,C:\Users\subject\Desktop\SVRT Experiments\SVRT Experiment 3\svrt_images\generated_images\results_problem_11\sample_1_0008.png,C:\Users\subject\Desktop\SVRT Experiments\SVRT Experiment 3\svrt_images\generated_images\results_problem_8\sample_0_0008.png,,,,,,,,,,,,,,,,,,,,0,3,3,3,0,9,9,9,,,,,,,,,,,,,,j,8,B,B,23,1,Correct!,5.307319600135088,353.15982210007496,None,353.15982210007496,None,358.4930848001968,None,,,,,92,001,2023-05-31_15h31.26.891,uncolored_sorted,2021.2.3,60.00790900482843,
C:\Users\subject\Desktop\SVRT Experiments\SVRT Experiment 3\svrt_images\generated_images\results_problem_8,C:\Users\subject\Desktop\SVRT Experiments\SVRT Experiment 3\svrt_images\generated_images\results_problem_18\sample_0_0004.png,C:\Users\subject\Desktop\SVRT Experiments\SVRT Experiment 3\svrt_images\generated_images\results_problem_15\sample_0_0007.png,C:\Users\subject\Desktop\SVRT Experiments\SVRT Experiment 3\svrt_images\generated_images\results_problem_11\sample_1_0008.png,C:\Users\subject\Desktop\SVRT Experiments\SVRT Experiment 3\svrt_images\generated_images\results_problem_8\sample_0_0016.png,,,,,,,,,,,,,,,,,,,,0,3,3,3,0,10,10,10,,,,,,,,,,,,,,j,8,B,B,23,1,Correct!,1.9374523998703808,359.6097324001603,None,359.6097324001603,None,361.57633320009336,None,,,,,92,001,2023-05-31_15h31.26.891,uncolored_sorted,2021.2.3,60.00790900482843,
C:\Users\subject\Desktop\SVRT Experiments\SVRT Experiment 3\svrt_images\generated_images\results_problem_8,C:\Users\subject\Desktop\SVRT Experiments\SVRT Experiment 3\svrt_images\generated_images\results_problem_18\sample_0_0004.png,C:\Users\subject\Desktop\SVRT Experiments\SVRT Experiment 3\svrt_images\generated_images\results_problem_15\sample_0_0007.png,C:\Users\subject\Desktop\SVRT Experiments\SVRT Experiment 3\svrt_images\generated_images\results_problem_11\sample_1_0008.png,C:\Users\subject\Desktop\SVRT Experiments\SVRT Experiment 3\svrt_images\generated_images\results_problem_8\sample_0_0001.png,,,,,,,,,,,,,,,,,,,,0,3,3,3,0,11,11,11,,,,,,,,,,,,,,j,8,B,B,23,1,Correct!,1.7503567999228835,362.69297850015573,None,362.69297850015573,None,364.47628269996494,None,,,,,92,001,2023-05-31_15h31.26.891,uncolored_sorted,2021.2.3,60.00790900482843,
C:\Users\subject\Desktop\SVRT Experiments\SVRT Experiment 3\svrt_images\generated_images\results_problem_8,C:\Users\subject\Desktop\SVRT Experiments\SVRT Experiment 3\svrt_images\generated_images\results_problem_18\sample_0_0004.png,C:\Users\subject\Desktop\SVRT Experiments\SVRT Experiment 3\svrt_images\generated_images\results_problem_15\sample_0_0007.png,C:\Users\subject\Desktop\SVRT Experiments\SVRT Experiment 3\svrt_images\generated_images\results_problem_11\sample_1_0008.png,C:\Users\subject\Desktop\SVRT Experiments\SVRT Experiment 3\svrt_images\generated_images\results_problem_8\sample_0_0011.png,,,,,,,,,,,,,,,,,,,,0,3,3,3,0,12,12,12,,,,,,,,,,,,,,j,8,B,B,23,1,Correct!,0.8655044999904931,365.6096232000273,None,365.6096232000273,None,366.4928898999933,None,,,,,92,001,2023-05-31_15h31.26.891,uncolored_sorted,2021.2.3,60.00790900482843,
C:\Users\subject\Desktop\SVRT Experiments\SVRT Experiment 3\svrt_images\generated_images\results_problem_8,C:\Users\subject\Desktop\SVRT Experiments\SVRT Experiment 3\svrt_images\generated_images\results_problem_18\sample_0_0004.png,C:\Users\subject\Desktop\SVRT Experiments\SVRT Experiment 3\svrt_images\generated_images\results_problem_15\sample_0_0007.png,C:\Users\subject\Desktop\SVRT Experiments\SVRT Experiment 3\svrt_images\generated_images\results_problem_11\sample_1_0008.png,C:\Users\subject\Desktop\SVRT Experiments\SVRT Experiment 3\svrt_images\generated_images\results_problem_8\sample_1_0001.png,,,,,,,,,,,,,,,,,,,,0,3,3,3,0,13,13,13,,,,,,,,,,,,,,f,8,A,A,23,1,Correct!,1.472376500023529,367.642865100177,None,367.642865100177,None,369.159524000017,None,,,,,92,001,2023-05-31_15h31.26.891,uncolored_sorted,2021.2.3,60.00790900482843,
C:\Users\subject\Desktop\SVRT Experiments\SVRT Experiment 3\svrt_images\generated_images\results_problem_8,C:\Users\subject\Desktop\SVRT Experiments\SVRT Experiment 3\svrt_images\generated_images\results_problem_18\sample_0_0004.png,C:\Users\subject\Desktop\SVRT Experiments\SVRT Experiment 3\svrt_images\generated_images\results_problem_15\sample_0_0007.png,C:\Users\subject\Desktop\SVRT Experiments\SVRT Experiment 3\svrt_images\generated_images\results_problem_11\sample_1_0008.png,C:\Users\subject\Desktop\SVRT Experiments\SVRT Experiment 3\svrt_images\generated_images\results_problem_8\sample_1_0013.png,,,,,,,,,,,,,,,,,,,,0,3,3,3,0,14,14,14,,,,,,,,,,,,,,f,8,A,A,23,1,Correct!,1.1330595000181347,370.3261768000666,None,370.3261768000666,None,371.47614579997025,None,,,,,92,001,2023-05-31_15h31.26.891,uncolored_sorted,2021.2.3,60.00790900482843,
C:\Users\subject\Desktop\SVRT Experiments\SVRT Experiment 3\svrt_images\generated_images\results_problem_8,C:\Users\subject\Desktop\SVRT Experiments\SVRT Experiment 3\svrt_images\generated_images\results_problem_18\sample_0_0004.png,C:\Users\subject\Desktop\SVRT Experiments\SVRT Experiment 3\svrt_images\generated_images\results_problem_15\sample_0_0007.png,C:\Users\subject\Desktop\SVRT Experiments\SVRT Experiment 3\svrt_images\generated_images\results_problem_11\sample_1_0008.png,C:\Users\subject\Desktop\SVRT Experiments\SVRT Experiment 3\svrt_images\generated_images\results_problem_8\sample_0_0009.png,,,,,,,,,,,,,,,,,,,,0,3,3,3,0,15,15,15,,,,,,,,,,,,,,j,8,B,B,23,1,Correct!,0.9524495999794453,372.6427903000731,None,372.6427903000731,None,373.6261208001524,None,,,,,92,001,2023-05-31_15h31.26.891,uncolored_sorted,2021.2.3,60.00790900482843,
C:\Users\subject\Desktop\SVRT Experiments\SVRT Experiment 3\svrt_images\generated_images\results_problem_8,C:\Users\subject\Desktop\SVRT Experiments\SVRT Experiment 3\svrt_images\generated_images\results_problem_18\sample_0_0004.png,C:\Users\subject\Desktop\SVRT Experiments\SVRT Experiment 3\svrt_images\generated_images\results_problem_15\sample_0_0007.png,C:\Users\subject\Desktop\SVRT Experiments\SVRT Experiment 3\svrt_images\generated_images\results_problem_11\sample_1_0008.png,C:\Users\subject\Desktop\SVRT Experiments\SVRT Experiment 3\svrt_images\generated_images\results_problem_8\sample_0_0004.png,,,,,,,,,,,,,,,,,,,,0,3,3,3,0,16,16,16,,,,,,,,,,,,,,,,,,,,,,,,,,,,374.62605109997094,374.62605109997094,space,0.9132838998921216,92,001,2023-05-31_15h31.26.891,uncolored_sorted,2021.2.3,60.00790900482843,
C:\Users\subject\Desktop\SVRT Experiments\SVRT Experiment 3\svrt_images\generated_images\results_problem_21,C:\Users\subject\Desktop\SVRT Experiments\SVRT Experiment 3\svrt_images\generated_images\results_problem_18\sample_0_0004.png,C:\Users\subject\Desktop\SVRT Experiments\SVRT Experiment 3\svrt_images\generated_images\results_problem_15\sample_0_0007.png,C:\Users\subject\Desktop\SVRT Experiments\SVRT Experiment 3\svrt_images\generated_images\results_problem_11\sample_1_0008.png,C:\Users\subject\Desktop\SVRT Experiments\SVRT Experiment 3\svrt_images\generated_images\results_problem_8\sample_0_0004.png,C:\Users\subject\Desktop\SVRT Experiments\SVRT Experiment 3\svrt_images\generated_images\results_problem_21\sample_1_0005.png,,,,,,,,,,,,,,,,,,,0,4,4,4,0,0,0,0,,,,,,,,,,,,,,f,21,A,A,23,1,Correct!,2.0518150001298636,375.5593888000585,None,375.5593888000585,None,377.64270530012436,None,,,,,92,001,2023-05-31_15h31.26.891,uncolored_sorted,2021.2.3,60.00790900482843,
C:\Users\subject\Desktop\SVRT Experiments\SVRT Experiment 3\svrt_images\generated_images\results_problem_21,C:\Users\subject\Desktop\SVRT Experiments\SVRT Experiment 3\svrt_images\generated_images\results_problem_18\sample_0_0004.png,C:\Users\subject\Desktop\SVRT Experiments\SVRT Experiment 3\svrt_images\generated_images\results_problem_15\sample_0_0007.png,C:\Users\subject\Desktop\SVRT Experiments\SVRT Experiment 3\svrt_images\generated_images\results_problem_11\sample_1_0008.png,C:\Users\subject\Desktop\SVRT Experiments\SVRT Experiment 3\svrt_images\generated_images\results_problem_8\sample_0_0004.png,C:\Users\subject\Desktop\SVRT Experiments\SVRT Experiment 3\svrt_images\generated_images\results_problem_21\sample_0_0002.png,,,,,,,,,,,,,,,,,,,0,4,4,4,0,1,1,1,,,,,,,,,,,,,,f,21,A,B,23,0,Incorrect!,1.855924400035292,378.6593423001468,None,378.6593423001468,None,380.5426426001359,None,,,,,92,001,2023-05-31_15h31.26.891,uncolored_sorted,2021.2.3,60.00790900482843,
C:\Users\subject\Desktop\SVRT Experiments\SVRT Experiment 3\svrt_images\generated_images\results_problem_21,C:\Users\subject\Desktop\SVRT Experiments\SVRT Experiment 3\svrt_images\generated_images\results_problem_18\sample_0_0004.png,C:\Users\subject\Desktop\SVRT Experiments\SVRT Experiment 3\svrt_images\generated_images\results_problem_15\sample_0_0007.png,C:\Users\subject\Desktop\SVRT Experiments\SVRT Experiment 3\svrt_images\generated_images\results_problem_11\sample_1_0008.png,C:\Users\subject\Desktop\SVRT Experiments\SVRT Experiment 3\svrt_images\generated_images\results_problem_8\sample_0_0004.png,C:\Users\subject\Desktop\SVRT Experiments\SVRT Experiment 3\svrt_images\generated_images\results_problem_21\sample_0_0004.png,,,,,,,,,,,,,,,,,,,0,4,4,4,0,2,2,2,,,,,,,,,,,,,,f,21,A,B,23,0,Incorrect!,2.243919299915433,381.55928830010816,None,381.55928830010816,None,383.82589050009847,None,,,,,92,001,2023-05-31_15h31.26.891,uncolored_sorted,2021.2.3,60.00790900482843,
C:\Users\subject\Desktop\SVRT Experiments\SVRT Experiment 3\svrt_images\generated_images\results_problem_21,C:\Users\subject\Desktop\SVRT Experiments\SVRT Experiment 3\svrt_images\generated_images\results_problem_18\sample_0_0004.png,C:\Users\subject\Desktop\SVRT Experiments\SVRT Experiment 3\svrt_images\generated_images\results_problem_15\sample_0_0007.png,C:\Users\subject\Desktop\SVRT Experiments\SVRT Experiment 3\svrt_images\generated_images\results_problem_11\sample_1_0008.png,C:\Users\subject\Desktop\SVRT Experiments\SVRT Experiment 3\svrt_images\generated_images\results_problem_8\sample_0_0004.png,C:\Users\subject\Desktop\SVRT Experiments\SVRT Experiment 3\svrt_images\generated_images\results_problem_21\sample_1_0010.png,,,,,,,,,,,,,,,,,,,0,4,4,4,0,3,3,3,,,,,,,,,,,,,,j,21,B,A,23,0,Incorrect!,1.8878338001668453,384.8593316001352,None,384.8593316001352,None,386.7758232001215,None,,,,,92,001,2023-05-31_15h31.26.891,uncolored_sorted,2021.2.3,60.00790900482843,
C:\Users\subject\Desktop\SVRT Experiments\SVRT Experiment 3\svrt_images\generated_images\results_problem_21,C:\Users\subject\Desktop\SVRT Experiments\SVRT Experiment 3\svrt_images\generated_images\results_problem_18\sample_0_0004.png,C:\Users\subject\Desktop\SVRT Experiments\SVRT Experiment 3\svrt_images\generated_images\results_problem_15\sample_0_0007.png,C:\Users\subject\Desktop\SVRT Experiments\SVRT Experiment 3\svrt_images\generated_images\results_problem_11\sample_1_0008.png,C:\Users\subject\Desktop\SVRT Experiments\SVRT Experiment 3\svrt_images\generated_images\results_problem_8\sample_0_0004.png,C:\Users\subject\Desktop\SVRT Experiments\SVRT Experiment 3\svrt_images\generated_images\results_problem_21\sample_0_0012.png,,,,,,,,,,,,,,,,,,,0,4,4,4,0,4,4,4,,,,,,,,,,,,,,f,21,A,B,23,0,Incorrect!,10.513355200178921,387.825822400162,None,387.825822400162,None,398.3589443999808,None,,,,,92,001,2023-05-31_15h31.26.891,uncolored_sorted,2021.2.3,60.00790900482843,
C:\Users\subject\Desktop\SVRT Experiments\SVRT Experiment 3\svrt_images\generated_images\results_problem_21,C:\Users\subject\Desktop\SVRT Experiments\SVRT Experiment 3\svrt_images\generated_images\results_problem_18\sample_0_0004.png,C:\Users\subject\Desktop\SVRT Experiments\SVRT Experiment 3\svrt_images\generated_images\results_problem_15\sample_0_0007.png,C:\Users\subject\Desktop\SVRT Experiments\SVRT Experiment 3\svrt_images\generated_images\results_problem_11\sample_1_0008.png,C:\Users\subject\Desktop\SVRT Experiments\SVRT Experiment 3\svrt_images\generated_images\results_problem_8\sample_0_0004.png,C:\Users\subject\Desktop\SVRT Experiments\SVRT Experiment 3\svrt_images\generated_images\results_problem_21\sample_1_0001.png,,,,,,,,,,,,,,,,,,,0,4,4,4,0,5,5,5,,,,,,,,,,,,,,j,21,B,A,23,0,Incorrect!,1.1543262999039143,399.40893110004254,None,399.40893110004254,None,400.59223040007055,None,,,,,92,001,2023-05-31_15h31.26.891,uncolored_sorted,2021.2.3,60.00790900482843,
C:\Users\subject\Desktop\SVRT Experiments\SVRT Experiment 3\svrt_images\generated_images\results_problem_21,C:\Users\subject\Desktop\SVRT Experiments\SVRT Experiment 3\svrt_images\generated_images\results_problem_18\sample_0_0004.png,C:\Users\subject\Desktop\SVRT Experiments\SVRT Experiment 3\svrt_images\generated_images\results_problem_15\sample_0_0007.png,C:\Users\subject\Desktop\SVRT Experiments\SVRT Experiment 3\svrt_images\generated_images\results_problem_11\sample_1_0008.png,C:\Users\subject\Desktop\SVRT Experiments\SVRT Experiment 3\svrt_images\generated_images\results_problem_8\sample_0_0004.png,C:\Users\subject\Desktop\SVRT Experiments\SVRT Experiment 3\svrt_images\generated_images\results_problem_21\sample_0_0013.png,,,,,,,,,,,,,,,,,,,0,4,4,4,0,6,6,6,,,,,,,,,,,,,,f,21,A,B,23,0,Incorrect!,1.592312099877745,401.6588833001442,None,401.6588833001442,None,403.27549839997664,None,,,,,92,001,2023-05-31_15h31.26.891,uncolored_sorted,2021.2.3,60.00790900482843,
C:\Users\subject\Desktop\SVRT Experiments\SVRT Experiment 3\svrt_images\generated_images\results_problem_21,C:\Users\subject\Desktop\SVRT Experiments\SVRT Experiment 3\svrt_images\generated_images\results_problem_18\sample_0_0004.png,C:\Users\subject\Desktop\SVRT Experiments\SVRT Experiment 3\svrt_images\generated_images\results_problem_15\sample_0_0007.png,C:\Users\subject\Desktop\SVRT Experiments\SVRT Experiment 3\svrt_images\generated_images\results_problem_11\sample_1_0008.png,C:\Users\subject\Desktop\SVRT Experiments\SVRT Experiment 3\svrt_images\generated_images\results_problem_8\sample_0_0004.png,C:\Users\subject\Desktop\SVRT Experiments\SVRT Experiment 3\svrt_images\generated_images\results_problem_21\sample_1_0004.png,,,,,,,,,,,,,,,,,,,0,4,4,4,0,7,7,7,,,,,,,,,,,,,,j,21,B,A,23,0,Incorrect!,2.0845258999615908,404.3588421000168,None,404.3588421000168,None,406.47546169999987,None,,,,,92,001,2023-05-31_15h31.26.891,uncolored_sorted,2021.2.3,60.00790900482843,
C:\Users\subject\Desktop\SVRT Experiments\SVRT Experiment 3\svrt_images\generated_images\results_problem_21,C:\Users\subject\Desktop\SVRT Experiments\SVRT Experiment 3\svrt_images\generated_images\results_problem_18\sample_0_0004.png,C:\Users\subject\Desktop\SVRT Experiments\SVRT Experiment 3\svrt_images\generated_images\results_problem_15\sample_0_0007.png,C:\Users\subject\Desktop\SVRT Experiments\SVRT Experiment 3\svrt_images\generated_images\results_problem_11\sample_1_0008.png,C:\Users\subject\Desktop\SVRT Experiments\SVRT Experiment 3\svrt_images\generated_images\results_problem_8\sample_0_0004.png,C:\Users\subject\Desktop\SVRT Experiments\SVRT Experiment 3\svrt_images\generated_images\results_problem_21\sample_1_0016.png,,,,,,,,,,,,,,,,,,,0,4,4,4,0,8,8,8,,,,,,,,,,,,,,f,21,A,A,23,1,Correct!,4.900443400023505,407.5587767001707,None,407.5587767001707,None,412.4920016999822,None,,,,,92,001,2023-05-31_15h31.26.891,uncolored_sorted,2021.2.3,60.00790900482843,
C:\Users\subject\Desktop\SVRT Experiments\SVRT Experiment 3\svrt_images\generated_images\results_problem_21,C:\Users\subject\Desktop\SVRT Experiments\SVRT Experiment 3\svrt_images\generated_images\results_problem_18\sample_0_0004.png,C:\Users\subject\Desktop\SVRT Experiments\SVRT Experiment 3\svrt_images\generated_images\results_problem_15\sample_0_0007.png,C:\Users\subject\Desktop\SVRT Experiments\SVRT Experiment 3\svrt_images\generated_images\results_problem_11\sample_1_0008.png,C:\Users\subject\Desktop\SVRT Experiments\SVRT Experiment 3\svrt_images\generated_images\results_problem_8\sample_0_0004.png,C:\Users\subject\Desktop\SVRT Experiments\SVRT Experiment 3\svrt_images\generated_images\results_problem_21\sample_1_0008.png,,,,,,,,,,,,,,,,,,,0,4,4,4,0,9,9,9,,,,,,,,,,,,,,f,21,A,A,23,1,Correct!,1.515307999914512,413.591953500174,None,413.591953500174,None,415.1252974001691,None,,,,,92,001,2023-05-31_15h31.26.891,uncolored_sorted,2021.2.3,60.00790900482843,
C:\Users\subject\Desktop\SVRT Experiments\SVRT Experiment 3\svrt_images\generated_images\results_problem_21,C:\Users\subject\Desktop\SVRT Experiments\SVRT Experiment 3\svrt_images\generated_images\results_problem_18\sample_0_0004.png,C:\Users\subject\Desktop\SVRT Experiments\SVRT Experiment 3\svrt_images\generated_images\results_problem_15\sample_0_0007.png,C:\Users\subject\Desktop\SVRT Experiments\SVRT Experiment 3\svrt_images\generated_images\results_problem_11\sample_1_0008.png,C:\Users\subject\Desktop\SVRT Experiments\SVRT Experiment 3\svrt_images\generated_images\results_problem_8\sample_0_0004.png,C:\Users\subject\Desktop\SVRT Experiments\SVRT Experiment 3\svrt_images\generated_images\results_problem_21\sample_0_0016.png,,,,,,,,,,,,,,,,,,,0,4,4,4,0,10,10,10,,,,,,,,,,,,,,f,21,A,B,23,0,Incorrect!,1.257214599987492,416.24192940001376,None,416.24192940001376,None,417.52522910013795,None,,,,,92,001,2023-05-31_15h31.26.891,uncolored_sorted,2021.2.3,60.00790900482843,
C:\Users\subject\Desktop\SVRT Experiments\SVRT Experiment 3\svrt_images\generated_images\results_problem_21,C:\Users\subject\Desktop\SVRT Experiments\SVRT Experiment 3\svrt_images\generated_images\results_problem_18\sample_0_0004.png,C:\Users\subject\Desktop\SVRT Experiments\SVRT Experiment 3\svrt_images\generated_images\results_problem_15\sample_0_0007.png,C:\Users\subject\Desktop\SVRT Experiments\SVRT Experiment 3\svrt_images\generated_images\results_problem_11\sample_1_0008.png,C:\Users\subject\Desktop\SVRT Experiments\SVRT Experiment 3\svrt_images\generated_images\results_problem_8\sample_0_0004.png,C:\Users\subject\Desktop\SVRT Experiments\SVRT Experiment 3\svrt_images\generated_images\results_problem_21\sample_1_0013.png,,,,,,,,,,,,,,,,,,,0,4,4,4,0,11,11,11,,,,,,,,,,,,,,j,21,B,A,23,0,Incorrect!,1.4174368001986295,418.6418302000966,None,418.6418302000966,None,420.09183640009724,None,,,,,92,001,2023-05-31_15h31.26.891,uncolored_sorted,2021.2.3,60.00790900482843,
C:\Users\subject\Desktop\SVRT Experiments\SVRT Experiment 3\svrt_images\generated_images\results_problem_21,C:\Users\subject\Desktop\SVRT Experiments\SVRT Experiment 3\svrt_images\generated_images\results_problem_18\sample_0_0004.png,C:\Users\subject\Desktop\SVRT Experiments\SVRT Experiment 3\svrt_images\generated_images\results_problem_15\sample_0_0007.png,C:\Users\subject\Desktop\SVRT Experiments\SVRT Experiment 3\svrt_images\generated_images\results_problem_11\sample_1_0008.png,C:\Users\subject\Desktop\SVRT Experiments\SVRT Experiment 3\svrt_images\generated_images\results_problem_8\sample_0_0004.png,C:\Users\subject\Desktop\SVRT Experiments\SVRT Experiment 3\svrt_images\generated_images\results_problem_21\sample_1_0002.png,,,,,,,,,,,,,,,,,,,0,4,4,4,0,12,12,12,,,,,,,,,,,,,,f,21,A,A,23,1,Correct!,1.5700544000137597,421.2251753001474,None,421.2251753001474,None,422.84180090017617,None,,,,,92,001,2023-05-31_15h31.26.891,uncolored_sorted,2021.2.3,60.00790900482843,
C:\Users\subject\Desktop\SVRT Experiments\SVRT Experiment 3\svrt_images\generated_images\results_problem_21,C:\Users\subject\Desktop\SVRT Experiments\SVRT Experiment 3\svrt_images\generated_images\results_problem_18\sample_0_0004.png,C:\Users\subject\Desktop\SVRT Experiments\SVRT Experiment 3\svrt_images\generated_images\results_problem_15\sample_0_0007.png,C:\Users\subject\Desktop\SVRT Experiments\SVRT Experiment 3\svrt_images\generated_images\results_problem_11\sample_1_0008.png,C:\Users\subject\Desktop\SVRT Experiments\SVRT Experiment 3\svrt_images\generated_images\results_problem_8\sample_0_0004.png,C:\Users\subject\Desktop\SVRT Experiments\SVRT Experiment 3\svrt_images\generated_images\results_problem_21\sample_0_0005.png,,,,,,,,,,,,,,,,,,,0,4,4,4,0,13,13,13,,,,,,,,,,,,,,j,21,B,B,23,1,Correct!,1.4513669000007212,423.9917827001773,None,423.9917827001773,None,425.4750994001515,None,,,,,92,001,2023-05-31_15h31.26.891,uncolored_sorted,2021.2.3,60.00790900482843,
C:\Users\subject\Desktop\SVRT Experiments\SVRT Experiment 3\svrt_images\generated_images\results_problem_21,C:\Users\subject\Desktop\SVRT Experiments\SVRT Experiment 3\svrt_images\generated_images\results_problem_18\sample_0_0004.png,C:\Users\subject\Desktop\SVRT Experiments\SVRT Experiment 3\svrt_images\generated_images\results_problem_15\sample_0_0007.png,C:\Users\subject\Desktop\SVRT Experiments\SVRT Experiment 3\svrt_images\generated_images\results_problem_11\sample_1_0008.png,C:\Users\subject\Desktop\SVRT Experiments\SVRT Experiment 3\svrt_images\generated_images\results_problem_8\sample_0_0004.png,C:\Users\subject\Desktop\SVRT Experiments\SVRT Experiment 3\svrt_images\generated_images\results_problem_21\sample_0_0003.png,,,,,,,,,,,,,,,,,,,0,4,4,4,0,14,14,14,,,,,,,,,,,,,,f,21,A,B,23,0,Incorrect!,0.9222134000156075,426.62504620011896,None,426.62504620011896,None,427.57503140019253,None,,,,,92,001,2023-05-31_15h31.26.891,uncolored_sorted,2021.2.3,60.00790900482843,
C:\Users\subject\Desktop\SVRT Experiments\SVRT Experiment 3\svrt_images\generated_images\results_problem_21,C:\Users\subject\Desktop\SVRT Experiments\SVRT Experiment 3\svrt_images\generated_images\results_problem_18\sample_0_0004.png,C:\Users\subject\Desktop\SVRT Experiments\SVRT Experiment 3\svrt_images\generated_images\results_problem_15\sample_0_0007.png,C:\Users\subject\Desktop\SVRT Experiments\SVRT Experiment 3\svrt_images\generated_images\results_problem_11\sample_1_0008.png,C:\Users\subject\Desktop\SVRT Experiments\SVRT Experiment 3\svrt_images\generated_images\results_problem_8\sample_0_0004.png,C:\Users\subject\Desktop\SVRT Experiments\SVRT Experiment 3\svrt_images\generated_images\results_problem_21\sample_0_0008.png,,,,,,,,,,,,,,,,,,,0,4,4,4,0,15,15,15,,,,,,,,,,,,,,f,21,A,B,23,0,Incorrect!,1.0776082000229508,428.7417042001616,None,428.7417042001616,None,429.858332300093,None,,,,,92,001,2023-05-31_15h31.26.891,uncolored_sorted,2021.2.3,60.00790900482843,
C:\Users\subject\Desktop\SVRT Experiments\SVRT Experiment 3\svrt_images\generated_images\results_problem_21,C:\Users\subject\Desktop\SVRT Experiments\SVRT Experiment 3\svrt_images\generated_images\results_problem_18\sample_0_0004.png,C:\Users\subject\Desktop\SVRT Experiments\SVRT Experiment 3\svrt_images\generated_images\results_problem_15\sample_0_0007.png,C:\Users\subject\Desktop\SVRT Experiments\SVRT Experiment 3\svrt_images\generated_images\results_problem_11\sample_1_0008.png,C:\Users\subject\Desktop\SVRT Experiments\SVRT Experiment 3\svrt_images\generated_images\results_problem_8\sample_0_0004.png,C:\Users\subject\Desktop\SVRT Experiments\SVRT Experiment 3\svrt_images\generated_images\results_problem_21\sample_1_0006.png,,,,,,,,,,,,,,,,,,,0,4,4,4,0,16,16,16,,,,,,,,,,,,,,j,21,B,A,23,0,Incorrect!,0.6175274001434445,431.04166670003906,None,431.04166670003906,None,431.69182910001837,None,,,,,92,001,2023-05-31_15h31.26.891,uncolored_sorted,2021.2.3,60.00790900482843,
C:\Users\subject\Desktop\SVRT Experiments\SVRT Experiment 3\svrt_images\generated_images\results_problem_21,C:\Users\subject\Desktop\SVRT Experiments\SVRT Experiment 3\svrt_images\generated_images\results_problem_18\sample_0_0004.png,C:\Users\subject\Desktop\SVRT Experiments\SVRT Experiment 3\svrt_images\generated_images\results_problem_15\sample_0_0007.png,C:\Users\subject\Desktop\SVRT Experiments\SVRT Experiment 3\svrt_images\generated_images\results_problem_11\sample_1_0008.png,C:\Users\subject\Desktop\SVRT Experiments\SVRT Experiment 3\svrt_images\generated_images\results_problem_8\sample_0_0004.png,C:\Users\subject\Desktop\SVRT Experiments\SVRT Experiment 3\svrt_images\generated_images\results_problem_21\sample_1_0011.png,,,,,,,,,,,,,,,,,,,0,4,4,4,0,17,17,17,,,,,,,,,,,,,,j,21,B,A,23,0,Incorrect!,2.071646799799055,432.89161469996907,None,432.89161469996907,None,434.9915614000056,None,,,,,92,001,2023-05-31_15h31.26.891,uncolored_sorted,2021.2.3,60.00790900482843,
C:\Users\subject\Desktop\SVRT Experiments\SVRT Experiment 3\svrt_images\generated_images\results_problem_21,C:\Users\subject\Desktop\SVRT Experiments\SVRT Experiment 3\svrt_images\generated_images\results_problem_18\sample_0_0004.png,C:\Users\subject\Desktop\SVRT Experiments\SVRT Experiment 3\svrt_images\generated_images\results_problem_15\sample_0_0007.png,C:\Users\subject\Desktop\SVRT Experiments\SVRT Experiment 3\svrt_images\generated_images\results_problem_11\sample_1_0008.png,C:\Users\subject\Desktop\SVRT Experiments\SVRT Experiment 3\svrt_images\generated_images\results_problem_8\sample_0_0004.png,C:\Users\subject\Desktop\SVRT Experiments\SVRT Experiment 3\svrt_images\generated_images\results_problem_21\sample_1_0007.png,,,,,,,,,,,,,,,,,,,0,4,4,4,0,18,18,18,,,,,,,,,,,,,,f,21,A,A,23,1,Correct!,2.1238176999613643,436.19152700016275,None,436.19152700016275,None,438.3581573001575,None,,,,,92,001,2023-05-31_15h31.26.891,uncolored_sorted,2021.2.3,60.00790900482843,
C:\Users\subject\Desktop\SVRT Experiments\SVRT Experiment 3\svrt_images\generated_images\results_problem_21,C:\Users\subject\Desktop\SVRT Experiments\SVRT Experiment 3\svrt_images\generated_images\results_problem_18\sample_0_0004.png,C:\Users\subject\Desktop\SVRT Experiments\SVRT Experiment 3\svrt_images\generated_images\results_problem_15\sample_0_0007.png,C:\Users\subject\Desktop\SVRT Experiments\SVRT Experiment 3\svrt_images\generated_images\results_problem_11\sample_1_0008.png,C:\Users\subject\Desktop\SVRT Experiments\SVRT Experiment 3\svrt_images\generated_images\results_problem_8\sample_0_0004.png,C:\Users\subject\Desktop\SVRT Experiments\SVRT Experiment 3\svrt_images\generated_images\results_problem_21\sample_0_0009.png,,,,,,,,,,,,,,,,,,,0,4,4,4,0,19,19,19,,,,,,,,,,,,,,f,21,A,B,23,0,Incorrect!,0.6678294001612812,439.59149200003594,None,439.59149200003594,None,440.30812510009855,None,,,,,92,001,2023-05-31_15h31.26.891,uncolored_sorted,2021.2.3,60.00790900482843,
C:\Users\subject\Desktop\SVRT Experiments\SVRT Experiment 3\svrt_images\generated_images\results_problem_21,C:\Users\subject\Desktop\SVRT Experiments\SVRT Experiment 3\svrt_images\generated_images\results_problem_18\sample_0_0004.png,C:\Users\subject\Desktop\SVRT Experiments\SVRT Experiment 3\svrt_images\generated_images\results_problem_15\sample_0_0007.png,C:\Users\subject\Desktop\SVRT Experiments\SVRT Experiment 3\svrt_images\generated_images\results_problem_11\sample_1_0008.png,C:\Users\subject\Desktop\SVRT Experiments\SVRT Experiment 3\svrt_images\generated_images\results_problem_8\sample_0_0004.png,C:\Users\subject\Desktop\SVRT Experiments\SVRT Experiment 3\svrt_images\generated_images\results_problem_21\sample_0_0015.png,,,,,,,,,,,,,,,,,,,0,4,4,4,0,20,20,20,,,,,,,,,,,,,,j,21,B,B,23,1,Correct!,0.5171783999539912,441.55810780008323,None,441.55810780008323,None,442.1247406001203,None,,,,,92,001,2023-05-31_15h31.26.891,uncolored_sorted,2021.2.3,60.00790900482843,
C:\Users\subject\Desktop\SVRT Experiments\SVRT Experiment 3\svrt_images\generated_images\results_problem_21,C:\Users\subject\Desktop\SVRT Experiments\SVRT Experiment 3\svrt_images\generated_images\results_problem_18\sample_0_0004.png,C:\Users\subject\Desktop\SVRT Experiments\SVRT Experiment 3\svrt_images\generated_images\results_problem_15\sample_0_0007.png,C:\Users\subject\Desktop\SVRT Experiments\SVRT Experiment 3\svrt_images\generated_images\results_problem_11\sample_1_0008.png,C:\Users\subject\Desktop\SVRT Experiments\SVRT Experiment 3\svrt_images\generated_images\results_problem_8\sample_0_0004.png,C:\Users\subject\Desktop\SVRT Experiments\SVRT Experiment 3\svrt_images\generated_images\results_problem_21\sample_1_0015.png,,,,,,,,,,,,,,,,,,,0,4,4,4,0,21,21,21,,,,,,,,,,,,,,j,21,B,A,23,0,Incorrect!,0.764342000009492,443.3747123000212,None,443.3747123000212,None,444.15806100005284,None,,,,,92,001,2023-05-31_15h31.26.891,uncolored_sorted,2021.2.3,60.00790900482843,
C:\Users\subject\Desktop\SVRT Experiments\SVRT Experiment 3\svrt_images\generated_images\results_problem_21,C:\Users\subject\Desktop\SVRT Experiments\SVRT Experiment 3\svrt_images\generated_images\results_problem_18\sample_0_0004.png,C:\Users\subject\Desktop\SVRT Experiments\SVRT Experiment 3\svrt_images\generated_images\results_problem_15\sample_0_0007.png,C:\Users\subject\Desktop\SVRT Experiments\SVRT Experiment 3\svrt_images\generated_images\results_problem_11\sample_1_0008.png,C:\Users\subject\Desktop\SVRT Experiments\SVRT Experiment 3\svrt_images\generated_images\results_problem_8\sample_0_0004.png,C:\Users\subject\Desktop\SVRT Experiments\SVRT Experiment 3\svrt_images\generated_images\results_problem_21\sample_1_0012.png,,,,,,,,,,,,,,,,,,,0,4,4,4,0,22,22,22,,,,,,,,,,,,,,f,21,A,A,23,1,Correct!,0.6425922999624163,445.424676500028,None,445.424676500028,None,446.10820910008624,None,,,,,92,001,2023-05-31_15h31.26.891,uncolored_sorted,2021.2.3,60.00790900482843,
C:\Users\subject\Desktop\SVRT Experiments\SVRT Experiment 3\svrt_images\generated_images\results_problem_21,C:\Users\subject\Desktop\SVRT Experiments\SVRT Experiment 3\svrt_images\generated_images\results_problem_18\sample_0_0004.png,C:\Users\subject\Desktop\SVRT Experiments\SVRT Experiment 3\svrt_images\generated_images\results_problem_15\sample_0_0007.png,C:\Users\subject\Desktop\SVRT Experiments\SVRT Experiment 3\svrt_images\generated_images\results_problem_11\sample_1_0008.png,C:\Users\subject\Desktop\SVRT Experiments\SVRT Experiment 3\svrt_images\generated_images\results_problem_8\sample_0_0004.png,C:\Users\subject\Desktop\SVRT Experiments\SVRT Experiment 3\svrt_images\generated_images\results_problem_21\sample_0_0006.png,,,,,,,,,,,,,,,,,,,0,4,4,4,0,23,23,23,,,,,,,,,,,,,,f,21,A,B,23,0,Incorrect!,0.915931300027296,447.39130640006624,None,447.39130640006624,None,448.341280200053,None,,,,,92,001,2023-05-31_15h31.26.891,uncolored_sorted,2021.2.3,60.00790900482843,
C:\Users\subject\Desktop\SVRT Experiments\SVRT Experiment 3\svrt_images\generated_images\results_problem_21,C:\Users\subject\Desktop\SVRT Experiments\SVRT Experiment 3\svrt_images\generated_images\results_problem_18\sample_0_0004.png,C:\Users\subject\Desktop\SVRT Experiments\SVRT Experiment 3\svrt_images\generated_images\results_problem_15\sample_0_0007.png,C:\Users\subject\Desktop\SVRT Experiments\SVRT Experiment 3\svrt_images\generated_images\results_problem_11\sample_1_0008.png,C:\Users\subject\Desktop\SVRT Experiments\SVRT Experiment 3\svrt_images\generated_images\results_problem_8\sample_0_0004.png,C:\Users\subject\Desktop\SVRT Experiments\SVRT Experiment 3\svrt_images\generated_images\results_problem_21\sample_0_0001.png,,,,,,,,,,,,,,,,,,,0,4,4,4,0,24,24,24,,,,,,,,,,,,,,f,21,A,B,23,0,Incorrect!,4.370464900042862,449.6245488000568,None,449.6245488000568,None,454.0745256000664,None,,,,,92,001,2023-05-31_15h31.26.891,uncolored_sorted,2021.2.3,60.00790900482843,
C:\Users\subject\Desktop\SVRT Experiments\SVRT Experiment 3\svrt_images\generated_images\results_problem_21,C:\Users\subject\Desktop\SVRT Experiments\SVRT Experiment 3\svrt_images\generated_images\results_problem_18\sample_0_0004.png,C:\Users\subject\Desktop\SVRT Experiments\SVRT Experiment 3\svrt_images\generated_images\results_problem_15\sample_0_0007.png,C:\Users\subject\Desktop\SVRT Experiments\SVRT Experiment 3\svrt_images\generated_images\results_problem_11\sample_1_0008.png,C:\Users\subject\Desktop\SVRT Experiments\SVRT Experiment 3\svrt_images\generated_images\results_problem_8\sample_0_0004.png,C:\Users\subject\Desktop\SVRT Experiments\SVRT Experiment 3\svrt_images\generated_images\results_problem_21\sample_0_0011.png,,,,,,,,,,,,,,,,,,,0,4,4,4,0,25,25,25,,,,,,,,,,,,,,j,21,B,B,23,1,Correct!,4.566772799938917,455.52446250012144,None,455.52446250012144,None,460.1911041000858,None,,,,,92,001,2023-05-31_15h31.26.891,uncolored_sorted,2021.2.3,60.00790900482843,
C:\Users\subject\Desktop\SVRT Experiments\SVRT Experiment 3\svrt_images\generated_images\results_problem_21,C:\Users\subject\Desktop\SVRT Experiments\SVRT Experiment 3\svrt_images\generated_images\results_problem_18\sample_0_0004.png,C:\Users\subject\Desktop\SVRT Experiments\SVRT Experiment 3\svrt_images\generated_images\results_problem_15\sample_0_0007.png,C:\Users\subject\Desktop\SVRT Experiments\SVRT Experiment 3\svrt_images\generated_images\results_problem_11\sample_1_0008.png,C:\Users\subject\Desktop\SVRT Experiments\SVRT Experiment 3\svrt_images\generated_images\results_problem_8\sample_0_0004.png,C:\Users\subject\Desktop\SVRT Experiments\SVRT Experiment 3\svrt_images\generated_images\results_problem_21\sample_0_0010.png,,,,,,,,,,,,,,,,,,,0,4,4,4,0,26,26,26,,,,,,,,,,,,,,f,21,A,B,23,0,Incorrect!,0.799396299989894,461.50769730005413,None,461.50769730005413,None,462.3577164001763,None,,,,,92,001,2023-05-31_15h31.26.891,uncolored_sorted,2021.2.3,60.00790900482843,
C:\Users\subject\Desktop\SVRT Experiments\SVRT Experiment 3\svrt_images\generated_images\results_problem_21,C:\Users\subject\Desktop\SVRT Experiments\SVRT Experiment 3\svrt_images\generated_images\results_problem_18\sample_0_0004.png,C:\Users\subject\Desktop\SVRT Experiments\SVRT Experiment 3\svrt_images\generated_images\results_problem_15\sample_0_0007.png,C:\Users\subject\Desktop\SVRT Experiments\SVRT Experiment 3\svrt_images\generated_images\results_problem_11\sample_1_0008.png,C:\Users\subject\Desktop\SVRT Experiments\SVRT Experiment 3\svrt_images\generated_images\results_problem_8\sample_0_0004.png,C:\Users\subject\Desktop\SVRT Experiments\SVRT Experiment 3\svrt_images\generated_images\results_problem_21\sample_1_0000.png,,,,,,,,,,,,,,,,,,,0,4,4,4,0,27,27,27,,,,,,,,,,,,,,f,21,A,A,23,1,Correct!,1.0321221998892725,463.6909879001323,None,463.6909879001323,None,464.79093610006385,None,,,,,92,001,2023-05-31_15h31.26.891,uncolored_sorted,2021.2.3,60.00790900482843,
C:\Users\subject\Desktop\SVRT Experiments\SVRT Experiment 3\svrt_images\generated_images\results_problem_21,C:\Users\subject\Desktop\SVRT Experiments\SVRT Experiment 3\svrt_images\generated_images\results_problem_18\sample_0_0004.png,C:\Users\subject\Desktop\SVRT Experiments\SVRT Experiment 3\svrt_images\generated_images\results_problem_15\sample_0_0007.png,C:\Users\subject\Desktop\SVRT Experiments\SVRT Experiment 3\svrt_images\generated_images\results_problem_11\sample_1_0008.png,C:\Users\subject\Desktop\SVRT Experiments\SVRT Experiment 3\svrt_images\generated_images\results_problem_8\sample_0_0004.png,C:\Users\subject\Desktop\SVRT Experiments\SVRT Experiment 3\svrt_images\generated_images\results_problem_21\sample_1_0014.png,,,,,,,,,,,,,,,,,,,0,4,4,4,0,28,28,28,,,,,,,,,,,,,,f,21,A,A,23,1,Correct!,0.6860958999022841,466.1409752999898,None,466.1409752999898,None,466.8742427001707,None,,,,,92,001,2023-05-31_15h31.26.891,uncolored_sorted,2021.2.3,60.00790900482843,
C:\Users\subject\Desktop\SVRT Experiments\SVRT Experiment 3\svrt_images\generated_images\results_problem_21,C:\Users\subject\Desktop\SVRT Experiments\SVRT Experiment 3\svrt_images\generated_images\results_problem_18\sample_0_0004.png,C:\Users\subject\Desktop\SVRT Experiments\SVRT Experiment 3\svrt_images\generated_images\results_problem_15\sample_0_0007.png,C:\Users\subject\Desktop\SVRT Experiments\SVRT Experiment 3\svrt_images\generated_images\results_problem_11\sample_1_0008.png,C:\Users\subject\Desktop\SVRT Experiments\SVRT Experiment 3\svrt_images\generated_images\results_problem_8\sample_0_0004.png,C:\Users\subject\Desktop\SVRT Experiments\SVRT Experiment 3\svrt_images\generated_images\results_problem_21\sample_0_0000.png,,,,,,,,,,,,,,,,,,,0,4,4,4,0,29,29,29,,,,,,,,,,,,,,j,21,B,B,23,1,Correct!,0.9549056999385357,468.22422580001876,None,468.22422580001876,None,469.22418340016156,None,,,,,92,001,2023-05-31_15h31.26.891,uncolored_sorted,2021.2.3,60.00790900482843,
C:\Users\subject\Desktop\SVRT Experiments\SVRT Experiment 3\svrt_images\generated_images\results_problem_21,C:\Users\subject\Desktop\SVRT Experiments\SVRT Experiment 3\svrt_images\generated_images\results_problem_18\sample_0_0004.png,C:\Users\subject\Desktop\SVRT Experiments\SVRT Experiment 3\svrt_images\generated_images\results_problem_15\sample_0_0007.png,C:\Users\subject\Desktop\SVRT Experiments\SVRT Experiment 3\svrt_images\generated_images\results_problem_11\sample_1_0008.png,C:\Users\subject\Desktop\SVRT Experiments\SVRT Experiment 3\svrt_images\generated_images\results_problem_8\sample_0_0004.png,C:\Users\subject\Desktop\SVRT Experiments\SVRT Experiment 3\svrt_images\generated_images\results_problem_21\sample_1_0009.png,,,,,,,,,,,,,,,,,,,0,4,4,4,0,30,30,30,,,,,,,,,,,,,,f,21,A,A,23,1,Correct!,2.130863699829206,470.62422220013104,None,470.62422220013104,None,472.85748470015824,None,,,,,92,001,2023-05-31_15h31.26.891,uncolored_sorted,2021.2.3,60.00790900482843,
C:\Users\subject\Desktop\SVRT Experiments\SVRT Experiment 3\svrt_images\generated_images\results_problem_21,C:\Users\subject\Desktop\SVRT Experiments\SVRT Experiment 3\svrt_images\generated_images\results_problem_18\sample_0_0004.png,C:\Users\subject\Desktop\SVRT Experiments\SVRT Experiment 3\svrt_images\generated_images\results_problem_15\sample_0_0007.png,C:\Users\subject\Desktop\SVRT Experiments\SVRT Experiment 3\svrt_images\generated_images\results_problem_11\sample_1_0008.png,C:\Users\subject\Desktop\SVRT Experiments\SVRT Experiment 3\svrt_images\generated_images\results_problem_8\sample_0_0004.png,C:\Users\subject\Desktop\SVRT Experiments\SVRT Experiment 3\svrt_images\generated_images\results_problem_21\sample_1_0003.png,,,,,,,,,,,,,,,,,,,0,4,4,4,0,31,31,31,,,,,,,,,,,,,,f,21,A,A,23,1,Correct!,0.6663466000463814,474.24075300013646,None,474.24075300013646,None,474.9740673999768,None,,,,,92,001,2023-05-31_15h31.26.891,uncolored_sorted,2021.2.3,60.00790900482843,
C:\Users\subject\Desktop\SVRT Experiments\SVRT Experiment 3\svrt_images\generated_images\results_problem_21,C:\Users\subject\Desktop\SVRT Experiments\SVRT Experiment 3\svrt_images\generated_images\results_problem_18\sample_0_0004.png,C:\Users\subject\Desktop\SVRT Experiments\SVRT Experiment 3\svrt_images\generated_images\results_problem_15\sample_0_0007.png,C:\Users\subject\Desktop\SVRT Experiments\SVRT Experiment 3\svrt_images\generated_images\results_problem_11\sample_1_0008.png,C:\Users\subject\Desktop\SVRT Experiments\SVRT Experiment 3\svrt_images\generated_images\results_problem_8\sample_0_0004.png,C:\Users\subject\Desktop\SVRT Experiments\SVRT Experiment 3\svrt_images\generated_images\results_problem_21\sample_0_0014.png,,,,,,,,,,,,,,,,,,,0,4,4,4,0,32,32,32,,,,,,,,,,,,,,j,21,B,B,23,1,Correct!,0.9483576000202447,476.39076180011034,None,476.39076180011034,None,477.4406827001367,None,,,,,92,001,2023-05-31_15h31.26.891,uncolored_sorted,2021.2.3,60.00790900482843,
C:\Users\subject\Desktop\SVRT Experiments\SVRT Experiment 3\svrt_images\generated_images\results_problem_21,C:\Users\subject\Desktop\SVRT Experiments\SVRT Experiment 3\svrt_images\generated_images\results_problem_18\sample_0_0004.png,C:\Users\subject\Desktop\SVRT Experiments\SVRT Experiment 3\svrt_images\generated_images\results_problem_15\sample_0_0007.png,C:\Users\subject\Desktop\SVRT Experiments\SVRT Experiment 3\svrt_images\generated_images\results_problem_11\sample_1_0008.png,C:\Users\subject\Desktop\SVRT Experiments\SVRT Experiment 3\svrt_images\generated_images\results_problem_8\sample_0_0004.png,C:\Users\subject\Desktop\SVRT Experiments\SVRT Experiment 3\svrt_images\generated_images\results_problem_21\sample_0_0007.png,,,,,,,,,,,,,,,,,,,0,4,4,4,0,33,33,33,,,,,,,,,,,,,,f,21,A,B,23,0,Incorrect!,1.0162639000918716,478.8907220000401,None,478.8907220000401,None,479.99064540001564,None,,,,,92,001,2023-05-31_15h31.26.891,uncolored_sorted,2021.2.3,60.00790900482843,
C:\Users\subject\Desktop\SVRT Experiments\SVRT Experiment 3\svrt_images\generated_images\results_problem_21,C:\Users\subject\Desktop\SVRT Experiments\SVRT Experiment 3\svrt_images\generated_images\results_problem_18\sample_0_0004.png,C:\Users\subject\Desktop\SVRT Experiments\SVRT Experiment 3\svrt_images\generated_images\results_problem_15\sample_0_0007.png,C:\Users\subject\Desktop\SVRT Experiments\SVRT Experiment 3\svrt_images\generated_images\results_problem_11\sample_1_0008.png,C:\Users\subject\Desktop\SVRT Experiments\SVRT Experiment 3\svrt_images\generated_images\results_problem_8\sample_0_0004.png,,,,,,,,,,,,,,,,,,,,0,4,4,4,0,16,16,16,,,,,,,,,,,,,,,,,,,,,,,,,,,,480.9907203000039,480.9907203000039,space,1.2524017998948693,92,001,2023-05-31_15h31.26.891,uncolored_sorted,2021.2.3,60.00790900482843,
C:\Users\subject\Desktop\SVRT Experiments\SVRT Experiment 3\svrt_images\generated_images\results_problem_19,C:\Users\subject\Desktop\SVRT Experiments\SVRT Experiment 3\svrt_images\generated_images\results_problem_18\sample_0_0004.png,C:\Users\subject\Desktop\SVRT Experiments\SVRT Experiment 3\svrt_images\generated_images\results_problem_15\sample_0_0007.png,C:\Users\subject\Desktop\SVRT Experiments\SVRT Experiment 3\svrt_images\generated_images\results_problem_11\sample_1_0008.png,C:\Users\subject\Desktop\SVRT Experiments\SVRT Experiment 3\svrt_images\generated_images\results_problem_8\sample_0_0004.png,,C:\Users\subject\Desktop\SVRT Experiments\SVRT Experiment 3\svrt_images\generated_images\results_problem_19\sample_0_0009.png,,,,,,,,,,,,,,,,,,0,5,5,5,0,0,0,0,,,,,,,,,,,,,,f,19,A,B,23,0,Incorrect!,6.857096000108868,482.2739083999768,None,482.2739083999768,None,489.15750450012274,None,,,,,92,001,2023-05-31_15h31.26.891,uncolored_sorted,2021.2.3,60.00790900482843,
C:\Users\subject\Desktop\SVRT Experiments\SVRT Experiment 3\svrt_images\generated_images\results_problem_19,C:\Users\subject\Desktop\SVRT Experiments\SVRT Experiment 3\svrt_images\generated_images\results_problem_18\sample_0_0004.png,C:\Users\subject\Desktop\SVRT Experiments\SVRT Experiment 3\svrt_images\generated_images\results_problem_15\sample_0_0007.png,C:\Users\subject\Desktop\SVRT Experiments\SVRT Experiment 3\svrt_images\generated_images\results_problem_11\sample_1_0008.png,C:\Users\subject\Desktop\SVRT Experiments\SVRT Experiment 3\svrt_images\generated_images\results_problem_8\sample_0_0004.png,,C:\Users\subject\Desktop\SVRT Experiments\SVRT Experiment 3\svrt_images\generated_images\results_problem_19\sample_0_0016.png,,,,,,,,,,,,,,,,,,0,5,5,5,0,1,1,1,,,,,,,,,,,,,,j,19,B,B,23,1,Correct!,0.9972331000026315,490.17383370012976,None,490.17383370012976,None,491.1904692000244,None,,,,,92,001,2023-05-31_15h31.26.891,uncolored_sorted,2021.2.3,60.00790900482843,
C:\Users\subject\Desktop\SVRT Experiments\SVRT Experiment 3\svrt_images\generated_images\results_problem_19,C:\Users\subject\Desktop\SVRT Experiments\SVRT Experiment 3\svrt_images\generated_images\results_problem_18\sample_0_0004.png,C:\Users\subject\Desktop\SVRT Experiments\SVRT Experiment 3\svrt_images\generated_images\results_problem_15\sample_0_0007.png,C:\Users\subject\Desktop\SVRT Experiments\SVRT Experiment 3\svrt_images\generated_images\results_problem_11\sample_1_0008.png,C:\Users\subject\Desktop\SVRT Experiments\SVRT Experiment 3\svrt_images\generated_images\results_problem_8\sample_0_0004.png,,C:\Users\subject\Desktop\SVRT Experiments\SVRT Experiment 3\svrt_images\generated_images\results_problem_19\sample_1_0007.png,,,,,,,,,,,,,,,,,,0,5,5,5,0,2,2,2,,,,,,,,,,,,,,f,19,A,A,23,1,Correct!,1.4760195999406278,492.20710230013356,None,492.20710230013356,None,493.7070963999722,None,,,,,92,001,2023-05-31_15h31.26.891,uncolored_sorted,2021.2.3,60.00790900482843,
C:\Users\subject\Desktop\SVRT Experiments\SVRT Experiment 3\svrt_images\generated_images\results_problem_19,C:\Users\subject\Desktop\SVRT Experiments\SVRT Experiment 3\svrt_images\generated_images\results_problem_18\sample_0_0004.png,C:\Users\subject\Desktop\SVRT Experiments\SVRT Experiment 3\svrt_images\generated_images\results_problem_15\sample_0_0007.png,C:\Users\subject\Desktop\SVRT Experiments\SVRT Experiment 3\svrt_images\generated_images\results_problem_11\sample_1_0008.png,C:\Users\subject\Desktop\SVRT Experiments\SVRT Experiment 3\svrt_images\generated_images\results_problem_8\sample_0_0004.png,,C:\Users\subject\Desktop\SVRT Experiments\SVRT Experiment 3\svrt_images\generated_images\results_problem_19\sample_1_0016.png,,,,,,,,,,,,,,,,,,0,5,5,5,0,3,3,3,,,,,,,,,,,,,,f,19,A,A,23,1,Correct!,2.6146270998287946,494.74041540012695,None,494.74041540012695,None,497.37362010008655,None,,,,,92,001,2023-05-31_15h31.26.891,uncolored_sorted,2021.2.3,60.00790900482843,
C:\Users\subject\Desktop\SVRT Experiments\SVRT Experiment 3\svrt_images\generated_images\results_problem_19,C:\Users\subject\Desktop\SVRT Experiments\SVRT Experiment 3\svrt_images\generated_images\results_problem_18\sample_0_0004.png,C:\Users\subject\Desktop\SVRT Experiments\SVRT Experiment 3\svrt_images\generated_images\results_problem_15\sample_0_0007.png,C:\Users\subject\Desktop\SVRT Experiments\SVRT Experiment 3\svrt_images\generated_images\results_problem_11\sample_1_0008.png,C:\Users\subject\Desktop\SVRT Experiments\SVRT Experiment 3\svrt_images\generated_images\results_problem_8\sample_0_0004.png,,C:\Users\subject\Desktop\SVRT Experiments\SVRT Experiment 3\svrt_images\generated_images\results_problem_19\sample_1_0005.png,,,,,,,,,,,,,,,,,,0,5,5,5,0,4,4,4,,,,,,,,,,,,,,f,19,A,A,23,1,Correct!,0.8674787001218647,498.42367430008017,None,498.42367430008017,None,499.3236561000813,None,,,,,92,001,2023-05-31_15h31.26.891,uncolored_sorted,2021.2.3,60.00790900482843,
C:\Users\subject\Desktop\SVRT Experiments\SVRT Experiment 3\svrt_images\generated_images\results_problem_19,C:\Users\subject\Desktop\SVRT Experiments\SVRT Experiment 3\svrt_images\generated_images\results_problem_18\sample_0_0004.png,C:\Users\subject\Desktop\SVRT Experiments\SVRT Experiment 3\svrt_images\generated_images\results_problem_15\sample_0_0007.png,C:\Users\subject\Desktop\SVRT Experiments\SVRT Experiment 3\svrt_images\generated_images\results_problem_11\sample_1_0008.png,C:\Users\subject\Desktop\SVRT Experiments\SVRT Experiment 3\svrt_images\generated_images\results_problem_8\sample_0_0004.png,,C:\Users\subject\Desktop\SVRT Experiments\SVRT Experiment 3\svrt_images\generated_images\results_problem_19\sample_0_0003.png,,,,,,,,,,,,,,,,,,0,5,5,5,0,5,5,5,,,,,,,,,,,,,,j,19,B,B,23,1,Correct!,0.6135734000708908,500.37356550013646,None,500.37356550013646,None,501.0069379999768,None,,,,,92,001,2023-05-31_15h31.26.891,uncolored_sorted,2021.2.3,60.00790900482843,
C:\Users\subject\Desktop\SVRT Experiments\SVRT Experiment 3\svrt_images\generated_images\results_problem_19,C:\Users\subject\Desktop\SVRT Experiments\SVRT Experiment 3\svrt_images\generated_images\results_problem_18\sample_0_0004.png,C:\Users\subject\Desktop\SVRT Experiments\SVRT Experiment 3\svrt_images\generated_images\results_problem_15\sample_0_0007.png,C:\Users\subject\Desktop\SVRT Experiments\SVRT Experiment 3\svrt_images\generated_images\results_problem_11\sample_1_0008.png,C:\Users\subject\Desktop\SVRT Experiments\SVRT Experiment 3\svrt_images\generated_images\results_problem_8\sample_0_0004.png,,C:\Users\subject\Desktop\SVRT Experiments\SVRT Experiment 3\svrt_images\generated_images\results_problem_19\sample_1_0002.png,,,,,,,,,,,,,,,,,,0,5,5,5,0,6,6,6,,,,,,,,,,,,,,f,19,A,A,23,1,Correct!,0.9936194999609143,502.0735814999789,None,502.0735814999789,None,503.0902603000868,None,,,,,92,001,2023-05-31_15h31.26.891,uncolored_sorted,2021.2.3,60.00790900482843,
C:\Users\subject\Desktop\SVRT Experiments\SVRT Experiment 3\svrt_images\generated_images\results_problem_19,C:\Users\subject\Desktop\SVRT Experiments\SVRT Experiment 3\svrt_images\generated_images\results_problem_18\sample_0_0004.png,C:\Users\subject\Desktop\SVRT Experiments\SVRT Experiment 3\svrt_images\generated_images\results_problem_15\sample_0_0007.png,C:\Users\subject\Desktop\SVRT Experiments\SVRT Experiment 3\svrt_images\generated_images\results_problem_11\sample_1_0008.png,C:\Users\subject\Desktop\SVRT Experiments\SVRT Experiment 3\svrt_images\generated_images\results_problem_8\sample_0_0004.png,,C:\Users\subject\Desktop\SVRT Experiments\SVRT Experiment 3\svrt_images\generated_images\results_problem_19\sample_0_0010.png,,,,,,,,,,,,,,,,,,0,5,5,5,0,7,7,7,,,,,,,,,,,,,,j,19,B,B,23,1,Correct!,1.1256309000309557,504.1735495000612,None,504.1735495000612,None,505.3235377999954,None,,,,,92,001,2023-05-31_15h31.26.891,uncolored_sorted,2021.2.3,60.00790900482843,
C:\Users\subject\Desktop\SVRT Experiments\SVRT Experiment 3\svrt_images\generated_images\results_problem_19,C:\Users\subject\Desktop\SVRT Experiments\SVRT Experiment 3\svrt_images\generated_images\results_problem_18\sample_0_0004.png,C:\Users\subject\Desktop\SVRT Experiments\SVRT Experiment 3\svrt_images\generated_images\results_problem_15\sample_0_0007.png,C:\Users\subject\Desktop\SVRT Experiments\SVRT Experiment 3\svrt_images\generated_images\results_problem_11\sample_1_0008.png,C:\Users\subject\Desktop\SVRT Experiments\SVRT Experiment 3\svrt_images\generated_images\results_problem_8\sample_0_0004.png,,C:\Users\subject\Desktop\SVRT Experiments\SVRT Experiment 3\svrt_images\generated_images\results_problem_19\sample_1_0010.png,,,,,,,,,,,,,,,,,,0,5,5,5,0,8,8,8,,,,,,,,,,,,,,,,,,,,,,,,,,,,506.32351080002263,506.32351080002263,space,1.0635957999620587,92,001,2023-05-31_15h31.26.891,uncolored_sorted,2021.2.3,60.00790900482843,
C:\Users\subject\Desktop\SVRT Experiments\SVRT Experiment 3\svrt_images\generated_images\results_problem_3,C:\Users\subject\Desktop\SVRT Experiments\SVRT Experiment 3\svrt_images\generated_images\results_problem_18\sample_0_0004.png,C:\Users\subject\Desktop\SVRT Experiments\SVRT Experiment 3\svrt_images\generated_images\results_problem_15\sample_0_0007.png,C:\Users\subject\Desktop\SVRT Experiments\SVRT Experiment 3\svrt_images\generated_images\results_problem_11\sample_1_0008.png,C:\Users\subject\Desktop\SVRT Experiments\SVRT Experiment 3\svrt_images\generated_images\results_problem_8\sample_0_0004.png,,C:\Users\subject\Desktop\SVRT Experiments\SVRT Experiment 3\svrt_images\generated_images\results_problem_19\sample_1_0010.png,C:\Users\subject\Desktop\SVRT Experiments\SVRT Experiment 3\svrt_images\generated_images\results_problem_3\sample_0_0002.png,,,,,,,,,,,,,,,,,0,6,6,6,0,0,0,0,,,,,,,,,,,,,,f,3,A,B,23,0,Incorrect!,3.1805027001537383,507.4068066000473,None,507.4068066000473,None,510.606768600177,None,,,,,92,001,2023-05-31_15h31.26.891,uncolored_sorted,2021.2.3,60.00790900482843,
C:\Users\subject\Desktop\SVRT Experiments\SVRT Experiment 3\svrt_images\generated_images\results_problem_3,C:\Users\subject\Desktop\SVRT Experiments\SVRT Experiment 3\svrt_images\generated_images\results_problem_18\sample_0_0004.png,C:\Users\subject\Desktop\SVRT Experiments\SVRT Experiment 3\svrt_images\generated_images\results_problem_15\sample_0_0007.png,C:\Users\subject\Desktop\SVRT Experiments\SVRT Experiment 3\svrt_images\generated_images\results_problem_11\sample_1_0008.png,C:\Users\subject\Desktop\SVRT Experiments\SVRT Experiment 3\svrt_images\generated_images\results_problem_8\sample_0_0004.png,,C:\Users\subject\Desktop\SVRT Experiments\SVRT Experiment 3\svrt_images\generated_images\results_problem_19\sample_1_0010.png,C:\Users\subject\Desktop\SVRT Experiments\SVRT Experiment 3\svrt_images\generated_images\results_problem_3\sample_0_0004.png,,,,,,,,,,,,,,,,,0,6,6,6,0,1,1,1,,,,,,,,,,,,,,j,3,B,B,23,1,Correct!,2.5157129000872374,511.6234393999912,None,511.6234393999912,None,514.1567041000817,None,,,,,92,001,2023-05-31_15h31.26.891,uncolored_sorted,2021.2.3,60.00790900482843,
C:\Users\subject\Desktop\SVRT Experiments\SVRT Experiment 3\svrt_images\generated_images\results_problem_3,C:\Users\subject\Desktop\SVRT Experiments\SVRT Experiment 3\svrt_images\generated_images\results_problem_18\sample_0_0004.png,C:\Users\subject\Desktop\SVRT Experiments\SVRT Experiment 3\svrt_images\generated_images\results_problem_15\sample_0_0007.png,C:\Users\subject\Desktop\SVRT Experiments\SVRT Experiment 3\svrt_images\generated_images\results_problem_11\sample_1_0008.png,C:\Users\subject\Desktop\SVRT Experiments\SVRT Experiment 3\svrt_images\generated_images\results_problem_8\sample_0_0004.png,,C:\Users\subject\Desktop\SVRT Experiments\SVRT Experiment 3\svrt_images\generated_images\results_problem_19\sample_1_0010.png,C:\Users\subject\Desktop\SVRT Experiments\SVRT Experiment 3\svrt_images\generated_images\results_problem_3\sample_1_0006.png,,,,,,,,,,,,,,,,,0,6,6,6,0,2,2,2,,,,,,,,,,,,,,f,3,A,A,23,1,Correct!,0.8778332998044789,515.1733423999976,None,515.1733423999976,None,516.0733394001145,None,,,,,92,001,2023-05-31_15h31.26.891,uncolored_sorted,2021.2.3,60.00790900482843,
C:\Users\subject\Desktop\SVRT Experiments\SVRT Experiment 3\svrt_images\generated_images\results_problem_3,C:\Users\subject\Desktop\SVRT Experiments\SVRT Experiment 3\svrt_images\generated_images\results_problem_18\sample_0_0004.png,C:\Users\subject\Desktop\SVRT Experiments\SVRT Experiment 3\svrt_images\generated_images\results_problem_15\sample_0_0007.png,C:\Users\subject\Desktop\SVRT Experiments\SVRT Experiment 3\svrt_images\generated_images\results_problem_11\sample_1_0008.png,C:\Users\subject\Desktop\SVRT Experiments\SVRT Experiment 3\svrt_images\generated_images\results_problem_8\sample_0_0004.png,,C:\Users\subject\Desktop\SVRT Experiments\SVRT Experiment 3\svrt_images\generated_images\results_problem_19\sample_1_0010.png,C:\Users\subject\Desktop\SVRT Experiments\SVRT Experiment 3\svrt_images\generated_images\results_problem_3\sample_0_0005.png,,,,,,,,,,,,,,,,,0,6,6,6,0,3,3,3,,,,,,,,,,,,,,j,3,B,B,23,1,Correct!,0.5365718000102788,517.1065925001167,None,517.1065925001167,None,517.6733217001893,None,,,,,92,001,2023-05-31_15h31.26.891,uncolored_sorted,2021.2.3,60.00790900482843,
C:\Users\subject\Desktop\SVRT Experiments\SVRT Experiment 3\svrt_images\generated_images\results_problem_3,C:\Users\subject\Desktop\SVRT Experiments\SVRT Experiment 3\svrt_images\generated_images\results_problem_18\sample_0_0004.png,C:\Users\subject\Desktop\SVRT Experiments\SVRT Experiment 3\svrt_images\generated_images\results_problem_15\sample_0_0007.png,C:\Users\subject\Desktop\SVRT Experiments\SVRT Experiment 3\svrt_images\generated_images\results_problem_11\sample_1_0008.png,C:\Users\subject\Desktop\SVRT Experiments\SVRT Experiment 3\svrt_images\generated_images\results_problem_8\sample_0_0004.png,,C:\Users\subject\Desktop\SVRT Experiments\SVRT Experiment 3\svrt_images\generated_images\results_problem_19\sample_1_0010.png,C:\Users\subject\Desktop\SVRT Experiments\SVRT Experiment 3\svrt_images\generated_images\results_problem_3\sample_1_0016.png,,,,,,,,,,,,,,,,,0,6,6,6,0,4,4,4,,,,,,,,,,,,,,f,3,A,A,23,1,Correct!,0.6239289999939501,518.7233055999968,None,518.7233055999968,None,519.3732644000556,None,,,,,92,001,2023-05-31_15h31.26.891,uncolored_sorted,2021.2.3,60.00790900482843,
C:\Users\subject\Desktop\SVRT Experiments\SVRT Experiment 3\svrt_images\generated_images\results_problem_3,C:\Users\subject\Desktop\SVRT Experiments\SVRT Experiment 3\svrt_images\generated_images\results_problem_18\sample_0_0004.png,C:\Users\subject\Desktop\SVRT Experiments\SVRT Experiment 3\svrt_images\generated_images\results_problem_15\sample_0_0007.png,C:\Users\subject\Desktop\SVRT Experiments\SVRT Experiment 3\svrt_images\generated_images\results_problem_11\sample_1_0008.png,C:\Users\subject\Desktop\SVRT Experiments\SVRT Experiment 3\svrt_images\generated_images\results_problem_8\sample_0_0004.png,,C:\Users\subject\Desktop\SVRT Experiments\SVRT Experiment 3\svrt_images\generated_images\results_problem_19\sample_1_0010.png,C:\Users\subject\Desktop\SVRT Experiments\SVRT Experiment 3\svrt_images\generated_images\results_problem_3\sample_0_0011.png,,,,,,,,,,,,,,,,,0,6,6,6,0,5,5,5,,,,,,,,,,,,,,j,3,B,B,23,1,Correct!,0.6119270999915898,520.4232307001948,None,520.4232307001948,None,521.0565685001202,None,,,,,92,001,2023-05-31_15h31.26.891,uncolored_sorted,2021.2.3,60.00790900482843,
