folder,results_problem_9,results_problem_13,results_problem_1,results_problem_7,results_problem_17,results_problem_6,results_problem_14,results_problem_23,results_problem_15,results_problem_19,results_problem_10,results_problem_5,results_problem_12,results_problem_18,results_problem_8,results_problem_2,results_problem_22,results_problem_3,results_problem_20,results_problem_16,results_problem_21,results_problem_11,results_problem_4,categories.thisRepN,categories.thisTrialN,categories.thisN,categories.thisIndex,trials.thisRepN,trials.thisTrialN,trials.thisN,trials.thisIndex,consent_text.started,consent_kb.started,consent_kb.keys,consent_kb.rt,Gender.keys,Gender.rt,Age,instructions_text.started,instructions_text.stopped,instructions_kb.keys,instructions_kb.rt,instructions_kb.started,instructions_kb.stopped,trial_kb.keys,current_problem_num,category_resp,answer,seed,accuracy,feedback,trial_kb.rt,trial_kb.started,trial_kb.stopped,trial_image.started,trial_image.stopped,feedback_text.started,feedback_text.stopped,new_problem_kb.started,new_problem_text.started,new_problem_kb.keys,new_problem_kb.rt,Participant #,session,date,expName,psychopyVersion,frameRate,
,,,,,,,,,,,,,,,,,,,,,,,,,,,,,,,,8.794908200157806,8.794908200157806,y,28.92961430014111,,,,,,,,,,,,,,,,,,,,,,,,,,,,97,001,2023-06-01_13h12.33.182,uncolored_shuffled,2021.2.3,59.967929186515214,
,,,,,,,,,,,,,,,,,,,,,,,,,,,,,,,,,,,,w,15.253729799995199,,,,,,,,,,,,,,,,,,,,,,,,,,97,001,2023-06-01_13h12.33.182,uncolored_shuffled,2021.2.3,59.967929186515214,
,,,,,,,,,,,,,,,,,,,,,,,,,,,,,,,,,,,,,,20,64.05376760009676,None,space,82.90185460005887,64.05376760009676,None,,,,,,,,,,,,,,,,,,,97,001,2023-06-01_13h12.33.182,uncolored_shuffled,2021.2.3,59.967929186515214,
C:\Users\subject\Desktop\SVRT Experiments\SVRT Experiment 3\svrt_images\generated_images\results_problem_9,C:\Users\subject\Desktop\SVRT Experiments\SVRT Experiment 3\svrt_images\generated_images\results_problem_9\sample_0_0000.png,,,,,,,,,,,,,,,,,,,,,,,0,0,0,0,0,0,0,0,,,,,,,,,,,,,,f,9,A,B,25,0,Incorrect!,23.900484699988738,146.98300490016118,None,146.98300490016118,None,170.9010424001608,None,,,,,97,001,2023-06-01_13h12.33.182,uncolored_shuffled,2021.2.3,59.967929186515214,
C:\Users\subject\Desktop\SVRT Experiments\SVRT Experiment 3\svrt_images\generated_images\results_problem_9,C:\Users\subject\Desktop\SVRT Experiments\SVRT Experiment 3\svrt_images\generated_images\results_problem_9\sample_1_0010.png,,,,,,,,,,,,,,,,,,,,,,,0,0,0,0,0,1,1,1,,,,,,,,,,,,,,j,9,B,A,25,0,Incorrect!,18.861549199791625,171.90179800009355,None,171.90179800009355,None,190.7827033000067,None,,,,,97,001,2023-06-01_13h12.33.182,uncolored_shuffled,2021.2.3,59.967929186515214,
C:\Users\subject\Desktop\SVRT Experiments\SVRT Experiment 3\svrt_images\generated_images\results_problem_9,C:\Users\subject\Desktop\SVRT Experiments\SVRT Experiment 3\svrt_images\generated_images\results_problem_9\sample_1_0014.png,,,,,,,,,,,,,,,,,,,,,,,0,0,0,0,0,2,2,2,,,,,,,,,,,,,,j,9,B,A,25,0,Incorrect!,3.86716609983705,191.80014470010065,None,191.80014470010065,None,195.68640260002576,None,,,,,97,001,2023-06-01_13h12.33.182,uncolored_shuffled,2021.2.3,59.967929186515214,
C:\Users\subject\Desktop\SVRT Experiments\SVRT Experiment 3\svrt_images\generated_images\results_problem_9,C:\Users\subject\Desktop\SVRT Experiments\SVRT Experiment 3\svrt_images\generated_images\results_problem_9\sample_1_0015.png,,,,,,,,,,,,,,,,,,,,,,,0,0,0,0,0,3,3,3,,,,,,,,,,,,,,f,9,A,A,25,1,Correct!,1.4834651998244226,196.70383280003443,None,196.70383280003443,None,198.20497130020522,None,,,,,97,001,2023-06-01_13h12.33.182,uncolored_shuffled,2021.2.3,59.967929186515214,
C:\Users\subject\Desktop\SVRT Experiments\SVRT Experiment 3\svrt_images\generated_images\results_problem_9,C:\Users\subject\Desktop\SVRT Experiments\SVRT Experiment 3\svrt_images\generated_images\results_problem_9\sample_1_0016.png,,,,,,,,,,,,,,,,,,,,,,,0,0,0,0,0,4,4,4,,,,,,,,,,,,,,f,9,A,A,25,1,Correct!,1.9961637000087649,199.2390890000388,None,199.2390890000388,None,201.25724240019917,None,,,,,97,001,2023-06-01_13h12.33.182,uncolored_shuffled,2021.2.3,59.967929186515214,
C:\Users\subject\Desktop\SVRT Experiments\SVRT Experiment 3\svrt_images\generated_images\results_problem_9,C:\Users\subject\Desktop\SVRT Experiments\SVRT Experiment 3\svrt_images\generated_images\results_problem_9\sample_0_0012.png,,,,,,,,,,,,,,,,,,,,,,,0,0,0,0,0,5,5,5,,,,,,,,,,,,,,f,9,A,B,25,0,Incorrect!,4.0078125,202.29138170019723,None,202.29138170019723,None,206.32776870019734,None,,,,,97,001,2023-06-01_13h12.33.182,uncolored_shuffled,2021.2.3,59.967929186515214,
C:\Users\subject\Desktop\SVRT Experiments\SVRT Experiment 3\svrt_images\generated_images\results_problem_9,C:\Users\subject\Desktop\SVRT Experiments\SVRT Experiment 3\svrt_images\generated_images\results_problem_9\sample_0_0015.png,,,,,,,,,,,,,,,,,,,,,,,0,0,0,0,0,6,6,6,,,,,,,,,,,,,,f,9,A,B,25,0,Incorrect!,1.1206356000620872,207.37856209999882,None,207.37856209999882,None,208.52942170016468,None,,,,,97,001,2023-06-01_13h12.33.182,uncolored_shuffled,2021.2.3,59.967929186515214,
C:\Users\subject\Desktop\SVRT Experiments\SVRT Experiment 3\svrt_images\generated_images\results_problem_9,C:\Users\subject\Desktop\SVRT Experiments\SVRT Experiment 3\svrt_images\generated_images\results_problem_9\sample_0_0011.png,,,,,,,,,,,,,,,,,,,,,,,0,0,0,0,0,7,7,7,,,,,,,,,,,,,,j,9,B,B,25,1,Correct!,1.0310352998785675,209.58017400000244,None,209.58017400000244,None,210.63100829999894,None,,,,,97,001,2023-06-01_13h12.33.182,uncolored_shuffled,2021.2.3,59.967929186515214,
C:\Users\subject\Desktop\SVRT Experiments\SVRT Experiment 3\svrt_images\generated_images\results_problem_9,C:\Users\subject\Desktop\SVRT Experiments\SVRT Experiment 3\svrt_images\generated_images\results_problem_9\sample_0_0003.png,,,,,,,,,,,,,,,,,,,,,,,0,0,0,0,0,8,8,8,,,,,,,,,,,,,,j,9,B,B,25,1,Correct!,0.6006869000848383,211.69849940016866,None,211.69849940016866,None,212.33229090017267,None,,,,,97,001,2023-06-01_13h12.33.182,uncolored_shuffled,2021.2.3,59.967929186515214,
C:\Users\subject\Desktop\SVRT Experiments\SVRT Experiment 3\svrt_images\generated_images\results_problem_9,C:\Users\subject\Desktop\SVRT Experiments\SVRT Experiment 3\svrt_images\generated_images\results_problem_9\sample_1_0003.png,,,,,,,,,,,,,,,,,,,,,,,0,0,0,0,0,9,9,9,,,,,,,,,,,,,,j,9,B,A,25,0,Incorrect!,0.7794496000278741,213.39974590018392,None,213.39974590018392,None,214.20036300015636,None,,,,,97,001,2023-06-01_13h12.33.182,uncolored_shuffled,2021.2.3,59.967929186515214,
C:\Users\subject\Desktop\SVRT Experiments\SVRT Experiment 3\svrt_images\generated_images\results_problem_9,C:\Users\subject\Desktop\SVRT Experiments\SVRT Experiment 3\svrt_images\generated_images\results_problem_9\sample_0_0010.png,,,,,,,,,,,,,,,,,,,,,,,0,0,0,0,0,10,10,10,,,,,,,,,,,,,,f,9,A,B,25,0,Incorrect!,0.6466376001480967,215.28452380001545,None,215.28452380001545,None,215.9516881001182,None,,,,,97,001,2023-06-01_13h12.33.182,uncolored_shuffled,2021.2.3,59.967929186515214,
C:\Users\subject\Desktop\SVRT Experiments\SVRT Experiment 3\svrt_images\generated_images\results_problem_9,C:\Users\subject\Desktop\SVRT Experiments\SVRT Experiment 3\svrt_images\generated_images\results_problem_9\sample_1_0013.png,,,,,,,,,,,,,,,,,,,,,,,0,0,0,0,0,11,11,11,,,,,,,,,,,,,,j,9,B,A,25,0,Incorrect!,0.5593030999880284,217.03584590018727,None,217.03584590018727,None,217.6196141000837,None,,,,,97,001,2023-06-01_13h12.33.182,uncolored_shuffled,2021.2.3,59.967929186515214,
C:\Users\subject\Desktop\SVRT Experiments\SVRT Experiment 3\svrt_images\generated_images\results_problem_9,C:\Users\subject\Desktop\SVRT Experiments\SVRT Experiment 3\svrt_images\generated_images\results_problem_9\sample_0_0006.png,,,,,,,,,,,,,,,,,,,,,,,0,0,0,0,0,12,12,12,,,,,,,,,,,,,,f,9,A,B,25,0,Incorrect!,27.986536599928513,218.72042430005968,None,218.72042430005968,None,246.72485460015014,None,,,,,97,001,2023-06-01_13h12.33.182,uncolored_shuffled,2021.2.3,59.967929186515214,
C:\Users\subject\Desktop\SVRT Experiments\SVRT Experiment 3\svrt_images\generated_images\results_problem_9,C:\Users\subject\Desktop\SVRT Experiments\SVRT Experiment 3\svrt_images\generated_images\results_problem_9\sample_1_0009.png,,,,,,,,,,,,,,,,,,,,,,,0,0,0,0,0,13,13,13,,,,,,,,,,,,,,j,9,B,A,25,0,Incorrect!,9.19240770000033,247.8424209000077,None,247.8424209000077,None,257.0660086001735,None,,,,,97,001,2023-06-01_13h12.33.182,uncolored_shuffled,2021.2.3,59.967929186515214,
C:\Users\subject\Desktop\SVRT Experiments\SVRT Experiment 3\svrt_images\generated_images\results_problem_9,C:\Users\subject\Desktop\SVRT Experiments\SVRT Experiment 3\svrt_images\generated_images\results_problem_9\sample_0_0004.png,,,,,,,,,,,,,,,,,,,,,,,0,0,0,0,0,14,14,14,,,,,,,,,,,,,,f,9,A,B,25,0,Incorrect!,13.283236099872738,258.1835449000355,None,258.1835449000355,None,271.4935556000564,None,,,,,97,001,2023-06-01_13h12.33.182,uncolored_shuffled,2021.2.3,59.967929186515214,
C:\Users\subject\Desktop\SVRT Experiments\SVRT Experiment 3\svrt_images\generated_images\results_problem_9,C:\Users\subject\Desktop\SVRT Experiments\SVRT Experiment 3\svrt_images\generated_images\results_problem_9\sample_0_0001.png,,,,,,,,,,,,,,,,,,,,,,,0,0,0,0,0,15,15,15,,,,,,,,,,,,,,f,9,A,B,25,0,Incorrect!,7.5828978000208735,272.62777270004153,None,272.62777270004153,None,280.2335119000636,None,,,,,97,001,2023-06-01_13h12.33.182,uncolored_shuffled,2021.2.3,59.967929186515214,
C:\Users\subject\Desktop\SVRT Experiments\SVRT Experiment 3\svrt_images\generated_images\results_problem_9,C:\Users\subject\Desktop\SVRT Experiments\SVRT Experiment 3\svrt_images\generated_images\results_problem_9\sample_0_0005.png,,,,,,,,,,,,,,,,,,,,,,,0,0,0,0,0,16,16,16,,,,,,,,,,,,,,j,9,B,B,25,1,Correct!,1.2110350001603365,281.36765760020353,None,281.36765760020353,None,282.60196420014836,None,,,,,97,001,2023-06-01_13h12.33.182,uncolored_shuffled,2021.2.3,59.967929186515214,
C:\Users\subject\Desktop\SVRT Experiments\SVRT Experiment 3\svrt_images\generated_images\results_problem_9,C:\Users\subject\Desktop\SVRT Experiments\SVRT Experiment 3\svrt_images\generated_images\results_problem_9\sample_1_0011.png,,,,,,,,,,,,,,,,,,,,,,,0,0,0,0,0,17,17,17,,,,,,,,,,,,,,f,9,A,A,25,1,Correct!,4.4417842999100685,283.75282260007225,None,283.75282260007225,None,288.23953550006263,None,,,,,97,001,2023-06-01_13h12.33.182,uncolored_shuffled,2021.2.3,59.967929186515214,
C:\Users\subject\Desktop\SVRT Experiments\SVRT Experiment 3\svrt_images\generated_images\results_problem_9,C:\Users\subject\Desktop\SVRT Experiments\SVRT Experiment 3\svrt_images\generated_images\results_problem_9\sample_1_0007.png,,,,,,,,,,,,,,,,,,,,,,,0,0,0,0,0,18,18,18,,,,,,,,,,,,,,j,9,B,A,25,0,Incorrect!,10.963444099994376,289.40709100011736,None,289.40709100011736,None,300.39872200018726,None,,,,,97,001,2023-06-01_13h12.33.182,uncolored_shuffled,2021.2.3,59.967929186515214,
C:\Users\subject\Desktop\SVRT Experiments\SVRT Experiment 3\svrt_images\generated_images\results_problem_9,C:\Users\subject\Desktop\SVRT Experiments\SVRT Experiment 3\svrt_images\generated_images\results_problem_9\sample_0_0014.png,,,,,,,,,,,,,,,,,,,,,,,0,0,0,0,0,19,19,19,,,,,,,,,,,,,,f,9,A,B,25,0,Incorrect!,8.652225299971178,301.566268700175,None,301.566268700175,None,310.25614310009405,None,,,,,97,001,2023-06-01_13h12.33.182,uncolored_shuffled,2021.2.3,59.967929186515214,
C:\Users\subject\Desktop\SVRT Experiments\SVRT Experiment 3\svrt_images\generated_images\results_problem_9,C:\Users\subject\Desktop\SVRT Experiments\SVRT Experiment 3\svrt_images\generated_images\results_problem_9\sample_1_0008.png,,,,,,,,,,,,,,,,,,,,,,,0,0,0,0,0,20,20,20,,,,,,,,,,,,,,f,9,A,A,25,1,Correct!,7.090729800052941,311.42369760014117,None,311.42369760014117,None,318.545730400132,None,,,,,97,001,2023-06-01_13h12.33.182,uncolored_shuffled,2021.2.3,59.967929186515214,
C:\Users\subject\Desktop\SVRT Experiments\SVRT Experiment 3\svrt_images\generated_images\results_problem_9,C:\Users\subject\Desktop\SVRT Experiments\SVRT Experiment 3\svrt_images\generated_images\results_problem_9\sample_1_0005.png,,,,,,,,,,,,,,,,,,,,,,,0,0,0,0,0,21,21,21,,,,,,,,,,,,,,j,9,B,A,25,0,Incorrect!,7.744389100000262,319.72997170011513,None,319.72997170011513,None,327.51916270004585,None,,,,,97,001,2023-06-01_13h12.33.182,uncolored_shuffled,2021.2.3,59.967929186515214,
C:\Users\subject\Desktop\SVRT Experiments\SVRT Experiment 3\svrt_images\generated_images\results_problem_9,C:\Users\subject\Desktop\SVRT Experiments\SVRT Experiment 3\svrt_images\generated_images\results_problem_9\sample_0_0013.png,,,,,,,,,,,,,,,,,,,,,,,0,0,0,0,0,22,22,22,,,,,,,,,,,,,,j,9,B,B,25,1,Correct!,8.098222200060263,328.7200718000531,None,328.7200718000531,None,336.84285890008323,None,,,,,97,001,2023-06-01_13h12.33.182,uncolored_shuffled,2021.2.3,59.967929186515214,
C:\Users\subject\Desktop\SVRT Experiments\SVRT Experiment 3\svrt_images\generated_images\results_problem_9,C:\Users\subject\Desktop\SVRT Experiments\SVRT Experiment 3\svrt_images\generated_images\results_problem_9\sample_0_0007.png,,,,,,,,,,,,,,,,,,,,,,,0,0,0,0,0,23,23,23,,,,,,,,,,,,,,f,9,A,B,25,0,Incorrect!,20.814364599995315,338.043766700197,None,338.043766700197,None,358.8761446001008,None,,,,,97,001,2023-06-01_13h12.33.182,uncolored_shuffled,2021.2.3,59.967929186515214,
C:\Users\subject\Desktop\SVRT Experiments\SVRT Experiment 3\svrt_images\generated_images\results_problem_9,C:\Users\subject\Desktop\SVRT Experiments\SVRT Experiment 3\svrt_images\generated_images\results_problem_9\sample_1_0002.png,,,,,,,,,,,,,,,,,,,,,,,0,0,0,0,0,24,24,24,,,,,,,,,,,,,,f,9,A,A,25,1,Correct!,3.1164716000203043,360.0937399000395,None,360.0937399000395,None,363.2294256000314,None,,,,,97,001,2023-06-01_13h12.33.182,uncolored_shuffled,2021.2.3,59.967929186515214,
C:\Users\subject\Desktop\SVRT Experiments\SVRT Experiment 3\svrt_images\generated_images\results_problem_9,C:\Users\subject\Desktop\SVRT Experiments\SVRT Experiment 3\svrt_images\generated_images\results_problem_9\sample_0_0008.png,,,,,,,,,,,,,,,,,,,,,,,0,0,0,0,0,25,25,25,,,,,,,,,,,,,,j,9,B,B,25,1,Correct!,2.4823801999446005,364.4637008002028,None,364.4637008002028,None,366.96557690016925,None,,,,,97,001,2023-06-01_13h12.33.182,uncolored_shuffled,2021.2.3,59.967929186515214,
C:\Users\subject\Desktop\SVRT Experiments\SVRT Experiment 3\svrt_images\generated_images\results_problem_9,C:\Users\subject\Desktop\SVRT Experiments\SVRT Experiment 3\svrt_images\generated_images\results_problem_9\sample_1_0006.png,,,,,,,,,,,,,,,,,,,,,,,0,0,0,0,0,26,26,26,,,,,,,,,,,,,,f,9,A,A,25,1,Correct!,4.618185699917376,368.1998486001976,None,368.1998486001976,None,372.85335280001163,None,,,,,97,001,2023-06-01_13h12.33.182,uncolored_shuffled,2021.2.3,59.967929186515214,
C:\Users\subject\Desktop\SVRT Experiments\SVRT Experiment 3\svrt_images\generated_images\results_problem_9,C:\Users\subject\Desktop\SVRT Experiments\SVRT Experiment 3\svrt_images\generated_images\results_problem_9\sample_1_0012.png,,,,,,,,,,,,,,,,,,,,,,,0,0,0,0,0,27,27,27,,,,,,,,,,,,,,j,9,B,A,25,0,Incorrect!,3.793699000030756,374.1043016000185,None,374.1043016000185,None,377.92384230019525,None,,,,,97,001,2023-06-01_13h12.33.182,uncolored_shuffled,2021.2.3,59.967929186515214,
C:\Users\subject\Desktop\SVRT Experiments\SVRT Experiment 3\svrt_images\generated_images\results_problem_9,C:\Users\subject\Desktop\SVRT Experiments\SVRT Experiment 3\svrt_images\generated_images\results_problem_9\sample_1_0000.png,,,,,,,,,,,,,,,,,,,,,,,0,0,0,0,0,28,28,28,,,,,,,,,,,,,,f,9,A,A,25,1,Correct!,1.4824512999039143,379.19147370010614,None,379.19147370010614,None,380.7092747001443,None,,,,,97,001,2023-06-01_13h12.33.182,uncolored_shuffled,2021.2.3,59.967929186515214,
C:\Users\subject\Desktop\SVRT Experiments\SVRT Experiment 3\svrt_images\generated_images\results_problem_9,C:\Users\subject\Desktop\SVRT Experiments\SVRT Experiment 3\svrt_images\generated_images\results_problem_9\sample_0_0016.png,,,,,,,,,,,,,,,,,,,,,,,0,0,0,0,0,29,29,29,,,,,,,,,,,,,,f,9,A,B,25,0,Incorrect!,1.2890228999312967,381.9769077000674,None,381.9769077000674,None,383.2945393000264,None,,,,,97,001,2023-06-01_13h12.33.182,uncolored_shuffled,2021.2.3,59.967929186515214,
C:\Users\subject\Desktop\SVRT Experiments\SVRT Experiment 3\svrt_images\generated_images\results_problem_9,C:\Users\subject\Desktop\SVRT Experiments\SVRT Experiment 3\svrt_images\generated_images\results_problem_9\sample_1_0004.png,,,,,,,,,,,,,,,,,,,,,,,0,0,0,0,0,30,30,30,,,,,,,,,,,,,,j,9,B,A,25,0,Incorrect!,15.20692400005646,384.5788647001609,None,384.5788647001609,None,399.8403288000263,None,,,,,97,001,2023-06-01_13h12.33.182,uncolored_shuffled,2021.2.3,59.967929186515214,
C:\Users\subject\Desktop\SVRT Experiments\SVRT Experiment 3\svrt_images\generated_images\results_problem_9,C:\Users\subject\Desktop\SVRT Experiments\SVRT Experiment 3\svrt_images\generated_images\results_problem_9\sample_1_0001.png,,,,,,,,,,,,,,,,,,,,,,,0,0,0,0,0,31,31,31,,,,,,,,,,,,,,j,9,B,A,25,0,Incorrect!,0.8524523000232875,401.14135779999197,None,401.14135779999197,None,402.058713800041,None,,,,,97,001,2023-06-01_13h12.33.182,uncolored_shuffled,2021.2.3,59.967929186515214,
C:\Users\subject\Desktop\SVRT Experiments\SVRT Experiment 3\svrt_images\generated_images\results_problem_9,C:\Users\subject\Desktop\SVRT Experiments\SVRT Experiment 3\svrt_images\generated_images\results_problem_9\sample_0_0009.png,,,,,,,,,,,,,,,,,,,,,,,0,0,0,0,0,32,32,32,,,,,,,,,,,,,,f,9,A,B,25,0,Incorrect!,0.6094198999926448,403.37637920002453,None,403.37637920002453,None,404.0602250001393,None,,,,,97,001,2023-06-01_13h12.33.182,uncolored_shuffled,2021.2.3,59.967929186515214,
C:\Users\subject\Desktop\SVRT Experiments\SVRT Experiment 3\svrt_images\generated_images\results_problem_9,C:\Users\subject\Desktop\SVRT Experiments\SVRT Experiment 3\svrt_images\generated_images\results_problem_9\sample_0_0002.png,,,,,,,,,,,,,,,,,,,,,,,0,0,0,0,0,33,33,33,,,,,,,,,,,,,,j,9,B,B,25,1,Correct!,1.3038745000958443,405.37789450003766,None,405.37789450003766,None,406.7288978002034,None,,,,,97,001,2023-06-01_13h12.33.182,uncolored_shuffled,2021.2.3,59.967929186515214,
C:\Users\subject\Desktop\SVRT Experiments\SVRT Experiment 3\svrt_images\generated_images\results_problem_9,,,,,,,,,,,,,,,,,,,,,,,,0,0,0,0,,,,,,,,,,,,,,,,,,,,,,,,,,,,,,,,407.72965700016357,407.72965700016357,space,2.5840843999758363,97,001,2023-06-01_13h12.33.182,uncolored_shuffled,2021.2.3,59.967929186515214,
C:\Users\subject\Desktop\SVRT Experiments\SVRT Experiment 3\svrt_images\generated_images\results_problem_13,,C:\Users\subject\Desktop\SVRT Experiments\SVRT Experiment 3\svrt_images\generated_images\results_problem_13\sample_1_0003.png,,,,,,,,,,,,,,,,,,,,,,0,1,1,1,0,0,0,0,,,,,,,,,,,,,,f,13,A,A,25,1,Correct!,10.174163599964231,410.33161510014907,None,410.33161510014907,None,420.52262940001674,None,,,,,97,001,2023-06-01_13h12.33.182,uncolored_shuffled,2021.2.3,59.967929186515214,
C:\Users\subject\Desktop\SVRT Experiments\SVRT Experiment 3\svrt_images\generated_images\results_problem_13,,C:\Users\subject\Desktop\SVRT Experiments\SVRT Experiment 3\svrt_images\generated_images\results_problem_13\sample_0_0006.png,,,,,,,,,,,,,,,,,,,,,,0,1,1,1,0,1,1,1,,,,,,,,,,,,,,j,13,B,B,25,1,Correct!,1.5022262001875788,421.52339440002106,None,421.52339440002106,None,423.0578582000453,None,,,,,97,001,2023-06-01_13h12.33.182,uncolored_shuffled,2021.2.3,59.967929186515214,
C:\Users\subject\Desktop\SVRT Experiments\SVRT Experiment 3\svrt_images\generated_images\results_problem_13,,C:\Users\subject\Desktop\SVRT Experiments\SVRT Experiment 3\svrt_images\generated_images\results_problem_13\sample_1_0001.png,,,,,,,,,,,,,,,,,,,,,,0,1,1,1,0,2,2,2,,,,,,,,,,,,,,f,13,A,A,25,1,Correct!,1.5103293000720441,424.07531490013935,None,424.07531490013935,None,425.6098050000146,None,,,,,97,001,2023-06-01_13h12.33.182,uncolored_shuffled,2021.2.3,59.967929186515214,
C:\Users\subject\Desktop\SVRT Experiments\SVRT Experiment 3\svrt_images\generated_images\results_problem_13,,C:\Users\subject\Desktop\SVRT Experiments\SVRT Experiment 3\svrt_images\generated_images\results_problem_13\sample_0_0011.png,,,,,,,,,,,,,,,,,,,,,,0,1,1,1,0,3,3,3,,,,,,,,,,,,,,f,13,A,B,25,0,Incorrect!,2.2303536001127213,426.6272333001252,None,426.6272333001252,None,428.87893670005724,None,,,,,97,001,2023-06-01_13h12.33.182,uncolored_shuffled,2021.2.3,59.967929186515214,
C:\Users\subject\Desktop\SVRT Experiments\SVRT Experiment 3\svrt_images\generated_images\results_problem_13,,C:\Users\subject\Desktop\SVRT Experiments\SVRT Experiment 3\svrt_images\generated_images\results_problem_13\sample_0_0000.png,,,,,,,,,,,,,,,,,,,,,,0,1,1,1,0,4,4,4,,,,,,,,,,,,,,j,13,B,B,25,1,Correct!,2.2325472000520676,429.9130496000871,None,429.9130496000871,None,432.1647487001028,None,,,,,97,001,2023-06-01_13h12.33.182,uncolored_shuffled,2021.2.3,59.967929186515214,
C:\Users\subject\Desktop\SVRT Experiments\SVRT Experiment 3\svrt_images\generated_images\results_problem_13,,C:\Users\subject\Desktop\SVRT Experiments\SVRT Experiment 3\svrt_images\generated_images\results_problem_13\sample_0_0010.png,,,,,,,,,,,,,,,,,,,,,,0,1,1,1,0,5,5,5,,,,,,,,,,,,,,j,13,B,B,25,1,Correct!,0.8106757998466492,433.198865900049,None,433.198865900049,None,434.0328238999937,None,,,,,97,001,2023-06-01_13h12.33.182,uncolored_shuffled,2021.2.3,59.967929186515214,
C:\Users\subject\Desktop\SVRT Experiments\SVRT Experiment 3\svrt_images\generated_images\results_problem_13,,C:\Users\subject\Desktop\SVRT Experiments\SVRT Experiment 3\svrt_images\generated_images\results_problem_13\sample_1_0014.png,,,,,,,,,,,,,,,,,,,,,,0,1,1,1,0,6,6,6,,,,,,,,,,,,,,j,13,B,A,25,0,Incorrect!,46.405664399964735,435.0836225000676,None,435.0836225000676,None,481.5186087000184,None,,,,,97,001,2023-06-01_13h12.33.182,uncolored_shuffled,2021.2.3,59.967929186515214,
C:\Users\subject\Desktop\SVRT Experiments\SVRT Experiment 3\svrt_images\generated_images\results_problem_13,,C:\Users\subject\Desktop\SVRT Experiments\SVRT Experiment 3\svrt_images\generated_images\results_problem_13\sample_0_0012.png,,,,,,,,,,,,,,,,,,,,,,0,1,1,1,0,7,7,7,,,,,,,,,,,,,,j,13,B,B,25,1,Correct!,0.7917789998464286,482.5694279000163,None,482.5694279000163,None,483.38668810017407,None,,,,,97,001,2023-06-01_13h12.33.182,uncolored_shuffled,2021.2.3,59.967929186515214,
C:\Users\subject\Desktop\SVRT Experiments\SVRT Experiment 3\svrt_images\generated_images\results_problem_13,,C:\Users\subject\Desktop\SVRT Experiments\SVRT Experiment 3\svrt_images\generated_images\results_problem_13\sample_1_0007.png,,,,,,,,,,,,,,,,,,,,,,0,1,1,1,0,8,8,8,,,,,,,,,,,,,,f,13,A,A,25,1,Correct!,0.8750346000306308,484.45418510003947,None,484.45418510003947,None,485.3548559001647,None,,,,,97,001,2023-06-01_13h12.33.182,uncolored_shuffled,2021.2.3,59.967929186515214,
C:\Users\subject\Desktop\SVRT Experiments\SVRT Experiment 3\svrt_images\generated_images\results_problem_13,,C:\Users\subject\Desktop\SVRT Experiments\SVRT Experiment 3\svrt_images\generated_images\results_problem_13\sample_0_0002.png,,,,,,,,,,,,,,,,,,,,,,0,1,1,1,0,9,9,9,,,,,,,,,,,,,,j,13,B,B,25,1,Correct!,0.570880200015381,486.4223325001076,None,486.4223325001076,None,487.0227816000115,None,,,,,97,001,2023-06-01_13h12.33.182,uncolored_shuffled,2021.2.3,59.967929186515214,
C:\Users\subject\Desktop\SVRT Experiments\SVRT Experiment 3\svrt_images\generated_images\results_problem_13,,C:\Users\subject\Desktop\SVRT Experiments\SVRT Experiment 3\svrt_images\generated_images\results_problem_13\sample_0_0001.png,,,,,,,,,,,,,,,,,,,,,,0,1,1,1,0,10,10,10,,,,,,,,,,,,,,f,13,A,B,25,0,Incorrect!,0.8622405999340117,488.10694190021604,None,488.10694190021604,None,488.99092820007354,None,,,,,97,001,2023-06-01_13h12.33.182,uncolored_shuffled,2021.2.3,59.967929186515214,
C:\Users\subject\Desktop\SVRT Experiments\SVRT Experiment 3\svrt_images\generated_images\results_problem_13,,C:\Users\subject\Desktop\SVRT Experiments\SVRT Experiment 3\svrt_images\generated_images\results_problem_13\sample_1_0005.png,,,,,,,,,,,,,,,,,,,,,,0,1,1,1,0,11,11,11,,,,,,,,,,,,,,j,13,B,A,25,0,Incorrect!,1.0780886998400092,490.07508229999803,None,490.07508229999803,None,491.1759230000898,None,,,,,97,001,2023-06-01_13h12.33.182,uncolored_shuffled,2021.2.3,59.967929186515214,
C:\Users\subject\Desktop\SVRT Experiments\SVRT Experiment 3\svrt_images\generated_images\results_problem_13,,C:\Users\subject\Desktop\SVRT Experiments\SVRT Experiment 3\svrt_images\generated_images\results_problem_13\sample_1_0013.png,,,,,,,,,,,,,,,,,,,,,,0,1,1,1,0,12,12,12,,,,,,,,,,,,,,f,13,A,A,25,1,Correct!,11.172343299956992,492.276749700075,None,492.276749700075,None,503.4685162000824,None,,,,,97,001,2023-06-01_13h12.33.182,uncolored_shuffled,2021.2.3,59.967929186515214,
C:\Users\subject\Desktop\SVRT Experiments\SVRT Experiment 3\svrt_images\generated_images\results_problem_13,,C:\Users\subject\Desktop\SVRT Experiments\SVRT Experiment 3\svrt_images\generated_images\results_problem_13\sample_0_0004.png,,,,,,,,,,,,,,,,,,,,,,0,1,1,1,0,13,13,13,,,,,,,,,,,,,,f,13,A,B,25,0,Incorrect!,0.8069951999932528,504.58603390003555,None,504.58603390003555,None,505.4199687000364,None,,,,,97,001,2023-06-01_13h12.33.182,uncolored_shuffled,2021.2.3,59.967929186515214,
C:\Users\subject\Desktop\SVRT Experiments\SVRT Experiment 3\svrt_images\generated_images\results_problem_13,,C:\Users\subject\Desktop\SVRT Experiments\SVRT Experiment 3\svrt_images\generated_images\results_problem_13\sample_1_0002.png,,,,,,,,,,,,,,,,,,,,,,0,1,1,1,0,14,14,14,,,,,,,,,,,,,,j,13,B,A,25,0,Incorrect!,2.0395116999279708,506.5375084001571,None,506.5375084001571,None,508.605741500156,None,,,,,97,001,2023-06-01_13h12.33.182,uncolored_shuffled,2021.2.3,59.967929186515214,
C:\Users\subject\Desktop\SVRT Experiments\SVRT Experiment 3\svrt_images\generated_images\results_problem_13,,C:\Users\subject\Desktop\SVRT Experiments\SVRT Experiment 3\svrt_images\generated_images\results_problem_13\sample_1_0011.png,,,,,,,,,,,,,,,,,,,,,,0,1,1,1,0,15,15,15,,,,,,,,,,,,,,j,13,B,A,25,0,Incorrect!,0.7891047999728471,509.739899400156,None,509.739899400156,None,510.5571765000932,None,,,,,97,001,2023-06-01_13h12.33.182,uncolored_shuffled,2021.2.3,59.967929186515214,
C:\Users\subject\Desktop\SVRT Experiments\SVRT Experiment 3\svrt_images\generated_images\results_problem_13,,C:\Users\subject\Desktop\SVRT Experiments\SVRT Experiment 3\svrt_images\generated_images\results_problem_13\sample_0_0003.png,,,,,,,,,,,,,,,,,,,,,,0,1,1,1,0,16,16,16,,,,,,,,,,,,,,f,13,A,B,25,0,Incorrect!,0.7016597001347691,511.6913680001162,None,511.6913680001162,None,512.4252701001242,None,,,,,97,001,2023-06-01_13h12.33.182,uncolored_shuffled,2021.2.3,59.967929186515214,
C:\Users\subject\Desktop\SVRT Experiments\SVRT Experiment 3\svrt_images\generated_images\results_problem_13,,C:\Users\subject\Desktop\SVRT Experiments\SVRT Experiment 3\svrt_images\generated_images\results_problem_13\sample_0_0005.png,,,,,,,,,,,,,,,,,,,,,,0,1,1,1,0,17,17,17,,,,,,,,,,,,,,f,13,A,B,25,0,Incorrect!,2.032892200164497,513.5761054002214,None,513.5761054002214,None,515.6276866002008,None,,,,,97,001,2023-06-01_13h12.33.182,uncolored_shuffled,2021.2.3,59.967929186515214,
C:\Users\subject\Desktop\SVRT Experiments\SVRT Experiment 3\svrt_images\generated_images\results_problem_13,,C:\Users\subject\Desktop\SVRT Experiments\SVRT Experiment 3\svrt_images\generated_images\results_problem_13\sample_1_0015.png,,,,,,,,,,,,,,,,,,,,,,0,1,1,1,0,18,18,18,,,,,,,,,,,,,,f,13,A,A,25,1,Correct!,0.774394900072366,516.778561900137,None,516.778561900137,None,517.5957953000907,None,,,,,97,001,2023-06-01_13h12.33.182,uncolored_shuffled,2021.2.3,59.967929186515214,
C:\Users\subject\Desktop\SVRT Experiments\SVRT Experiment 3\svrt_images\generated_images\results_problem_13,,C:\Users\subject\Desktop\SVRT Experiments\SVRT Experiment 3\svrt_images\generated_images\results_problem_13\sample_0_0014.png,,,,,,,,,,,,,,,,,,,,,,0,1,1,1,0,19,19,19,,,,,,,,,,,,,,j,13,B,B,25,1,Correct!,0.6695356999989599,518.7633907001,None,518.7633907001,None,519.4805721000303,None,,,,,97,001,2023-06-01_13h12.33.182,uncolored_shuffled,2021.2.3,59.967929186515214,
C:\Users\subject\Desktop\SVRT Experiments\SVRT Experiment 3\svrt_images\generated_images\results_problem_13,,C:\Users\subject\Desktop\SVRT Experiments\SVRT Experiment 3\svrt_images\generated_images\results_problem_13\sample_1_0009.png,,,,,,,,,,,,,,,,,,,,,,0,1,1,1,0,20,20,20,,,,,,,,,,,,,,j,13,B,A,25,0,Incorrect!,0.6961250999011099,520.664823600091,None,520.664823600091,None,521.3820293000899,None,,,,,97,001,2023-06-01_13h12.33.182,uncolored_shuffled,2021.2.3,59.967929186515214,
C:\Users\subject\Desktop\SVRT Experiments\SVRT Experiment 3\svrt_images\generated_images\results_problem_13,,C:\Users\subject\Desktop\SVRT Experiments\SVRT Experiment 3\svrt_images\generated_images\results_problem_13\sample_1_0004.png,,,,,,,,,,,,,,,,,,,,,,0,1,1,1,0,21,21,21,,,,,,,,,,,,,,f,13,A,A,25,1,Correct!,0.706005800049752,522.582939500222,None,522.582939500222,None,523.3335023000836,None,,,,,97,001,2023-06-01_13h12.33.182,uncolored_shuffled,2021.2.3,59.967929186515214,
C:\Users\subject\Desktop\SVRT Experiments\SVRT Experiment 3\svrt_images\generated_images\results_problem_13,,C:\Users\subject\Desktop\SVRT Experiments\SVRT Experiment 3\svrt_images\generated_images\results_problem_13\sample_0_0008.png,,,,,,,,,,,,,,,,,,,,,,0,1,1,1,0,22,22,22,,,,,,,,,,,,,,j,13,B,B,25,1,Correct!,0.6905232998542488,524.5344093001913,None,524.5344093001913,None,525.2516097000334,None,,,,,97,001,2023-06-01_13h12.33.182,uncolored_shuffled,2021.2.3,59.967929186515214,
C:\Users\subject\Desktop\SVRT Experiments\SVRT Experiment 3\svrt_images\generated_images\results_problem_13,,C:\Users\subject\Desktop\SVRT Experiments\SVRT Experiment 3\svrt_images\generated_images\results_problem_13\sample_0_0009.png,,,,,,,,,,,,,,,,,,,,,,0,1,1,1,0,23,23,23,,,,,,,,,,,,,,f,13,A,B,25,0,Incorrect!,1.30039620003663,526.4525182000361,None,526.4525182000361,None,527.7701812000014,None,,,,,97,001,2023-06-01_13h12.33.182,uncolored_shuffled,2021.2.3,59.967929186515214,
C:\Users\subject\Desktop\SVRT Experiments\SVRT Experiment 3\svrt_images\generated_images\results_problem_13,,C:\Users\subject\Desktop\SVRT Experiments\SVRT Experiment 3\svrt_images\generated_images\results_problem_13\sample_1_0016.png,,,,,,,,,,,,,,,,,,,,,,0,1,1,1,0,24,24,24,,,,,,,,,,,,,,f,13,A,A,25,1,Correct!,0.8050806000828743,528.9877730000298,None,528.9877730000298,None,529.8383837000001,None,,,,,97,001,2023-06-01_13h12.33.182,uncolored_shuffled,2021.2.3,59.967929186515214,
C:\Users\subject\Desktop\SVRT Experiments\SVRT Experiment 3\svrt_images\generated_images\results_problem_13,,C:\Users\subject\Desktop\SVRT Experiments\SVRT Experiment 3\svrt_images\generated_images\results_problem_13\sample_1_0008.png,,,,,,,,,,,,,,,,,,,,,,0,1,1,1,0,25,25,25,,,,,,,,,,,,,,f,13,A,A,25,1,Correct!,0.8642029999755323,531.0726688001305,None,531.0726688001305,None,531.9900262001902,None,,,,,97,001,2023-06-01_13h12.33.182,uncolored_shuffled,2021.2.3,59.967929186515214,
C:\Users\subject\Desktop\SVRT Experiments\SVRT Experiment 3\svrt_images\generated_images\results_problem_13,,C:\Users\subject\Desktop\SVRT Experiments\SVRT Experiment 3\svrt_images\generated_images\results_problem_13\sample_1_0010.png,,,,,,,,,,,,,,,,,,,,,,0,1,1,1,0,26,26,26,,,,,,,,,,,,,,j,13,B,A,25,0,Incorrect!,0.9118581998627633,533.2409728001803,None,533.2409728001803,None,534.2083346000873,None,,,,,97,001,2023-06-01_13h12.33.182,uncolored_shuffled,2021.2.3,59.967929186515214,
C:\Users\subject\Desktop\SVRT Experiments\SVRT Experiment 3\svrt_images\generated_images\results_problem_13,,C:\Users\subject\Desktop\SVRT Experiments\SVRT Experiment 3\svrt_images\generated_images\results_problem_13\sample_0_0007.png,,,,,,,,,,,,,,,,,,,,,,0,1,1,1,0,27,27,27,,,,,,,,,,,,,,j,13,B,B,25,1,Correct!,0.6768324999138713,535.4760127000045,None,535.4760127000045,None,536.1931964000687,None,,,,,97,001,2023-06-01_13h12.33.182,uncolored_shuffled,2021.2.3,59.967929186515214,
C:\Users\subject\Desktop\SVRT Experiments\SVRT Experiment 3\svrt_images\generated_images\results_problem_13,,C:\Users\subject\Desktop\SVRT Experiments\SVRT Experiment 3\svrt_images\generated_images\results_problem_13\sample_0_0015.png,,,,,,,,,,,,,,,,,,,,,,0,1,1,1,0,28,28,28,,,,,,,,,,,,,,j,13,B,B,25,1,Correct!,0.988003300037235,537.4608255000785,None,537.4608255000785,None,538.4782514001708,None,,,,,97,001,2023-06-01_13h12.33.182,uncolored_shuffled,2021.2.3,59.967929186515214,
C:\Users\subject\Desktop\SVRT Experiments\SVRT Experiment 3\svrt_images\generated_images\results_problem_13,,C:\Users\subject\Desktop\SVRT Experiments\SVRT Experiment 3\svrt_images\generated_images\results_problem_13\sample_1_0012.png,,,,,,,,,,,,,,,,,,,,,,0,1,1,1,0,29,29,29,,,,,,,,,,,,,,f,13,A,A,25,1,Correct!,0.8309355999808758,539.7458839002065,None,539.7458839002065,None,540.6131718000397,None,,,,,97,001,2023-06-01_13h12.33.182,uncolored_shuffled,2021.2.3,59.967929186515214,
C:\Users\subject\Desktop\SVRT Experiments\SVRT Experiment 3\svrt_images\generated_images\results_problem_13,,C:\Users\subject\Desktop\SVRT Experiments\SVRT Experiment 3\svrt_images\generated_images\results_problem_13\sample_0_0016.png,,,,,,,,,,,,,,,,,,,,,,0,1,1,1,0,30,30,30,,,,,,,,,,,,,,f,13,A,B,25,0,Incorrect!,0.9352558001410216,541.897505100118,None,541.897505100118,None,542.8648738001939,None,,,,,97,001,2023-06-01_13h12.33.182,uncolored_shuffled,2021.2.3,59.967929186515214,
C:\Users\subject\Desktop\SVRT Experiments\SVRT Experiment 3\svrt_images\generated_images\results_problem_13,,C:\Users\subject\Desktop\SVRT Experiments\SVRT Experiment 3\svrt_images\generated_images\results_problem_13\sample_0_0013.png,,,,,,,,,,,,,,,,,,,,,,0,1,1,1,0,31,31,31,,,,,,,,,,,,,,j,13,B,B,25,1,Correct!,0.5868637000676244,544.1658826000057,None,544.1658826000057,None,544.783002700191,None,,,,,97,001,2023-06-01_13h12.33.182,uncolored_shuffled,2021.2.3,59.967929186515214,
C:\Users\subject\Desktop\SVRT Experiments\SVRT Experiment 3\svrt_images\generated_images\results_problem_13,,C:\Users\subject\Desktop\SVRT Experiments\SVRT Experiment 3\svrt_images\generated_images\results_problem_13\sample_1_0000.png,,,,,,,,,,,,,,,,,,,,,,0,1,1,1,0,32,32,32,,,,,,,,,,,,,,j,13,B,A,25,0,Incorrect!,0.6680962000973523,546.1006736001,None,546.1006736001,None,546.8512321000453,None,,,,,97,001,2023-06-01_13h12.33.182,uncolored_shuffled,2021.2.3,59.967929186515214,
C:\Users\subject\Desktop\SVRT Experiments\SVRT Experiment 3\svrt_images\generated_images\results_problem_13,,C:\Users\subject\Desktop\SVRT Experiments\SVRT Experiment 3\svrt_images\generated_images\results_problem_13\sample_1_0006.png,,,,,,,,,,,,,,,,,,,,,,0,1,1,1,0,33,33,33,,,,,,,,,,,,,,f,13,A,A,25,1,Correct!,0.7918527000583708,548.1689054002054,None,548.1689054002054,None,548.9861756002065,None,,,,,97,001,2023-06-01_13h12.33.182,uncolored_shuffled,2021.2.3,59.967929186515214,
C:\Users\subject\Desktop\SVRT Experiments\SVRT Experiment 3\svrt_images\generated_images\results_problem_13,,,,,,,,,,,,,,,,,,,,,,,,0,1,1,1,,,,,,,,,,,,,,,,,,,,,,,,,,,,,,,,549.9869332001545,549.9869332001545,space,0.9817876999732107,97,001,2023-06-01_13h12.33.182,uncolored_shuffled,2021.2.3,59.967929186515214,
C:\Users\subject\Desktop\SVRT Experiments\SVRT Experiment 3\svrt_images\generated_images\results_problem_1,,,C:\Users\subject\Desktop\SVRT Experiments\SVRT Experiment 3\svrt_images\generated_images\results_problem_1\sample_1_0015.png,,,,,,,,,,,,,,,,,,,,,0,2,2,2,0,0,0,0,,,,,,,,,,,,,,f,1,A,A,25,1,Correct!,1.6370126998517662,550.9876833001617,None,550.9876833001617,None,552.6555839001667,None,,,,,97,001,2023-06-01_13h12.33.182,uncolored_shuffled,2021.2.3,59.967929186515214,
C:\Users\subject\Desktop\SVRT Experiments\SVRT Experiment 3\svrt_images\generated_images\results_problem_1,,,C:\Users\subject\Desktop\SVRT Experiments\SVRT Experiment 3\svrt_images\generated_images\results_problem_1\sample_0_0001.png,,,,,,,,,,,,,,,,,,,,,0,2,2,2,0,1,1,1,,,,,,,,,,,,,,f,1,A,B,25,0,Incorrect!,1.2243425999768078,553.6563696002122,None,553.6563696002122,None,554.9073084001429,None,,,,,97,001,2023-06-01_13h12.33.182,uncolored_shuffled,2021.2.3,59.967929186515214,
C:\Users\subject\Desktop\SVRT Experiments\SVRT Experiment 3\svrt_images\generated_images\results_problem_1,,,C:\Users\subject\Desktop\SVRT Experiments\SVRT Experiment 3\svrt_images\generated_images\results_problem_1\sample_1_0000.png,,,,,,,,,,,,,,,,,,,,,0,2,2,2,0,2,2,2,,,,,,,,,,,,,,j,1,B,A,25,0,Incorrect!,0.5799536998383701,555.9247457000893,None,555.9247457000893,None,556.5251966000069,None,,,,,97,001,2023-06-01_13h12.33.182,uncolored_shuffled,2021.2.3,59.967929186515214,
C:\Users\subject\Desktop\SVRT Experiments\SVRT Experiment 3\svrt_images\generated_images\results_problem_1,,,C:\Users\subject\Desktop\SVRT Experiments\SVRT Experiment 3\svrt_images\generated_images\results_problem_1\sample_0_0009.png,,,,,,,,,,,,,,,,,,,,,0,2,2,2,0,3,3,3,,,,,,,,,,,,,,j,1,B,B,25,1,Correct!,1.322011400014162,557.5426287001465,None,557.5426287001465,None,558.8936282000504,None,,,,,97,001,2023-06-01_13h12.33.182,uncolored_shuffled,2021.2.3,59.967929186515214,
C:\Users\subject\Desktop\SVRT Experiments\SVRT Experiment 3\svrt_images\generated_images\results_problem_1,,,C:\Users\subject\Desktop\SVRT Experiments\SVRT Experiment 3\svrt_images\generated_images\results_problem_1\sample_1_0006.png,,,,,,,,,,,,,,,,,,,,,0,2,2,2,0,4,4,4,,,,,,,,,,,,,,j,1,B,A,25,0,Incorrect!,1.2648909999988973,559.9277670001611,None,559.9277670001611,None,561.2120626000687,None,,,,,97,001,2023-06-01_13h12.33.182,uncolored_shuffled,2021.2.3,59.967929186515214,
C:\Users\subject\Desktop\SVRT Experiments\SVRT Experiment 3\svrt_images\generated_images\results_problem_1,,,C:\Users\subject\Desktop\SVRT Experiments\SVRT Experiment 3\svrt_images\generated_images\results_problem_1\sample_0_0004.png,,,,,,,,,,,,,,,,,,,,,0,2,2,2,0,5,5,5,,,,,,,,,,,,,,f,1,A,B,25,0,Incorrect!,0.706514900084585,562.2461351000238,None,562.2461351000238,None,562.9800624002237,None,,,,,97,001,2023-06-01_13h12.33.182,uncolored_shuffled,2021.2.3,59.967929186515214,
C:\Users\subject\Desktop\SVRT Experiments\SVRT Experiment 3\svrt_images\generated_images\results_problem_1,,,C:\Users\subject\Desktop\SVRT Experiments\SVRT Experiment 3\svrt_images\generated_images\results_problem_1\sample_0_0000.png,,,,,,,,,,,,,,,,,,,,,0,2,2,2,0,6,6,6,,,,,,,,,,,,,,f,1,A,B,25,0,Incorrect!,0.889820700045675,564.0308189000934,None,564.0308189000934,None,564.9482154001016,None,,,,,97,001,2023-06-01_13h12.33.182,uncolored_shuffled,2021.2.3,59.967929186515214,
C:\Users\subject\Desktop\SVRT Experiments\SVRT Experiment 3\svrt_images\generated_images\results_problem_1,,,C:\Users\subject\Desktop\SVRT Experiments\SVRT Experiment 3\svrt_images\generated_images\results_problem_1\sample_0_0011.png,,,,,,,,,,,,,,,,,,,,,0,2,2,2,0,7,7,7,,,,,,,,,,,,,,j,1,B,B,25,1,Correct!,0.5135776000097394,565.9990056001116,None,565.9990056001116,None,566.5327419000678,None,,,,,97,001,2023-06-01_13h12.33.182,uncolored_shuffled,2021.2.3,59.967929186515214,
C:\Users\subject\Desktop\SVRT Experiments\SVRT Experiment 3\svrt_images\generated_images\results_problem_1,,,C:\Users\subject\Desktop\SVRT Experiments\SVRT Experiment 3\svrt_images\generated_images\results_problem_1\sample_1_0016.png,,,,,,,,,,,,,,,,,,,,,0,2,2,2,0,8,8,8,,,,,,,,,,,,,,f,1,A,A,25,1,Correct!,5.200404400005937,567.6001776000485,None,567.6001776000485,None,572.8208143000957,None,,,,,97,001,2023-06-01_13h12.33.182,uncolored_shuffled,2021.2.3,59.967929186515214,
C:\Users\subject\Desktop\SVRT Experiments\SVRT Experiment 3\svrt_images\generated_images\results_problem_1,,,C:\Users\subject\Desktop\SVRT Experiments\SVRT Experiment 3\svrt_images\generated_images\results_problem_1\sample_1_0009.png,,,,,,,,,,,,,,,,,,,,,0,2,2,2,0,9,9,9,,,,,,,,,,,,,,f,1,A,A,25,1,Correct!,0.6555861998349428,573.9049834001344,None,573.9049834001344,None,574.5888179000467,None,,,,,97,001,2023-06-01_13h12.33.182,uncolored_shuffled,2021.2.3,59.967929186515214,
C:\Users\subject\Desktop\SVRT Experiments\SVRT Experiment 3\svrt_images\generated_images\results_problem_1,,,C:\Users\subject\Desktop\SVRT Experiments\SVRT Experiment 3\svrt_images\generated_images\results_problem_1\sample_0_0010.png,,,,,,,,,,,,,,,,,,,,,0,2,2,2,0,10,10,10,,,,,,,,,,,,,,f,1,A,B,25,0,Incorrect!,0.4715740999672562,575.6729737001006,None,575.6729737001006,None,576.1733454000205,None,,,,,97,001,2023-06-01_13h12.33.182,uncolored_shuffled,2021.2.3,59.967929186515214,
C:\Users\subject\Desktop\SVRT Experiments\SVRT Experiment 3\svrt_images\generated_images\results_problem_1,,,C:\Users\subject\Desktop\SVRT Experiments\SVRT Experiment 3\svrt_images\generated_images\results_problem_1\sample_1_0003.png,,,,,,,,,,,,,,,,,,,,,0,2,2,2,0,11,11,11,,,,,,,,,,,,,,j,1,B,A,25,0,Incorrect!,0.40703759994357824,577.2574990000576,None,577.2574990000576,None,577.6911536999978,None,,,,,97,001,2023-06-01_13h12.33.182,uncolored_shuffled,2021.2.3,59.967929186515214,
C:\Users\subject\Desktop\SVRT Experiments\SVRT Experiment 3\svrt_images\generated_images\results_problem_1,,,C:\Users\subject\Desktop\SVRT Experiments\SVRT Experiment 3\svrt_images\generated_images\results_problem_1\sample_1_0008.png,,,,,,,,,,,,,,,,,,,,,0,2,2,2,0,12,12,12,,,,,,,,,,,,,,f,1,A,A,25,1,Correct!,0.37663220008835196,578.7919918000698,None,578.7919918000698,None,579.1922914001625,None,,,,,97,001,2023-06-01_13h12.33.182,uncolored_shuffled,2021.2.3,59.967929186515214,
C:\Users\subject\Desktop\SVRT Experiments\SVRT Experiment 3\svrt_images\generated_images\results_problem_1,,,C:\Users\subject\Desktop\SVRT Experiments\SVRT Experiment 3\svrt_images\generated_images\results_problem_1\sample_1_0010.png,,,,,,,,,,,,,,,,,,,,,0,2,2,2,0,13,13,13,,,,,,,,,,,,,,f,1,A,A,25,1,Correct!,0.5713635999709368,580.2931290001143,None,580.2931290001143,None,580.8935505000409,None,,,,,97,001,2023-06-01_13h12.33.182,uncolored_shuffled,2021.2.3,59.967929186515214,
C:\Users\subject\Desktop\SVRT Experiments\SVRT Experiment 3\svrt_images\generated_images\results_problem_1,,,C:\Users\subject\Desktop\SVRT Experiments\SVRT Experiment 3\svrt_images\generated_images\results_problem_1\sample_0_0016.png,,,,,,,,,,,,,,,,,,,,,0,2,2,2,0,14,14,14,,,,,,,,,,,,,,f,1,A,B,25,0,Incorrect!,0.5014330998528749,582.0110877000261,None,582.0110877000261,None,582.5448164001573,None,,,,,97,001,2023-06-01_13h12.33.182,uncolored_shuffled,2021.2.3,59.967929186515214,
C:\Users\subject\Desktop\SVRT Experiments\SVRT Experiment 3\svrt_images\generated_images\results_problem_1,,,C:\Users\subject\Desktop\SVRT Experiments\SVRT Experiment 3\svrt_images\generated_images\results_problem_1\sample_1_0013.png,,,,,,,,,,,,,,,,,,,,,0,2,2,2,0,15,15,15,,,,,,,,,,,,,,j,1,B,A,25,0,Incorrect!,0.4661529001314193,583.662340400042,None,583.662340400042,None,584.146026100032,None,,,,,97,001,2023-06-01_13h12.33.182,uncolored_shuffled,2021.2.3,59.967929186515214,
C:\Users\subject\Desktop\SVRT Experiments\SVRT Experiment 3\svrt_images\generated_images\results_problem_1,,,C:\Users\subject\Desktop\SVRT Experiments\SVRT Experiment 3\svrt_images\generated_images\results_problem_1\sample_1_0007.png,,,,,,,,,,,,,,,,,,,,,0,2,2,2,0,16,16,16,,,,,,,,,,,,,,j,1,B,A,25,0,Incorrect!,0.7763054999522865,585.2801862000488,None,585.2801862000488,None,586.0808078001719,None,,,,,97,001,2023-06-01_13h12.33.182,uncolored_shuffled,2021.2.3,59.967929186515214,
C:\Users\subject\Desktop\SVRT Experiments\SVRT Experiment 3\svrt_images\generated_images\results_problem_1,,,C:\Users\subject\Desktop\SVRT Experiments\SVRT Experiment 3\svrt_images\generated_images\results_problem_1\sample_0_0002.png,,,,,,,,,,,,,,,,,,,,,0,2,2,2,0,17,17,17,,,,,,,,,,,,,,j,1,B,B,25,1,Correct!,0.9317425999324769,587.3327191001736,None,587.3327191001736,None,588.2824576001149,None,,,,,97,001,2023-06-01_13h12.33.182,uncolored_shuffled,2021.2.3,59.967929186515214,
C:\Users\subject\Desktop\SVRT Experiments\SVRT Experiment 3\svrt_images\generated_images\results_problem_1,,,C:\Users\subject\Desktop\SVRT Experiments\SVRT Experiment 3\svrt_images\generated_images\results_problem_1\sample_0_0015.png,,,,,,,,,,,,,,,,,,,,,0,2,2,2,0,18,18,18,,,,,,,,,,,,,,j,1,B,B,25,1,Correct!,0.8232060999143869,589.4333477001637,None,589.4333477001637,None,590.2839607000351,None,,,,,97,001,2023-06-01_13h12.33.182,uncolored_shuffled,2021.2.3,59.967929186515214,
C:\Users\subject\Desktop\SVRT Experiments\SVRT Experiment 3\svrt_images\generated_images\results_problem_1,,,C:\Users\subject\Desktop\SVRT Experiments\SVRT Experiment 3\svrt_images\generated_images\results_problem_1\sample_0_0003.png,,,,,,,,,,,,,,,,,,,,,0,2,2,2,0,19,19,19,,,,,,,,,,,,,,j,1,B,B,25,1,Correct!,0.5888656000606716,591.4515367001295,None,591.4515367001295,None,592.0686625000089,None,,,,,97,001,2023-06-01_13h12.33.182,uncolored_shuffled,2021.2.3,59.967929186515214,
C:\Users\subject\Desktop\SVRT Experiments\SVRT Experiment 3\svrt_images\generated_images\results_problem_1,,,C:\Users\subject\Desktop\SVRT Experiments\SVRT Experiment 3\svrt_images\generated_images\results_problem_1\sample_1_0001.png,,,,,,,,,,,,,,,,,,,,,0,2,2,2,0,20,20,20,,,,,,,,,,,,,,f,1,A,A,25,1,Correct!,0.8114922000095248,593.2528968001716,None,593.2528968001716,None,594.1035291000735,None,,,,,97,001,2023-06-01_13h12.33.182,uncolored_shuffled,2021.2.3,59.967929186515214,
C:\Users\subject\Desktop\SVRT Experiments\SVRT Experiment 3\svrt_images\generated_images\results_problem_1,,,C:\Users\subject\Desktop\SVRT Experiments\SVRT Experiment 3\svrt_images\generated_images\results_problem_1\sample_1_0002.png,,,,,,,,,,,,,,,,,,,,,0,2,2,2,0,21,21,21,,,,,,,,,,,,,,f,1,A,A,25,1,Correct!,0.8086445000953972,595.287763300119,None,595.287763300119,None,596.1383989001624,None,,,,,97,001,2023-06-01_13h12.33.182,uncolored_shuffled,2021.2.3,59.967929186515214,
C:\Users\subject\Desktop\SVRT Experiments\SVRT Experiment 3\svrt_images\generated_images\results_problem_1,,,C:\Users\subject\Desktop\SVRT Experiments\SVRT Experiment 3\svrt_images\generated_images\results_problem_1\sample_0_0014.png,,,,,,,,,,,,,,,,,,,,,0,2,2,2,0,22,22,22,,,,,,,,,,,,,,f,1,A,B,25,0,Incorrect!,0.45307340007275343,597.339315000223,None,597.339315000223,None,597.823020900134,None,,,,,97,001,2023-06-01_13h12.33.182,uncolored_shuffled,2021.2.3,59.967929186515214,
C:\Users\subject\Desktop\SVRT Experiments\SVRT Experiment 3\svrt_images\generated_images\results_problem_1,,,C:\Users\subject\Desktop\SVRT Experiments\SVRT Experiment 3\svrt_images\generated_images\results_problem_1\sample_0_0008.png,,,,,,,,,,,,,,,,,,,,,0,2,2,2,0,23,23,23,,,,,,,,,,,,,,f,1,A,B,25,0,Incorrect!,0.6557805999182165,599.0405965000391,None,599.0405965000391,None,599.7244365001097,None,,,,,97,001,2023-06-01_13h12.33.182,uncolored_shuffled,2021.2.3,59.967929186515214,
C:\Users\subject\Desktop\SVRT Experiments\SVRT Experiment 3\svrt_images\generated_images\results_problem_1,,,C:\Users\subject\Desktop\SVRT Experiments\SVRT Experiment 3\svrt_images\generated_images\results_problem_1\sample_1_0014.png,,,,,,,,,,,,,,,,,,,,,0,2,2,2,0,24,24,24,,,,,,,,,,,,,,f,1,A,A,25,1,Correct!,0.5383348001632839,600.942031300161,None,600.942031300161,None,601.5091172000393,None,,,,,97,001,2023-06-01_13h12.33.182,uncolored_shuffled,2021.2.3,59.967929186515214,
C:\Users\subject\Desktop\SVRT Experiments\SVRT Experiment 3\svrt_images\generated_images\results_problem_1,,,C:\Users\subject\Desktop\SVRT Experiments\SVRT Experiment 3\svrt_images\generated_images\results_problem_1\sample_1_0005.png,,,,,,,,,,,,,,,,,,,,,0,2,2,2,0,25,25,25,,,,,,,,,,,,,,j,1,B,A,25,0,Incorrect!,0.9129675999283791,602.74338790006,None,602.74338790006,None,603.7107729001436,None,,,,,97,001,2023-06-01_13h12.33.182,uncolored_shuffled,2021.2.3,59.967929186515214,
C:\Users\subject\Desktop\SVRT Experiments\SVRT Experiment 3\svrt_images\generated_images\results_problem_1,,,C:\Users\subject\Desktop\SVRT Experiments\SVRT Experiment 3\svrt_images\generated_images\results_problem_1\sample_0_0012.png,,,,,,,,,,,,,,,,,,,,,0,2,2,2,0,26,26,26,,,,,,,,,,,,,,j,1,B,B,25,1,Correct!,0.6146082000341266,604.9617297002114,None,604.9617297002114,None,605.628886600025,None,,,,,97,001,2023-06-01_13h12.33.182,uncolored_shuffled,2021.2.3,59.967929186515214,
C:\Users\subject\Desktop\SVRT Experiments\SVRT Experiment 3\svrt_images\generated_images\results_problem_1,,,C:\Users\subject\Desktop\SVRT Experiments\SVRT Experiment 3\svrt_images\generated_images\results_problem_1\sample_0_0005.png,,,,,,,,,,,,,,,,,,,,,0,2,2,2,0,27,27,27,,,,,,,,,,,,,,j,1,B,B,25,1,Correct!,0.6084888998884708,606.8798417001963,None,606.8798417001963,None,607.5469769001938,None,,,,,97,001,2023-06-01_13h12.33.182,uncolored_shuffled,2021.2.3,59.967929186515214,
C:\Users\subject\Desktop\SVRT Experiments\SVRT Experiment 3\svrt_images\generated_images\results_problem_1,,,C:\Users\subject\Desktop\SVRT Experiments\SVRT Experiment 3\svrt_images\generated_images\results_problem_1\sample_0_0007.png,,,,,,,,,,,,,,,,,,,,,0,2,2,2,0,28,28,28,,,,,,,,,,,,,,j,1,B,B,25,1,Correct!,0.49768239981494844,608.8146366002038,None,608.8146366002038,None,609.3316417001188,None,,,,,97,001,2023-06-01_13h12.33.182,uncolored_shuffled,2021.2.3,59.967929186515214,
C:\Users\subject\Desktop\SVRT Experiments\SVRT Experiment 3\svrt_images\generated_images\results_problem_1,,,C:\Users\subject\Desktop\SVRT Experiments\SVRT Experiment 3\svrt_images\generated_images\results_problem_1\sample_1_0004.png,,,,,,,,,,,,,,,,,,,,,0,2,2,2,0,29,29,29,,,,,,,,,,,,,,j,1,B,A,25,0,Incorrect!,0.49697800003923476,610.5993173001334,None,610.5993173001334,None,611.1163645000197,None,,,,,97,001,2023-06-01_13h12.33.182,uncolored_shuffled,2021.2.3,59.967929186515214,
C:\Users\subject\Desktop\SVRT Experiments\SVRT Experiment 3\svrt_images\generated_images\results_problem_1,,,C:\Users\subject\Desktop\SVRT Experiments\SVRT Experiment 3\svrt_images\generated_images\results_problem_1\sample_1_0011.png,,,,,,,,,,,,,,,,,,,,,0,2,2,2,0,30,30,30,,,,,,,,,,,,,,j,1,B,A,25,0,Incorrect!,0.5676158999558538,612.4006711000111,None,612.4006711000111,None,613.0344765000045,None,,,,,97,001,2023-06-01_13h12.33.182,uncolored_shuffled,2021.2.3,59.967929186515214,
C:\Users\subject\Desktop\SVRT Experiments\SVRT Experiment 3\svrt_images\generated_images\results_problem_1,,,C:\Users\subject\Desktop\SVRT Experiments\SVRT Experiment 3\svrt_images\generated_images\results_problem_1\sample_0_0013.png,,,,,,,,,,,,,,,,,,,,,0,2,2,2,0,31,31,31,,,,,,,,,,,,,,f,1,A,B,25,0,Incorrect!,0.5288245000410825,614.3354559000582,None,614.3354559000582,None,614.8859279002063,None,,,,,97,001,2023-06-01_13h12.33.182,uncolored_shuffled,2021.2.3,59.967929186515214,
C:\Users\subject\Desktop\SVRT Experiments\SVRT Experiment 3\svrt_images\generated_images\results_problem_1,,,C:\Users\subject\Desktop\SVRT Experiments\SVRT Experiment 3\svrt_images\generated_images\results_problem_1\sample_0_0006.png,,,,,,,,,,,,,,,,,,,,,0,2,2,2,0,32,32,32,,,,,,,,,,,,,,j,1,B,B,25,1,Correct!,0.3967212999705225,616.2035414001439,None,616.2035414001439,None,616.6205102000386,None,,,,,97,001,2023-06-01_13h12.33.182,uncolored_shuffled,2021.2.3,59.967929186515214,
C:\Users\subject\Desktop\SVRT Experiments\SVRT Experiment 3\svrt_images\generated_images\results_problem_1,,,C:\Users\subject\Desktop\SVRT Experiments\SVRT Experiment 3\svrt_images\generated_images\results_problem_1\sample_1_0012.png,,,,,,,,,,,,,,,,,,,,,0,2,2,2,0,33,33,33,,,,,,,,,,,,,,j,1,B,A,25,0,Incorrect!,0.49408339988440275,617.9381792000495,None,617.9381792000495,None,618.4885877000634,None,,,,,97,001,2023-06-01_13h12.33.182,uncolored_shuffled,2021.2.3,59.967929186515214,
C:\Users\subject\Desktop\SVRT Experiments\SVRT Experiment 3\svrt_images\generated_images\results_problem_1,,,,,,,,,,,,,,,,,,,,,,,,0,2,2,2,,,,,,,,,,,,,,,,,,,,,,,,,,,,,,,,619.4893124999944,619.4893124999944,space,0.638915500137955,97,001,2023-06-01_13h12.33.182,uncolored_shuffled,2021.2.3,59.967929186515214,
C:\Users\subject\Desktop\SVRT Experiments\SVRT Experiment 3\svrt_images\generated_images\results_problem_7,,,,C:\Users\subject\Desktop\SVRT Experiments\SVRT Experiment 3\svrt_images\generated_images\results_problem_7\sample_0_0003.png,,,,,,,,,,,,,,,,,,,,0,3,3,3,0,0,0,0,,,,,,,,,,,,,,f,7,A,B,25,0,Incorrect!,1.1317229999694973,620.1565090001095,None,620.1565090001095,None,621.3073759002145,None,,,,,97,001,2023-06-01_13h12.33.182,uncolored_shuffled,2021.2.3,59.967929186515214,
C:\Users\subject\Desktop\SVRT Experiments\SVRT Experiment 3\svrt_images\generated_images\results_problem_7,,,,C:\Users\subject\Desktop\SVRT Experiments\SVRT Experiment 3\svrt_images\generated_images\results_problem_7\sample_1_0004.png,,,,,,,,,,,,,,,,,,,,0,3,3,3,0,1,1,1,,,,,,,,,,,,,,j,7,B,A,25,0,Incorrect!,0.5560892000794411,622.3081273999996,None,622.3081273999996,None,622.8919070002157,None,,,,,97,001,2023-06-01_13h12.33.182,uncolored_shuffled,2021.2.3,59.967929186515214,
C:\Users\subject\Desktop\SVRT Experiments\SVRT Experiment 3\svrt_images\generated_images\results_problem_7,,,,C:\Users\subject\Desktop\SVRT Experiments\SVRT Experiment 3\svrt_images\generated_images\results_problem_7\sample_0_0005.png,,,,,,,,,,,,,,,,,,,,0,3,3,3,0,2,2,2,,,,,,,,,,,,,,j,7,B,B,25,1,Correct!,12.426777499960735,623.9093205002137,None,623.9093205002137,None,636.3687205000315,None,,,,,97,001,2023-06-01_13h12.33.182,uncolored_shuffled,2021.2.3,59.967929186515214,
C:\Users\subject\Desktop\SVRT Experiments\SVRT Experiment 3\svrt_images\generated_images\results_problem_7,,,,C:\Users\subject\Desktop\SVRT Experiments\SVRT Experiment 3\svrt_images\generated_images\results_problem_7\sample_1_0006.png,,,,,,,,,,,,,,,,,,,,0,3,3,3,0,3,3,3,,,,,,,,,,,,,,j,7,B,A,25,0,Incorrect!,1.4780417000874877,637.3861605999991,None,637.3861605999991,None,638.8872993001714,None,,,,,97,001,2023-06-01_13h12.33.182,uncolored_shuffled,2021.2.3,59.967929186515214,
C:\Users\subject\Desktop\SVRT Experiments\SVRT Experiment 3\svrt_images\generated_images\results_problem_7,,,,C:\Users\subject\Desktop\SVRT Experiments\SVRT Experiment 3\svrt_images\generated_images\results_problem_7\sample_0_0016.png,,,,,,,,,,,,,,,,,,,,0,3,3,3,0,4,4,4,,,,,,,,,,,,,,f,7,A,B,25,0,Incorrect!,0.5906440999824554,639.9214206000324,None,639.9214206000324,None,640.538546500029,None,,,,,97,001,2023-06-01_13h12.33.182,uncolored_shuffled,2021.2.3,59.967929186515214,
C:\Users\subject\Desktop\SVRT Experiments\SVRT Experiment 3\svrt_images\generated_images\results_problem_7,,,,C:\Users\subject\Desktop\SVRT Experiments\SVRT Experiment 3\svrt_images\generated_images\results_problem_7\sample_0_0013.png,,,,,,,,,,,,,,,,,,,,0,3,3,3,0,5,5,5,,,,,,,,,,,,,,j,7,B,B,25,1,Correct!,0.41141860000789165,641.5726525001228,None,641.5726525001228,None,642.0068480002228,None,,,,,97,001,2023-06-01_13h12.33.182,uncolored_shuffled,2021.2.3,59.967929186515214,
C:\Users\subject\Desktop\SVRT Experiments\SVRT Experiment 3\svrt_images\generated_images\results_problem_7,,,,C:\Users\subject\Desktop\SVRT Experiments\SVRT Experiment 3\svrt_images\generated_images\results_problem_7\sample_1_0003.png,,,,,,,,,,,,,,,,,,,,0,3,3,3,0,6,6,6,,,,,,,,,,,,,,j,7,B,A,25,0,Incorrect!,0.703311099903658,643.0571710001677,None,643.0571710001677,None,643.7909572999924,None,,,,,97,001,2023-06-01_13h12.33.182,uncolored_shuffled,2021.2.3,59.967929186515214,
C:\Users\subject\Desktop\SVRT Experiments\SVRT Experiment 3\svrt_images\generated_images\results_problem_7,,,,C:\Users\subject\Desktop\SVRT Experiments\SVRT Experiment 3\svrt_images\generated_images\results_problem_7\sample_0_0002.png,,,,,,,,,,,,,,,,,,,,0,3,3,3,0,7,7,7,,,,,,,,,,,,,,f,7,A,B,25,0,Incorrect!,0.47043950017541647,644.8417888002004,None,644.8417888002004,None,645.3421727002133,None,,,,,97,001,2023-06-01_13h12.33.182,uncolored_shuffled,2021.2.3,59.967929186515214,
C:\Users\subject\Desktop\SVRT Experiments\SVRT Experiment 3\svrt_images\generated_images\results_problem_7,,,,C:\Users\subject\Desktop\SVRT Experiments\SVRT Experiment 3\svrt_images\generated_images\results_problem_7\sample_0_0012.png,,,,,,,,,,,,,,,,,,,,0,3,3,3,0,8,8,8,,,,,,,,,,,,,,j,7,B,B,25,1,Correct!,0.39036449999548495,646.4096466000192,None,646.4096466000192,None,646.8266015001573,None,,,,,97,001,2023-06-01_13h12.33.182,uncolored_shuffled,2021.2.3,59.967929186515214,
C:\Users\subject\Desktop\SVRT Experiments\SVRT Experiment 3\svrt_images\generated_images\results_problem_7,,,,C:\Users\subject\Desktop\SVRT Experiments\SVRT Experiment 3\svrt_images\generated_images\results_problem_7\sample_1_0012.png,,,,,,,,,,,,,,,,,,,,0,3,3,3,0,9,9,9,,,,,,,,,,,,,,j,7,B,A,25,0,Incorrect!,0.553945500170812,647.894095200114,None,647.894095200114,None,648.4778692000546,None,,,,,97,001,2023-06-01_13h12.33.182,uncolored_shuffled,2021.2.3,59.967929186515214,
C:\Users\subject\Desktop\SVRT Experiments\SVRT Experiment 3\svrt_images\generated_images\results_problem_7,,,,C:\Users\subject\Desktop\SVRT Experiments\SVRT Experiment 3\svrt_images\generated_images\results_problem_7\sample_0_0015.png,,,,,,,,,,,,,,,,,,,,0,3,3,3,0,10,10,10,,,,,,,,,,,,,,f,7,A,B,25,0,Incorrect!,0.5179530000314116,649.5620270001236,None,649.5620270001236,None,650.1124491000082,None,,,,,97,001,2023-06-01_13h12.33.182,uncolored_shuffled,2021.2.3,59.967929186515214,
C:\Users\subject\Desktop\SVRT Experiments\SVRT Experiment 3\svrt_images\generated_images\results_problem_7,,,,C:\Users\subject\Desktop\SVRT Experiments\SVRT Experiment 3\svrt_images\generated_images\results_problem_7\sample_1_0015.png,,,,,,,,,,,,,,,,,,,,0,3,3,3,0,11,11,11,,,,,,,,,,,,,,j,7,B,A,25,0,Incorrect!,0.74676140001975,651.2132271002047,None,651.2132271002047,None,651.9805115000345,None,,,,,97,001,2023-06-01_13h12.33.182,uncolored_shuffled,2021.2.3,59.967929186515214,
C:\Users\subject\Desktop\SVRT Experiments\SVRT Experiment 3\svrt_images\generated_images\results_problem_7,,,,C:\Users\subject\Desktop\SVRT Experiments\SVRT Experiment 3\svrt_images\generated_images\results_problem_7\sample_0_0014.png,,,,,,,,,,,,,,,,,,,,0,3,3,3,0,12,12,12,,,,,,,,,,,,,,f,7,A,B,25,0,Incorrect!,0.30257139983586967,653.081348700216,None,653.081348700216,None,653.4148903000169,None,,,,,97,001,2023-06-01_13h12.33.182,uncolored_shuffled,2021.2.3,59.967929186515214,
C:\Users\subject\Desktop\SVRT Experiments\SVRT Experiment 3\svrt_images\generated_images\results_problem_7,,,,C:\Users\subject\Desktop\SVRT Experiments\SVRT Experiment 3\svrt_images\generated_images\results_problem_7\sample_1_0014.png,,,,,,,,,,,,,,,,,,,,0,3,3,3,0,13,13,13,,,,,,,,,,,,,,j,7,B,A,25,0,Incorrect!,0.3642442000564188,654.5157596000936,None,654.5157596000936,None,654.8993778000586,None,,,,,97,001,2023-06-01_13h12.33.182,uncolored_shuffled,2021.2.3,59.967929186515214,
C:\Users\subject\Desktop\SVRT Experiments\SVRT Experiment 3\svrt_images\generated_images\results_problem_7,,,,C:\Users\subject\Desktop\SVRT Experiments\SVRT Experiment 3\svrt_images\generated_images\results_problem_7\sample_1_0000.png,,,,,,,,,,,,,,,,,,,,0,3,3,3,0,14,14,14,,,,,,,,,,,,,,f,7,A,A,25,1,Correct!,0.3110845999326557,656.0168924001046,None,656.0168924001046,None,656.3504761001095,None,,,,,97,001,2023-06-01_13h12.33.182,uncolored_shuffled,2021.2.3,59.967929186515214,
C:\Users\subject\Desktop\SVRT Experiments\SVRT Experiment 3\svrt_images\generated_images\results_problem_7,,,,C:\Users\subject\Desktop\SVRT Experiments\SVRT Experiment 3\svrt_images\generated_images\results_problem_7\sample_1_0010.png,,,,,,,,,,,,,,,,,,,,0,3,3,3,0,15,15,15,,,,,,,,,,,,,,j,7,B,A,25,0,Incorrect!,0.06730880006216466,657.4846642001066,None,657.4846642001066,None,657.5847334000282,None,,,,,97,001,2023-06-01_13h12.33.182,uncolored_shuffled,2021.2.3,59.967929186515214,
C:\Users\subject\Desktop\SVRT Experiments\SVRT Experiment 3\svrt_images\generated_images\results_problem_7,,,,C:\Users\subject\Desktop\SVRT Experiments\SVRT Experiment 3\svrt_images\generated_images\results_problem_7\sample_1_0009.png,,,,,,,,,,,,,,,,,,,,0,3,3,3,0,16,16,16,,,,,,,,,,,,,,f,7,A,A,25,1,Correct!,0.313021200010553,658.7189288001973,None,658.7189288001973,None,659.052509700181,None,,,,,97,001,2023-06-01_13h12.33.182,uncolored_shuffled,2021.2.3,59.967929186515214,
C:\Users\subject\Desktop\SVRT Experiments\SVRT Experiment 3\svrt_images\generated_images\results_problem_7,,,,C:\Users\subject\Desktop\SVRT Experiments\SVRT Experiment 3\svrt_images\generated_images\results_problem_7\sample_0_0009.png,,,,,,,,,,,,,,,,,,,,0,3,3,3,0,17,17,17,,,,,,,,,,,,,,f,7,A,B,25,0,Incorrect!,0.3565541000571102,660.2033863000106,None,660.2033863000106,None,660.587000500178,None,,,,,97,001,2023-06-01_13h12.33.182,uncolored_shuffled,2021.2.3,59.967929186515214,
C:\Users\subject\Desktop\SVRT Experiments\SVRT Experiment 3\svrt_images\generated_images\results_problem_7,,,,C:\Users\subject\Desktop\SVRT Experiments\SVRT Experiment 3\svrt_images\generated_images\results_problem_7\sample_1_0001.png,,,,,,,,,,,,,,,,,,,,0,3,3,3,0,18,18,18,,,,,,,,,,,,,,j,7,B,A,25,0,Incorrect!,0.46944739995524287,661.7545535000972,None,661.7545535000972,None,662.2716053000186,None,,,,,97,001,2023-06-01_13h12.33.182,uncolored_shuffled,2021.2.3,59.967929186515214,
C:\Users\subject\Desktop\SVRT Experiments\SVRT Experiment 3\svrt_images\generated_images\results_problem_7,,,,C:\Users\subject\Desktop\SVRT Experiments\SVRT Experiment 3\svrt_images\generated_images\results_problem_7\sample_0_0004.png,,,,,,,,,,,,,,,,,,,,0,3,3,3,0,19,19,19,,,,,,,,,,,,,,f,7,A,B,25,0,Incorrect!,0.3207791999448091,663.4391598000657,None,663.4391598000657,None,663.789414400002,None,,,,,97,001,2023-06-01_13h12.33.182,uncolored_shuffled,2021.2.3,59.967929186515214,
C:\Users\subject\Desktop\SVRT Experiments\SVRT Experiment 3\svrt_images\generated_images\results_problem_7,,,,C:\Users\subject\Desktop\SVRT Experiments\SVRT Experiment 3\svrt_images\generated_images\results_problem_7\sample_1_0005.png,,,,,,,,,,,,,,,,,,,,0,3,3,3,0,20,20,20,,,,,,,,,,,,,,j,7,B,A,25,0,Incorrect!,0.37026250013150275,664.9736505001783,None,664.9736505001783,None,665.3906243999954,None,,,,,97,001,2023-06-01_13h12.33.182,uncolored_shuffled,2021.2.3,59.967929186515214,
C:\Users\subject\Desktop\SVRT Experiments\SVRT Experiment 3\svrt_images\generated_images\results_problem_7,,,,C:\Users\subject\Desktop\SVRT Experiments\SVRT Experiment 3\svrt_images\generated_images\results_problem_7\sample_1_0002.png,,,,,,,,,,,,,,,,,,,,0,3,3,3,0,21,21,21,,,,,,,,,,,,,,f,7,A,A,25,1,Correct!,0.2650641999207437,666.5748561001383,None,666.5748561001383,None,666.8583979001269,None,,,,,97,001,2023-06-01_13h12.33.182,uncolored_shuffled,2021.2.3,59.967929186515214,
C:\Users\subject\Desktop\SVRT Experiments\SVRT Experiment 3\svrt_images\generated_images\results_problem_7,,,,C:\Users\subject\Desktop\SVRT Experiments\SVRT Experiment 3\svrt_images\generated_images\results_problem_7\sample_1_0016.png,,,,,,,,,,,,,,,,,,,,0,3,3,3,0,22,22,22,,,,,,,,,,,,,,f,7,A,A,25,1,Correct!,0.39653619984164834,668.0593097000383,None,668.0593097000383,None,668.4762829001993,None,,,,,97,001,2023-06-01_13h12.33.182,uncolored_shuffled,2021.2.3,59.967929186515214,
C:\Users\subject\Desktop\SVRT Experiments\SVRT Experiment 3\svrt_images\generated_images\results_problem_7,,,,C:\Users\subject\Desktop\SVRT Experiments\SVRT Experiment 3\svrt_images\generated_images\results_problem_7\sample_0_0000.png,,,,,,,,,,,,,,,,,,,,0,3,3,3,0,23,23,23,,,,,,,,,,,,,,f,7,A,B,25,0,Incorrect!,0.2739936001598835,669.693872100208,None,669.693872100208,None,670.0107697001658,None,,,,,97,001,2023-06-01_13h12.33.182,uncolored_shuffled,2021.2.3,59.967929186515214,
C:\Users\subject\Desktop\SVRT Experiments\SVRT Experiment 3\svrt_images\generated_images\results_problem_7,,,,C:\Users\subject\Desktop\SVRT Experiments\SVRT Experiment 3\svrt_images\generated_images\results_problem_7\sample_1_0011.png,,,,,,,,,,,,,,,,,,,,0,3,3,3,0,24,24,24,,,,,,,,,,,,,,f,7,A,A,25,1,Correct!,0.3714878000319004,671.228365200106,None,671.228365200106,None,671.628663000185,None,,,,,97,001,2023-06-01_13h12.33.182,uncolored_shuffled,2021.2.3,59.967929186515214,
C:\Users\subject\Desktop\SVRT Experiments\SVRT Experiment 3\svrt_images\generated_images\results_problem_7,,,,C:\Users\subject\Desktop\SVRT Experiments\SVRT Experiment 3\svrt_images\generated_images\results_problem_7\sample_0_0001.png,,,,,,,,,,,,,,,,,,,,0,3,3,3,0,25,25,25,,,,,,,,,,,,,,f,7,A,B,25,0,Incorrect!,0.30492360005155206,672.8629358001053,None,672.8629358001053,None,673.2298675000202,None,,,,,97,001,2023-06-01_13h12.33.182,uncolored_shuffled,2021.2.3,59.967929186515214,
C:\Users\subject\Desktop\SVRT Experiments\SVRT Experiment 3\svrt_images\generated_images\results_problem_7,,,,C:\Users\subject\Desktop\SVRT Experiments\SVRT Experiment 3\svrt_images\generated_images\results_problem_7\sample_1_0007.png,,,,,,,,,,,,,,,,,,,,0,3,3,3,0,26,26,26,,,,,,,,,,,,,,j,7,B,A,25,0,Incorrect!,0.44702029996551573,674.4808173000347,None,674.4808173000347,None,674.9478298001923,None,,,,,97,001,2023-06-01_13h12.33.182,uncolored_shuffled,2021.2.3,59.967929186515214,
C:\Users\subject\Desktop\SVRT Experiments\SVRT Experiment 3\svrt_images\generated_images\results_problem_7,,,,C:\Users\subject\Desktop\SVRT Experiments\SVRT Experiment 3\svrt_images\generated_images\results_problem_7\sample_0_0007.png,,,,,,,,,,,,,,,,,,,,0,3,3,3,0,27,27,27,,,,,,,,,,,,,,f,7,A,B,25,0,Incorrect!,0.3370435000397265,676.1987811001018,None,676.1987811001018,None,676.5657153001521,None,,,,,97,001,2023-06-01_13h12.33.182,uncolored_shuffled,2021.2.3,59.967929186515214,
C:\Users\subject\Desktop\SVRT Experiments\SVRT Experiment 3\svrt_images\generated_images\results_problem_7,,,,C:\Users\subject\Desktop\SVRT Experiments\SVRT Experiment 3\svrt_images\generated_images\results_problem_7\sample_0_0006.png,,,,,,,,,,,,,,,,,,,,0,3,3,3,0,28,28,28,,,,,,,,,,,,,,j,7,B,B,25,1,Correct!,0.3023984997998923,677.8333486001939,None,677.8333486001939,None,678.2002786002122,None,,,,,97,001,2023-06-01_13h12.33.182,uncolored_shuffled,2021.2.3,59.967929186515214,
C:\Users\subject\Desktop\SVRT Experiments\SVRT Experiment 3\svrt_images\generated_images\results_problem_7,,,,C:\Users\subject\Desktop\SVRT Experiments\SVRT Experiment 3\svrt_images\generated_images\results_problem_7\sample_1_0013.png,,,,,,,,,,,,,,,,,,,,0,3,3,3,0,29,29,29,,,,,,,,,,,,,,j,7,B,A,25,0,Incorrect!,0.27522319997660816,679.4845912000164,None,679.4845912000164,None,679.8014888002072,None,,,,,97,001,2023-06-01_13h12.33.182,uncolored_shuffled,2021.2.3,59.967929186515214,
C:\Users\subject\Desktop\SVRT Experiments\SVRT Experiment 3\svrt_images\generated_images\results_problem_7,,,,C:\Users\subject\Desktop\SVRT Experiments\SVRT Experiment 3\svrt_images\generated_images\results_problem_7\sample_1_0008.png,,,,,,,,,,,,,,,,,,,,0,3,3,3,0,30,30,30,,,,,,,,,,,,,,j,7,B,A,25,0,Incorrect!,0.3380197000224143,681.0857997999992,None,681.0857997999992,None,681.4694104001392,None,,,,,97,001,2023-06-01_13h12.33.182,uncolored_shuffled,2021.2.3,59.967929186515214,
C:\Users\subject\Desktop\SVRT Experiments\SVRT Experiment 3\svrt_images\generated_images\results_problem_7,,,,C:\Users\subject\Desktop\SVRT Experiments\SVRT Experiment 3\svrt_images\generated_images\results_problem_7\sample_0_0008.png,,,,,,,,,,,,,,,,,,,,0,3,3,3,0,31,31,31,,,,,,,,,,,,,,f,7,A,B,25,0,Incorrect!,0.4213851001113653,682.7704038000666,None,682.7704038000666,None,683.2540942002088,None,,,,,97,001,2023-06-01_13h12.33.182,uncolored_shuffled,2021.2.3,59.967929186515214,
C:\Users\subject\Desktop\SVRT Experiments\SVRT Experiment 3\svrt_images\generated_images\results_problem_7,,,,C:\Users\subject\Desktop\SVRT Experiments\SVRT Experiment 3\svrt_images\generated_images\results_problem_7\sample_0_0011.png,,,,,,,,,,,,,,,,,,,,0,3,3,3,0,32,32,32,,,,,,,,,,,,,,j,7,B,B,25,1,Correct!,0.3000074999872595,684.5717588001862,None,684.5717588001862,None,684.9220134001225,None,,,,,97,001,2023-06-01_13h12.33.182,uncolored_shuffled,2021.2.3,59.967929186515214,
C:\Users\subject\Desktop\SVRT Experiments\SVRT Experiment 3\svrt_images\generated_images\results_problem_7,,,,C:\Users\subject\Desktop\SVRT Experiments\SVRT Experiment 3\svrt_images\generated_images\results_problem_7\sample_0_0010.png,,,,,,,,,,,,,,,,,,,,0,3,3,3,0,33,33,33,,,,,,,,,,,,,,j,7,B,B,25,1,Correct!,0.26407439983449876,686.2396843000315,None,686.2396843000315,None,686.5232239000034,None,,,,,97,001,2023-06-01_13h12.33.182,uncolored_shuffled,2021.2.3,59.967929186515214,
C:\Users\subject\Desktop\SVRT Experiments\SVRT Experiment 3\svrt_images\generated_images\results_problem_7,,,,,,,,,,,,,,,,,,,,,,,,0,3,3,3,,,,,,,,,,,,,,,,,,,,,,,,,,,,,,,,687.5239766000304,687.5239766000304,space,0.6757784998044372,97,001,2023-06-01_13h12.33.182,uncolored_shuffled,2021.2.3,59.967929186515214,
C:\Users\subject\Desktop\SVRT Experiments\SVRT Experiment 3\svrt_images\generated_images\results_problem_17,,,,,C:\Users\subject\Desktop\SVRT Experiments\SVRT Experiment 3\svrt_images\generated_images\results_problem_17\sample_0_0007.png,,,,,,,,,,,,,,,,,,,0,4,4,4,0,0,0,0,,,,,,,,,,,,,,f,17,A,B,25,0,Incorrect!,2.2792344999033958,688.2245055001695,None,688.2245055001695,None,690.5262236001436,None,,,,,97,001,2023-06-01_13h12.33.182,uncolored_shuffled,2021.2.3,59.967929186515214,
C:\Users\subject\Desktop\SVRT Experiments\SVRT Experiment 3\svrt_images\generated_images\results_problem_17,,,,,C:\Users\subject\Desktop\SVRT Experiments\SVRT Experiment 3\svrt_images\generated_images\results_problem_17\sample_0_0003.png,,,,,,,,,,,,,,,,,,,0,4,4,4,0,1,1,1,,,,,,,,,,,,,,j,17,B,B,25,1,Correct!,0.28073580004274845,691.5269912001677,None,691.5269912001677,None,691.8272228001151,None,,,,,97,001,2023-06-01_13h12.33.182,uncolored_shuffled,2021.2.3,59.967929186515214,
C:\Users\subject\Desktop\SVRT Experiments\SVRT Experiment 3\svrt_images\generated_images\results_problem_17,,,,,C:\Users\subject\Desktop\SVRT Experiments\SVRT Experiment 3\svrt_images\generated_images\results_problem_17\sample_1_0015.png,,,,,,,,,,,,,,,,,,,0,4,4,4,0,2,2,2,,,,,,,,,,,,,,j,17,B,A,25,0,Incorrect!,0.45906030014157295,692.8446593000554,None,692.8446593000554,None,693.3283545000013,None,,,,,97,001,2023-06-01_13h12.33.182,uncolored_shuffled,2021.2.3,59.967929186515214,
C:\Users\subject\Desktop\SVRT Experiments\SVRT Experiment 3\svrt_images\generated_images\results_problem_17,,,,,C:\Users\subject\Desktop\SVRT Experiments\SVRT Experiment 3\svrt_images\generated_images\results_problem_17\sample_1_0004.png,,,,,,,,,,,,,,,,,,,0,4,4,4,0,3,3,3,,,,,,,,,,,,,,j,17,B,A,25,0,Incorrect!,3.413854999933392,694.3458095001988,None,694.3458095001988,None,697.781708399998,None,,,,,97,001,2023-06-01_13h12.33.182,uncolored_shuffled,2021.2.3,59.967929186515214,
C:\Users\subject\Desktop\SVRT Experiments\SVRT Experiment 3\svrt_images\generated_images\results_problem_17,,,,,C:\Users\subject\Desktop\SVRT Experiments\SVRT Experiment 3\svrt_images\generated_images\results_problem_17\sample_0_0014.png,,,,,,,,,,,,,,,,,,,0,4,4,4,0,4,4,4,,,,,,,,,,,,,,f,17,A,B,25,0,Incorrect!,3.3518170001916587,698.8158312002197,None,698.8158312002197,None,702.1850336000789,None,,,,,97,001,2023-06-01_13h12.33.182,uncolored_shuffled,2021.2.3,59.967929186515214,
C:\Users\subject\Desktop\SVRT Experiments\SVRT Experiment 3\svrt_images\generated_images\results_problem_17,,,,,C:\Users\subject\Desktop\SVRT Experiments\SVRT Experiment 3\svrt_images\generated_images\results_problem_17\sample_0_0009.png,,,,,,,,,,,,,,,,,,,0,4,4,4,0,5,5,5,,,,,,,,,,,,,,j,17,B,B,25,1,Correct!,0.8364762999117374,703.2191495001316,None,703.2191495001316,None,704.0864685000852,None,,,,,97,001,2023-06-01_13h12.33.182,uncolored_shuffled,2021.2.3,59.967929186515214,
C:\Users\subject\Desktop\SVRT Experiments\SVRT Experiment 3\svrt_images\generated_images\results_problem_17,,,,,C:\Users\subject\Desktop\SVRT Experiments\SVRT Experiment 3\svrt_images\generated_images\results_problem_17\sample_1_0013.png,,,,,,,,,,,,,,,,,,,0,4,4,4,0,6,6,6,,,,,,,,,,,,,,j,17,B,A,25,0,Incorrect!,4.518368799937889,705.1372208001558,None,705.1372208001558,None,709.6740091000684,None,,,,,97,001,2023-06-01_13h12.33.182,uncolored_shuffled,2021.2.3,59.967929186515214,
C:\Users\subject\Desktop\SVRT Experiments\SVRT Experiment 3\svrt_images\generated_images\results_problem_17,,,,,C:\Users\subject\Desktop\SVRT Experiments\SVRT Experiment 3\svrt_images\generated_images\results_problem_17\sample_1_0007.png,,,,,,,,,,,,,,,,,,,0,4,4,4,0,7,7,7,,,,,,,,,,,,,,f,17,A,A,25,1,Correct!,0.6427706000395119,710.7248083001468,None,710.7248083001468,None,711.3919774000533,None,,,,,97,001,2023-06-01_13h12.33.182,uncolored_shuffled,2021.2.3,59.967929186515214,
C:\Users\subject\Desktop\SVRT Experiments\SVRT Experiment 3\svrt_images\generated_images\results_problem_17,,,,,C:\Users\subject\Desktop\SVRT Experiments\SVRT Experiment 3\svrt_images\generated_images\results_problem_17\sample_0_0016.png,,,,,,,,,,,,,,,,,,,0,4,4,4,0,8,8,8,,,,,,,,,,,,,,j,17,B,B,25,1,Correct!,0.4120996000710875,712.4594559001271,None,712.4594559001271,None,712.8930875000078,None,,,,,97,001,2023-06-01_13h12.33.182,uncolored_shuffled,2021.2.3,59.967929186515214,
C:\Users\subject\Desktop\SVRT Experiments\SVRT Experiment 3\svrt_images\generated_images\results_problem_17,,,,,C:\Users\subject\Desktop\SVRT Experiments\SVRT Experiment 3\svrt_images\generated_images\results_problem_17\sample_1_0002.png,,,,,,,,,,,,,,,,,,,0,4,4,4,0,9,9,9,,,,,,,,,,,,,,j,17,B,A,25,0,Incorrect!,0.8070063998457044,713.9605659001973,None,713.9605659001973,None,714.7945215001237,None,,,,,97,001,2023-06-01_13h12.33.182,uncolored_shuffled,2021.2.3,59.967929186515214,
C:\Users\subject\Desktop\SVRT Experiments\SVRT Experiment 3\svrt_images\generated_images\results_problem_17,,,,,C:\Users\subject\Desktop\SVRT Experiments\SVRT Experiment 3\svrt_images\generated_images\results_problem_17\sample_0_0012.png,,,,,,,,,,,,,,,,,,,0,4,4,4,0,10,10,10,,,,,,,,,,,,,,f,17,A,B,25,0,Incorrect!,0.4408225000370294,715.8786865000147,None,715.8786865000147,None,716.3457040002104,None,,,,,97,001,2023-06-01_13h12.33.182,uncolored_shuffled,2021.2.3,59.967929186515214,
C:\Users\subject\Desktop\SVRT Experiments\SVRT Experiment 3\svrt_images\generated_images\results_problem_17,,,,,C:\Users\subject\Desktop\SVRT Experiments\SVRT Experiment 3\svrt_images\generated_images\results_problem_17\sample_0_0002.png,,,,,,,,,,,,,,,,,,,0,4,4,4,0,11,11,11,,,,,,,,,,,,,,j,17,B,B,25,1,Correct!,2.296968299895525,717.4465094001498,None,717.4465094001498,None,719.7649474001955,None,,,,,97,001,2023-06-01_13h12.33.182,uncolored_shuffled,2021.2.3,59.967929186515214,
C:\Users\subject\Desktop\SVRT Experiments\SVRT Experiment 3\svrt_images\generated_images\results_problem_17,,,,,C:\Users\subject\Desktop\SVRT Experiments\SVRT Experiment 3\svrt_images\generated_images\results_problem_17\sample_0_0005.png,,,,,,,,,,,,,,,,,,,0,4,4,4,0,12,12,12,,,,,,,,,,,,,,j,17,B,B,25,1,Correct!,0.3896943998988718,720.8657959999982,None,720.8657959999982,None,721.282833600184,None,,,,,97,001,2023-06-01_13h12.33.182,uncolored_shuffled,2021.2.3,59.967929186515214,
C:\Users\subject\Desktop\SVRT Experiments\SVRT Experiment 3\svrt_images\generated_images\results_problem_17,,,,,C:\Users\subject\Desktop\SVRT Experiments\SVRT Experiment 3\svrt_images\generated_images\results_problem_17\sample_0_0011.png,,,,,,,,,,,,,,,,,,,0,4,4,4,0,13,13,13,,,,,,,,,,,,,,j,17,B,B,25,1,Correct!,0.4318601000122726,722.3835887000896,None,722.3835887000896,None,722.8339359001257,None,,,,,97,001,2023-06-01_13h12.33.182,uncolored_shuffled,2021.2.3,59.967929186515214,
C:\Users\subject\Desktop\SVRT Experiments\SVRT Experiment 3\svrt_images\generated_images\results_problem_17,,,,,C:\Users\subject\Desktop\SVRT Experiments\SVRT Experiment 3\svrt_images\generated_images\results_problem_17\sample_1_0014.png,,,,,,,,,,,,,,,,,,,0,4,4,4,0,14,14,14,,,,,,,,,,,,,,j,17,B,A,25,0,Incorrect!,0.432078099809587,723.9514439001214,None,723.9514439001214,None,724.4017877001315,None,,,,,97,001,2023-06-01_13h12.33.182,uncolored_shuffled,2021.2.3,59.967929186515214,
C:\Users\subject\Desktop\SVRT Experiments\SVRT Experiment 3\svrt_images\generated_images\results_problem_17,,,,,C:\Users\subject\Desktop\SVRT Experiments\SVRT Experiment 3\svrt_images\generated_images\results_problem_17\sample_1_0010.png,,,,,,,,,,,,,,,,,,,0,4,4,4,0,15,15,15,,,,,,,,,,,,,,f,17,A,A,25,1,Correct!,0.47145830001682043,725.5359896000009,None,725.5359896000009,None,726.0363321001641,None,,,,,97,001,2023-06-01_13h12.33.182,uncolored_shuffled,2021.2.3,59.967929186515214,
C:\Users\subject\Desktop\SVRT Experiments\SVRT Experiment 3\svrt_images\generated_images\results_problem_17,,,,,C:\Users\subject\Desktop\SVRT Experiments\SVRT Experiment 3\svrt_images\generated_images\results_problem_17\sample_0_0001.png,,,,,,,,,,,,,,,,,,,0,4,4,4,0,16,16,16,,,,,,,,,,,,,,j,17,B,B,25,1,Correct!,0.34092749981209636,727.1705043001566,None,727.1705043001566,None,727.5374594000168,None,,,,,97,001,2023-06-01_13h12.33.182,uncolored_shuffled,2021.2.3,59.967929186515214,
C:\Users\subject\Desktop\SVRT Experiments\SVRT Experiment 3\svrt_images\generated_images\results_problem_17,,,,,C:\Users\subject\Desktop\SVRT Experiments\SVRT Experiment 3\svrt_images\generated_images\results_problem_17\sample_1_0003.png,,,,,,,,,,,,,,,,,,,0,4,4,4,0,17,17,17,,,,,,,,,,,,,,j,17,B,A,25,0,Incorrect!,0.45511550013907254,728.6883666000795,None,728.6883666000795,None,729.1720732999966,None,,,,,97,001,2023-06-01_13h12.33.182,uncolored_shuffled,2021.2.3,59.967929186515214,
C:\Users\subject\Desktop\SVRT Experiments\SVRT Experiment 3\svrt_images\generated_images\results_problem_17,,,,,C:\Users\subject\Desktop\SVRT Experiments\SVRT Experiment 3\svrt_images\generated_images\results_problem_17\sample_1_0009.png,,,,,,,,,,,,,,,,,,,0,4,4,4,0,18,18,18,,,,,,,,,,,,,,f,17,A,A,25,1,Correct!,0.39649409987032413,730.3229135000147,None,730.3229135000147,None,730.7398777999915,None,,,,,97,001,2023-06-01_13h12.33.182,uncolored_shuffled,2021.2.3,59.967929186515214,
C:\Users\subject\Desktop\SVRT Experiments\SVRT Experiment 3\svrt_images\generated_images\results_problem_17,,,,,C:\Users\subject\Desktop\SVRT Experiments\SVRT Experiment 3\svrt_images\generated_images\results_problem_17\sample_0_0013.png,,,,,,,,,,,,,,,,,,,0,4,4,4,0,19,19,19,,,,,,,,,,,,,,j,17,B,B,25,1,Correct!,0.5959352999925613,731.9074530000798,None,731.9074530000798,None,732.5245571001433,None,,,,,97,001,2023-06-01_13h12.33.182,uncolored_shuffled,2021.2.3,59.967929186515214,
C:\Users\subject\Desktop\SVRT Experiments\SVRT Experiment 3\svrt_images\generated_images\results_problem_17,,,,,C:\Users\subject\Desktop\SVRT Experiments\SVRT Experiment 3\svrt_images\generated_images\results_problem_17\sample_0_0010.png,,,,,,,,,,,,,,,,,,,0,4,4,4,0,20,20,20,,,,,,,,,,,,,,j,17,B,B,25,1,Correct!,0.49860600009560585,733.7088108002208,None,733.7088108002208,None,734.2258624001406,None,,,,,97,001,2023-06-01_13h12.33.182,uncolored_shuffled,2021.2.3,59.967929186515214,
C:\Users\subject\Desktop\SVRT Experiments\SVRT Experiment 3\svrt_images\generated_images\results_problem_17,,,,,C:\Users\subject\Desktop\SVRT Experiments\SVRT Experiment 3\svrt_images\generated_images\results_problem_17\sample_1_0016.png,,,,,,,,,,,,,,,,,,,0,4,4,4,0,21,21,21,,,,,,,,,,,,,,j,17,B,A,25,0,Incorrect!,0.43732000002637506,735.4100836000871,None,735.4100836000871,None,735.8937871002126,None,,,,,97,001,2023-06-01_13h12.33.182,uncolored_shuffled,2021.2.3,59.967929186515214,
C:\Users\subject\Desktop\SVRT Experiments\SVRT Experiment 3\svrt_images\generated_images\results_problem_17,,,,,C:\Users\subject\Desktop\SVRT Experiments\SVRT Experiment 3\svrt_images\generated_images\results_problem_17\sample_0_0015.png,,,,,,,,,,,,,,,,,,,0,4,4,4,0,22,22,22,,,,,,,,,,,,,,f,17,A,B,25,0,Incorrect!,0.4166872000787407,737.0946959001012,None,737.0946959001012,None,737.5450314001646,None,,,,,97,001,2023-06-01_13h12.33.182,uncolored_shuffled,2021.2.3,59.967929186515214,
C:\Users\subject\Desktop\SVRT Experiments\SVRT Experiment 3\svrt_images\generated_images\results_problem_17,,,,,C:\Users\subject\Desktop\SVRT Experiments\SVRT Experiment 3\svrt_images\generated_images\results_problem_17\sample_1_0006.png,,,,,,,,,,,,,,,,,,,0,4,4,4,0,23,23,23,,,,,,,,,,,,,,j,17,B,A,25,0,Incorrect!,0.26077369996346533,738.7626198001672,None,738.7626198001672,None,739.0461571000051,None,,,,,97,001,2023-06-01_13h12.33.182,uncolored_shuffled,2021.2.3,59.967929186515214,
C:\Users\subject\Desktop\SVRT Experiments\SVRT Experiment 3\svrt_images\generated_images\results_problem_17,,,,,C:\Users\subject\Desktop\SVRT Experiments\SVRT Experiment 3\svrt_images\generated_images\results_problem_17\sample_1_0001.png,,,,,,,,,,,,,,,,,,,0,4,4,4,0,24,24,24,,,,,,,,,,,,,,f,17,A,A,25,1,Correct!,0.3035658998414874,740.2637551000807,None,740.2637551000807,None,740.5973086000886,None,,,,,97,001,2023-06-01_13h12.33.182,uncolored_shuffled,2021.2.3,59.967929186515214,
C:\Users\subject\Desktop\SVRT Experiments\SVRT Experiment 3\svrt_images\generated_images\results_problem_17,,,,,C:\Users\subject\Desktop\SVRT Experiments\SVRT Experiment 3\svrt_images\generated_images\results_problem_17\sample_0_0008.png,,,,,,,,,,,,,,,,,,,0,4,4,4,0,25,25,25,,,,,,,,,,,,,,j,17,B,B,25,1,Correct!,0.2797634000889957,741.8315978001337,None,741.8315978001337,None,742.148504300043,None,,,,,97,001,2023-06-01_13h12.33.182,uncolored_shuffled,2021.2.3,59.967929186515214,
C:\Users\subject\Desktop\SVRT Experiments\SVRT Experiment 3\svrt_images\generated_images\results_problem_17,,,,,C:\Users\subject\Desktop\SVRT Experiments\SVRT Experiment 3\svrt_images\generated_images\results_problem_17\sample_1_0005.png,,,,,,,,,,,,,,,,,,,0,4,4,4,0,26,26,26,,,,,,,,,,,,,,j,17,B,A,25,0,Incorrect!,4.328529599821195,743.3827770000789,None,743.3827770000789,None,747.7527238000184,None,,,,,97,001,2023-06-01_13h12.33.182,uncolored_shuffled,2021.2.3,59.967929186515214,
C:\Users\subject\Desktop\SVRT Experiments\SVRT Experiment 3\svrt_images\generated_images\results_problem_17,,,,,C:\Users\subject\Desktop\SVRT Experiments\SVRT Experiment 3\svrt_images\generated_images\results_problem_17\sample_1_0000.png,,,,,,,,,,,,,,,,,,,0,4,4,4,0,27,27,27,,,,,,,,,,,,,,f,17,A,A,25,1,Correct!,0.9635799000971019,749.003677500179,None,749.003677500179,None,750.021076900186,None,,,,,97,001,2023-06-01_13h12.33.182,uncolored_shuffled,2021.2.3,59.967929186515214,
C:\Users\subject\Desktop\SVRT Experiments\SVRT Experiment 3\svrt_images\generated_images\results_problem_17,,,,,C:\Users\subject\Desktop\SVRT Experiments\SVRT Experiment 3\svrt_images\generated_images\results_problem_17\sample_0_0006.png,,,,,,,,,,,,,,,,,,,0,4,4,4,0,28,28,28,,,,,,,,,,,,,,f,17,A,B,25,0,Incorrect!,5.7504998000804335,751.2887376002036,None,751.2887376002036,None,757.0597471999936,None,,,,,97,001,2023-06-01_13h12.33.182,uncolored_shuffled,2021.2.3,59.967929186515214,
C:\Users\subject\Desktop\SVRT Experiments\SVRT Experiment 3\svrt_images\generated_images\results_problem_17,,,,,C:\Users\subject\Desktop\SVRT Experiments\SVRT Experiment 3\svrt_images\generated_images\results_problem_17\sample_1_0011.png,,,,,,,,,,,,,,,,,,,0,4,4,4,0,29,29,29,,,,,,,,,,,,,,j,17,B,A,25,0,Incorrect!,2.7998337999451905,758.3273788001388,None,758.3273788001388,None,761.1461610000115,None,,,,,97,001,2023-06-01_13h12.33.182,uncolored_shuffled,2021.2.3,59.967929186515214,
C:\Users\subject\Desktop\SVRT Experiments\SVRT Experiment 3\svrt_images\generated_images\results_problem_17,,,,,C:\Users\subject\Desktop\SVRT Experiments\SVRT Experiment 3\svrt_images\generated_images\results_problem_17\sample_0_0000.png,,,,,,,,,,,,,,,,,,,0,4,4,4,0,30,30,30,,,,,,,,,,,,,,f,17,A,B,25,0,Incorrect!,2.2458007999230176,762.5293781000655,None,762.5293781000655,None,764.7989148001652,None,,,,,97,001,2023-06-01_13h12.33.182,uncolored_shuffled,2021.2.3,59.967929186515214,
C:\Users\subject\Desktop\SVRT Experiments\SVRT Experiment 3\svrt_images\generated_images\results_problem_17,,,,,C:\Users\subject\Desktop\SVRT Experiments\SVRT Experiment 3\svrt_images\generated_images\results_problem_17\sample_1_0012.png,,,,,,,,,,,,,,,,,,,0,4,4,4,0,31,31,31,,,,,,,,,,,,,,f,17,A,A,25,1,Correct!,8.59526149998419,766.0999039001763,None,766.0999039001763,None,774.7230428000912,None,,,,,97,001,2023-06-01_13h12.33.182,uncolored_shuffled,2021.2.3,59.967929186515214,
C:\Users\subject\Desktop\SVRT Experiments\SVRT Experiment 3\svrt_images\generated_images\results_problem_17,,,,,C:\Users\subject\Desktop\SVRT Experiments\SVRT Experiment 3\svrt_images\generated_images\results_problem_17\sample_1_0008.png,,,,,,,,,,,,,,,,,,,0,4,4,4,0,32,32,32,,,,,,,,,,,,,,f,17,A,A,25,1,Correct!,1.9110047998838127,776.0240559000522,None,776.0240559000522,None,777.9755163001828,None,,,,,97,001,2023-06-01_13h12.33.182,uncolored_shuffled,2021.2.3,59.967929186515214,
C:\Users\subject\Desktop\SVRT Experiments\SVRT Experiment 3\svrt_images\generated_images\results_problem_17,,,,,C:\Users\subject\Desktop\SVRT Experiments\SVRT Experiment 3\svrt_images\generated_images\results_problem_17\sample_0_0004.png,,,,,,,,,,,,,,,,,,,0,4,4,4,0,33,33,33,,,,,,,,,,,,,,f,17,A,B,25,0,Incorrect!,2.1612146000843495,779.3098664002027,None,779.3098664002027,None,781.5282557001337,None,,,,,97,001,2023-06-01_13h12.33.182,uncolored_shuffled,2021.2.3,59.967929186515214,
C:\Users\subject\Desktop\SVRT Experiments\SVRT Experiment 3\svrt_images\generated_images\results_problem_17,,,,,,,,,,,,,,,,,,,,,,,,0,4,4,4,,,,,,,,,,,,,,,,,,,,,,,,,,,,,,,,782.528934800066,782.528934800066,space,0.8301289998926222,97,001,2023-06-01_13h12.33.182,uncolored_shuffled,2021.2.3,59.967929186515214,
C:\Users\subject\Desktop\SVRT Experiments\SVRT Experiment 3\svrt_images\generated_images\results_problem_6,,,,,,C:\Users\subject\Desktop\SVRT Experiments\SVRT Experiment 3\svrt_images\generated_images\results_problem_6\sample_1_0009.png,,,,,,,,,,,,,,,,,,0,5,5,5,0,0,0,0,,,,,,,,,,,,,,f,6,A,A,25,1,Correct!,1.0114686000160873,783.3795947001781,None,783.3795947001781,None,784.4137064001989,None,,,,,97,001,2023-06-01_13h12.33.182,uncolored_shuffled,2021.2.3,59.967929186515214,
C:\Users\subject\Desktop\SVRT Experiments\SVRT Experiment 3\svrt_images\generated_images\results_problem_6,,,,,,C:\Users\subject\Desktop\SVRT Experiments\SVRT Experiment 3\svrt_images\generated_images\results_problem_6\sample_0_0010.png,,,,,,,,,,,,,,,,,,0,5,5,5,0,1,1,1,,,,,,,,,,,,,,f,6,A,B,25,0,Incorrect!,1.1205887999385595,785.4144517001696,None,785.4144517001696,None,786.5653300001286,None,,,,,97,001,2023-06-01_13h12.33.182,uncolored_shuffled,2021.2.3,59.967929186515214,
C:\Users\subject\Desktop\SVRT Experiments\SVRT Experiment 3\svrt_images\generated_images\results_problem_6,,,,,,C:\Users\subject\Desktop\SVRT Experiments\SVRT Experiment 3\svrt_images\generated_images\results_problem_6\sample_1_0005.png,,,,,,,,,,,,,,,,,,0,5,5,5,0,2,2,2,,,,,,,,,,,,,,j,6,B,A,25,0,Incorrect!,0.4242501000408083,787.5827628001571,None,787.5827628001571,None,788.0331054001581,None,,,,,97,001,2023-06-01_13h12.33.182,uncolored_shuffled,2021.2.3,59.967929186515214,
C:\Users\subject\Desktop\SVRT Experiments\SVRT Experiment 3\svrt_images\generated_images\results_problem_6,,,,,,C:\Users\subject\Desktop\SVRT Experiments\SVRT Experiment 3\svrt_images\generated_images\results_problem_6\sample_1_0016.png,,,,,,,,,,,,,,,,,,0,5,5,5,0,3,3,3,,,,,,,,,,,,,,f,6,A,A,25,1,Correct!,0.2685141998808831,789.050533000147,None,789.050533000147,None,789.3507620000746,None,,,,,97,001,2023-06-01_13h12.33.182,uncolored_shuffled,2021.2.3,59.967929186515214,
C:\Users\subject\Desktop\SVRT Experiments\SVRT Experiment 3\svrt_images\generated_images\results_problem_6,,,,,,C:\Users\subject\Desktop\SVRT Experiments\SVRT Experiment 3\svrt_images\generated_images\results_problem_6\sample_0_0016.png,,,,,,,,,,,,,,,,,,0,5,5,5,0,4,4,4,,,,,,,,,,,,,,j,6,B,B,25,1,Correct!,0.23810600000433624,790.3848610999994,None,790.3848610999994,None,790.6517183000688,None,,,,,97,001,2023-06-01_13h12.33.182,uncolored_shuffled,2021.2.3,59.967929186515214,
C:\Users\subject\Desktop\SVRT Experiments\SVRT Experiment 3\svrt_images\generated_images\results_problem_6,,,,,,C:\Users\subject\Desktop\SVRT Experiments\SVRT Experiment 3\svrt_images\generated_images\results_problem_6\sample_0_0011.png,,,,,,,,,,,,,,,,,,0,5,5,5,0,5,5,5,,,,,,,,,,,,,,j,6,B,B,25,1,Correct!,0.24111300008371472,791.6858808000106,None,791.6858808000106,None,791.9527263001073,None,,,,,97,001,2023-06-01_13h12.33.182,uncolored_shuffled,2021.2.3,59.967929186515214,
C:\Users\subject\Desktop\SVRT Experiments\SVRT Experiment 3\svrt_images\generated_images\results_problem_6,,,,,,C:\Users\subject\Desktop\SVRT Experiments\SVRT Experiment 3\svrt_images\generated_images\results_problem_6\sample_0_0003.png,,,,,,,,,,,,,,,,,,0,5,5,5,0,6,6,6,,,,,,,,,,,,,,j,6,B,B,25,1,Correct!,0.22745510004460812,793.0035259001888,None,793.0035259001888,None,793.2537025001366,None,,,,,97,001,2023-06-01_13h12.33.182,uncolored_shuffled,2021.2.3,59.967929186515214,
C:\Users\subject\Desktop\SVRT Experiments\SVRT Experiment 3\svrt_images\generated_images\results_problem_6,,,,,,C:\Users\subject\Desktop\SVRT Experiments\SVRT Experiment 3\svrt_images\generated_images\results_problem_6\sample_0_0004.png,,,,,,,,,,,,,,,,,,0,5,5,5,0,7,7,7,,,,,,,,,,,,,,j,6,B,B,25,1,Correct!,0.2784726999234408,794.3045019002166,None,794.3045019002166,None,794.6047256002203,None,,,,,97,001,2023-06-01_13h12.33.182,uncolored_shuffled,2021.2.3,59.967929186515214,
C:\Users\subject\Desktop\SVRT Experiments\SVRT Experiment 3\svrt_images\generated_images\results_problem_6,,,,,,C:\Users\subject\Desktop\SVRT Experiments\SVRT Experiment 3\svrt_images\generated_images\results_problem_6\sample_0_0005.png,,,,,,,,,,,,,,,,,,0,5,5,5,0,8,8,8,,,,,,,,,,,,,,j,6,B,B,25,1,Correct!,0.27090239990502596,795.6722001000308,None,795.6722001000308,None,795.972422900144,None,,,,,97,001,2023-06-01_13h12.33.182,uncolored_shuffled,2021.2.3,59.967929186515214,
C:\Users\subject\Desktop\SVRT Experiments\SVRT Experiment 3\svrt_images\generated_images\results_problem_6,,,,,,C:\Users\subject\Desktop\SVRT Experiments\SVRT Experiment 3\svrt_images\generated_images\results_problem_6\sample_1_0013.png,,,,,,,,,,,,,,,,,,0,5,5,5,0,9,9,9,,,,,,,,,,,,,,f,6,A,A,25,1,Correct!,0.3511115999426693,797.0398598001339,None,797.0398598001339,None,797.4235149000306,None,,,,,97,001,2023-06-01_13h12.33.182,uncolored_shuffled,2021.2.3,59.967929186515214,
C:\Users\subject\Desktop\SVRT Experiments\SVRT Experiment 3\svrt_images\generated_images\results_problem_6,,,,,,C:\Users\subject\Desktop\SVRT Experiments\SVRT Experiment 3\svrt_images\generated_images\results_problem_6\sample_1_0015.png,,,,,,,,,,,,,,,,,,0,5,5,5,0,10,10,10,,,,,,,,,,,,,,,,,,,,,,,,,,,,798.4242741002236,798.4242741002236,space,0.9906826000660658,97,001,2023-06-01_13h12.33.182,uncolored_shuffled,2021.2.3,59.967929186515214,
C:\Users\subject\Desktop\SVRT Experiments\SVRT Experiment 3\svrt_images\generated_images\results_problem_14,,,,,,C:\Users\subject\Desktop\SVRT Experiments\SVRT Experiment 3\svrt_images\generated_images\results_problem_6\sample_1_0015.png,C:\Users\subject\Desktop\SVRT Experiments\SVRT Experiment 3\svrt_images\generated_images\results_problem_14\sample_0_0012.png,,,,,,,,,,,,,,,,,0,6,6,6,0,0,0,0,,,,,,,,,,,,,,f,14,A,B,25,0,Incorrect!,3.373226100113243,799.4417069000192,None,799.4417069000192,None,802.8442583000287,None,,,,,97,001,2023-06-01_13h12.33.182,uncolored_shuffled,2021.2.3,59.967929186515214,
C:\Users\subject\Desktop\SVRT Experiments\SVRT Experiment 3\svrt_images\generated_images\results_problem_14,,,,,,C:\Users\subject\Desktop\SVRT Experiments\SVRT Experiment 3\svrt_images\generated_images\results_problem_6\sample_1_0015.png,C:\Users\subject\Desktop\SVRT Experiments\SVRT Experiment 3\svrt_images\generated_images\results_problem_14\sample_0_0003.png,,,,,,,,,,,,,,,,,0,6,6,6,0,1,1,1,,,,,,,,,,,,,,j,14,B,B,25,1,Correct!,0.3218950000591576,803.8450266001746,None,803.8450266001746,None,804.1952939000912,None,,,,,97,001,2023-06-01_13h12.33.182,uncolored_shuffled,2021.2.3,59.967929186515214,
C:\Users\subject\Desktop\SVRT Experiments\SVRT Experiment 3\svrt_images\generated_images\results_problem_14,,,,,,C:\Users\subject\Desktop\SVRT Experiments\SVRT Experiment 3\svrt_images\generated_images\results_problem_6\sample_1_0015.png,C:\Users\subject\Desktop\SVRT Experiments\SVRT Experiment 3\svrt_images\generated_images\results_problem_14\sample_1_0007.png,,,,,,,,,,,,,,,,,0,6,6,6,0,2,2,2,,,,,,,,,,,,,,f,14,A,A,25,1,Correct!,2.1461575999855995,805.2127321001608,None,805.2127321001608,None,807.3810261001345,None,,,,,97,001,2023-06-01_13h12.33.182,uncolored_shuffled,2021.2.3,59.967929186515214,
C:\Users\subject\Desktop\SVRT Experiments\SVRT Experiment 3\svrt_images\generated_images\results_problem_14,,,,,,C:\Users\subject\Desktop\SVRT Experiments\SVRT Experiment 3\svrt_images\generated_images\results_problem_6\sample_1_0015.png,C:\Users\subject\Desktop\SVRT Experiments\SVRT Experiment 3\svrt_images\generated_images\results_problem_14\sample_0_0010.png,,,,,,,,,,,,,,,,,0,6,6,6,0,3,3,3,,,,,,,,,,,,,,j,14,B,B,25,1,Correct!,2.032496399944648,808.3984577001538,None,808.3984577001538,None,810.4500045001041,None,,,,,97,001,2023-06-01_13h12.33.182,uncolored_shuffled,2021.2.3,59.967929186515214,
C:\Users\subject\Desktop\SVRT Experiments\SVRT Experiment 3\svrt_images\generated_images\results_problem_14,,,,,,C:\Users\subject\Desktop\SVRT Experiments\SVRT Experiment 3\svrt_images\generated_images\results_problem_6\sample_1_0015.png,C:\Users\subject\Desktop\SVRT Experiments\SVRT Experiment 3\svrt_images\generated_images\results_problem_14\sample_0_0007.png,,,,,,,,,,,,,,,,,0,6,6,6,0,4,4,4,,,,,,,,,,,,,,j,14,B,B,25,1,Correct!,3.0907952000852674,811.4841251000762,None,811.4841251000762,None,814.6031376000028,None,,,,,97,001,2023-06-01_13h12.33.182,uncolored_shuffled,2021.2.3,59.967929186515214,
C:\Users\subject\Desktop\SVRT Experiments\SVRT Experiment 3\svrt_images\generated_images\results_problem_14,,,,,,C:\Users\subject\Desktop\SVRT Experiments\SVRT Experiment 3\svrt_images\generated_images\results_problem_6\sample_1_0015.png,C:\Users\subject\Desktop\SVRT Experiments\SVRT Experiment 3\svrt_images\generated_images\results_problem_14\sample_1_0013.png,,,,,,,,,,,,,,,,,0,6,6,6,0,5,5,5,,,,,,,,,,,,,,j,14,B,A,25,0,Incorrect!,1.057568799937144,815.6372445002198,None,815.6372445002198,None,816.7214048001915,None,,,,,97,001,2023-06-01_13h12.33.182,uncolored_shuffled,2021.2.3,59.967929186515214,
C:\Users\subject\Desktop\SVRT Experiments\SVRT Experiment 3\svrt_images\generated_images\results_problem_14,,,,,,C:\Users\subject\Desktop\SVRT Experiments\SVRT Experiment 3\svrt_images\generated_images\results_problem_6\sample_1_0015.png,C:\Users\subject\Desktop\SVRT Experiments\SVRT Experiment 3\svrt_images\generated_images\results_problem_14\sample_0_0002.png,,,,,,,,,,,,,,,,,0,6,6,6,0,6,6,6,,,,,,,,,,,,,,f,14,A,B,25,0,Incorrect!,0.9145115001592785,817.7722436001059,None,817.7722436001059,None,818.7062083000783,None,,,,,97,001,2023-06-01_13h12.33.182,uncolored_shuffled,2021.2.3,59.967929186515214,
C:\Users\subject\Desktop\SVRT Experiments\SVRT Experiment 3\svrt_images\generated_images\results_problem_14,,,,,,C:\Users\subject\Desktop\SVRT Experiments\SVRT Experiment 3\svrt_images\generated_images\results_problem_6\sample_1_0015.png,C:\Users\subject\Desktop\SVRT Experiments\SVRT Experiment 3\svrt_images\generated_images\results_problem_14\sample_1_0009.png,,,,,,,,,,,,,,,,,0,6,6,6,0,7,7,7,,,,,,,,,,,,,,j,14,B,A,25,0,Incorrect!,0.7684020001906902,819.7743601000402,None,819.7743601000402,None,820.5742849002127,None,,,,,97,001,2023-06-01_13h12.33.182,uncolored_shuffled,2021.2.3,59.967929186515214,
C:\Users\subject\Desktop\SVRT Experiments\SVRT Experiment 3\svrt_images\generated_images\results_problem_14,,,,,,C:\Users\subject\Desktop\SVRT Experiments\SVRT Experiment 3\svrt_images\generated_images\results_problem_6\sample_1_0015.png,C:\Users\subject\Desktop\SVRT Experiments\SVRT Experiment 3\svrt_images\generated_images\results_problem_14\sample_0_0013.png,,,,,,,,,,,,,,,,,0,6,6,6,0,8,8,8,,,,,,,,,,,,,,f,14,A,B,25,0,Incorrect!,0.36495179985649884,821.6417836002074,None,821.6417836002074,None,822.0253845001571,None,,,,,97,001,2023-06-01_13h12.33.182,uncolored_shuffled,2021.2.3,59.967929186515214,
C:\Users\subject\Desktop\SVRT Experiments\SVRT Experiment 3\svrt_images\generated_images\results_problem_14,,,,,,C:\Users\subject\Desktop\SVRT Experiments\SVRT Experiment 3\svrt_images\generated_images\results_problem_6\sample_1_0015.png,C:\Users\subject\Desktop\SVRT Experiments\SVRT Experiment 3\svrt_images\generated_images\results_problem_14\sample_1_0008.png,,,,,,,,,,,,,,,,,0,6,6,6,0,9,9,9,,,,,,,,,,,,,,j,14,B,A,25,0,Incorrect!,0.26588120008818805,823.0928601000924,None,823.0928601000924,None,823.376417200081,None,,,,,97,001,2023-06-01_13h12.33.182,uncolored_shuffled,2021.2.3,59.967929186515214,
C:\Users\subject\Desktop\SVRT Experiments\SVRT Experiment 3\svrt_images\generated_images\results_problem_14,,,,,,C:\Users\subject\Desktop\SVRT Experiments\SVRT Experiment 3\svrt_images\generated_images\results_problem_6\sample_1_0015.png,C:\Users\subject\Desktop\SVRT Experiments\SVRT Experiment 3\svrt_images\generated_images\results_problem_14\sample_1_0005.png,,,,,,,,,,,,,,,,,0,6,6,6,0,10,10,10,,,,,,,,,,,,,,f,14,A,A,25,1,Correct!,0.33015380008146167,824.460560800042,None,824.460560800042,None,824.8108225001488,None,,,,,97,001,2023-06-01_13h12.33.182,uncolored_shuffled,2021.2.3,59.967929186515214,
C:\Users\subject\Desktop\SVRT Experiments\SVRT Experiment 3\svrt_images\generated_images\results_problem_14,,,,,,C:\Users\subject\Desktop\SVRT Experiments\SVRT Experiment 3\svrt_images\generated_images\results_problem_6\sample_1_0015.png,C:\Users\subject\Desktop\SVRT Experiments\SVRT Experiment 3\svrt_images\generated_images\results_problem_14\sample_1_0014.png,,,,,,,,,,,,,,,,,0,6,6,6,0,11,11,11,,,,,,,,,,,,,,j,14,B,A,25,0,Incorrect!,0.8557274001650512,825.8949799002148,None,825.8949799002148,None,826.7789655001834,None,,,,,97,001,2023-06-01_13h12.33.182,uncolored_shuffled,2021.2.3,59.967929186515214,
C:\Users\subject\Desktop\SVRT Experiments\SVRT Experiment 3\svrt_images\generated_images\results_problem_14,,,,,,C:\Users\subject\Desktop\SVRT Experiments\SVRT Experiment 3\svrt_images\generated_images\results_problem_6\sample_1_0015.png,C:\Users\subject\Desktop\SVRT Experiments\SVRT Experiment 3\svrt_images\generated_images\results_problem_14\sample_0_0001.png,,,,,,,,,,,,,,,,,0,6,6,6,0,12,12,12,,,,,,,,,,,,,,j,14,B,B,25,1,Correct!,1.3268723001237959,827.8798064000439,None,827.8798064000439,None,829.2308375001885,None,,,,,97,001,2023-06-01_13h12.33.182,uncolored_shuffled,2021.2.3,59.967929186515214,
C:\Users\subject\Desktop\SVRT Experiments\SVRT Experiment 3\svrt_images\generated_images\results_problem_14,,,,,,C:\Users\subject\Desktop\SVRT Experiments\SVRT Experiment 3\svrt_images\generated_images\results_problem_6\sample_1_0015.png,C:\Users\subject\Desktop\SVRT Experiments\SVRT Experiment 3\svrt_images\generated_images\results_problem_14\sample_0_0006.png,,,,,,,,,,,,,,,,,0,6,6,6,0,13,13,13,,,,,,,,,,,,,,f,14,A,B,25,0,Incorrect!,0.5623304999899119,830.348351099994,None,830.348351099994,None,830.9321225001477,None,,,,,97,001,2023-06-01_13h12.33.182,uncolored_shuffled,2021.2.3,59.967929186515214,
C:\Users\subject\Desktop\SVRT Experiments\SVRT Experiment 3\svrt_images\generated_images\results_problem_14,,,,,,C:\Users\subject\Desktop\SVRT Experiments\SVRT Experiment 3\svrt_images\generated_images\results_problem_6\sample_1_0015.png,C:\Users\subject\Desktop\SVRT Experiments\SVRT Experiment 3\svrt_images\generated_images\results_problem_14\sample_1_0002.png,,,,,,,,,,,,,,,,,0,6,6,6,0,14,14,14,,,,,,,,,,,,,,j,14,B,A,25,0,Incorrect!,0.19709310005418956,832.0496287001297,None,832.0496287001297,None,832.266458600061,None,,,,,97,001,2023-06-01_13h12.33.182,uncolored_shuffled,2021.2.3,59.967929186515214,
C:\Users\subject\Desktop\SVRT Experiments\SVRT Experiment 3\svrt_images\generated_images\results_problem_14,,,,,,C:\Users\subject\Desktop\SVRT Experiments\SVRT Experiment 3\svrt_images\generated_images\results_problem_6\sample_1_0015.png,C:\Users\subject\Desktop\SVRT Experiments\SVRT Experiment 3\svrt_images\generated_images\results_problem_14\sample_1_0011.png,,,,,,,,,,,,,,,,,0,6,6,6,0,15,15,15,,,,,,,,,,,,,,j,14,B,A,25,0,Incorrect!,0.2701657998841256,833.4006592000369,None,833.4006592000369,None,833.700870500179,None,,,,,97,001,2023-06-01_13h12.33.182,uncolored_shuffled,2021.2.3,59.967929186515214,
